t_us,ax,ay,az,ax1,ay1,az1,shunt_raw,bus_raw,curr_raw,pg_rpm,seq,dt
0,1599,2867,127787,1764,3471,127191,-1,0,-4,1,9426,
1001,1710,2987,127866,1687,3503,127042,-2,0,-8,1,9427,0.001001
2001,1594,2975,127772,1829,3465,126949,1,0,4,1,9428,0.0009999999999999998
3000,1621,3006,127956,1699,3543,127001,1,0,4,1,9429,0.0009990000000000003
4000,1548,2888,127985,1835,3369,127191,0,0,4,1,9430,0.001
5000,1719,2958,127973,1783,3400,127073,0,0,0,1,9431,0.001
6000,1605,2935,128041,1737,3414,127101,0,0,0,1,9432,0.001
7000,1584,2957,127848,1743,3356,127106,1,0,4,1,9433,0.0009999999999999992
8001,1614,2999,127906,1694,3422,127141,0,0,0,1,9434,0.0010010000000000002
8999,1687,3051,127851,1759,3400,127089,1,0,0,1,9435,0.0009980000000000006
9999,1560,3016,127910,1792,3488,127201,0,0,4,1,9436,0.0009999999999999992
11001,1626,2862,127991,1797,3419,126964,0,0,0,1,9437,0.0010020000000000012
12000,1643,2966,127843,1747,3507,127095,0,0,0,1,9438,0.0009989999999999999
13000,1615,2901,127816,1764,3398,127093,1,0,4,1,9439,0.0009999999999999992
14000,1628,2986,127912,1716,3368,127057,0,0,0,1,9440,0.0009999999999999992
15000,1594,2909,127980,1696,3362,126999,1,0,0,1,9441,0.0010000000000000009
16001,1694,3009,127996,1837,3431,127100,0,0,4,1,9442,0.0010009999999999984
17000,1541,2941,127896,1751,3435,127148,0,0,0,1,9443,0.0009989999999999999
18000,1690,3020,127899,1764,3459,127079,-1,0,-4,1,9444,0.0010000000000000009
19002,1540,2886,127799,1770,3453,127047,1,0,4,1,9445,0.0010019999999999994
20000,1664,2961,127945,1710,3470,127112,1,0,4,1,9446,0.0009980000000000024
21000,1489,2843,127893,1789,3372,127103,1,0,4,1,9447,0.0009999999999999974
22000,1662,2933,127945,1818,3397,127073,-1,0,4,1,9448,0.0010000000000000009
22999,1669,2910,127869,1797,3427,127084,-1,0,-4,1,9449,0.0009989999999999999
24110,1634,2918,127945,1789,3538,127084,1,0,4,1,9450,0.0011110000000000009
25003,1572,3000,127904,1753,3388,127101,1,0,4,1,9451,0.000892999999999998
26027,1691,2970,127768,1758,3451,126988,0,0,0,1,9452,0.0010240000000000006
27043,1624,2942,127852,1804,3401,127040,0,0,0,1,9453,0.0010159999999999995
28005,1536,2933,127803,1741,3467,126943,-2,0,0,1,9454,0.000962000000000001
29001,1620,2967,127811,1731,3437,126958,-2,0,-8,1,9455,0.0009960000000000004
29999,1547,2905,127933,1815,3403,127027,0,0,0,1,9456,0.0009979999999999989
31000,1603,2888,127953,1835,3423,127073,1,0,4,1,9457,0.0010010000000000019
32000,1639,3034,127847,1857,3434,127012,0,0,0,1,9458,0.0010000000000000009
32999,1537,2881,127826,1832,3392,127035,-1,0,-4,1,9459,0.0009989999999999999
34000,1668,2970,127938,1750,3400,127009,0,0,-4,1,9460,0.001000999999999995
35001,1691,2843,127866,1722,3511,127068,0,0,0,1,9461,0.0010010000000000019
36000,1612,2928,127929,1698,3457,127086,0,0,0,1,9462,0.0009989999999999999
37000,1540,2893,127860,1842,3366,127054,-1,0,-4,1,9463,0.0010000000000000009
38000,1632,2879,127930,1649,3431,127103,0,0,0,1,9464,0.0010000000000000009
39000,1516,2936,127815,1806,3481,127113,1,0,4,1,9465,0.0010000000000000009
40000,1638,2886,127896,1827,3431,127032,-1,0,4,1,9466,0.0010000000000000009
41000,1659,2917,127956,1832,3423,127138,1,0,-4,1,9467,0.000999999999999994
42000,1576,2904,127946,1787,3458,126966,1,0,4,1,9468,0.0010000000000000009
42999,1585,2874,127888,1788,3409,127141,-1,0,-4,1,9469,0.0009989999999999999
44000,1657,2961,128020,1696,3467,127058,0,0,0,1,9470,0.0010010000000000019
45000,1620,2895,127861,1651,3329,127115,0,0,0,1,9471,0.0010000000000000009
46006,1727,2956,127860,1785,3346,126989,0,0,0,1,9472,0.001006
47034,1617,2935,127962,1746,3418,127120,-1,0,0,1,9473,0.0010280000000000011
47999,1643,2927,127908,1670,3435,127028,-1,1,-4,1,9474,0.0009650000000000006
48999,1524,2903,127971,1730,3463,127073,1,0,4,1,9475,0.0010000000000000009
50000,1624,3016,127877,1720,3459,126956,-1,0,-4,1,9476,0.001000999999999995
50999,1690,2987,127960,1792,3415,127093,-1,0,-4,1,9477,0.0009989999999999999
52000,1525,2964,128015,1769,3345,127141,0,0,-4,1,9478,0.0010010000000000019
53000,1614,2852,127915,1753,3426,127113,0,0,0,1,9479,0.0010000000000000009
54000,1638,2974,127979,1735,3482,127128,0,0,0,1,9480,0.0010000000000000009
55000,1553,2965,127817,1794,3373,127236,-1,0,-4,1,9481,0.0010000000000000009
56000,1697,2902,127856,1797,3514,127100,0,0,0,1,9482,0.000999999999999994
57000,1646,3009,128076,1820,3380,127160,0,0,0,1,9483,0.0010000000000000009
58007,1681,2969,127812,1816,3458,127039,0,0,0,1,9484,0.001007000000000001
59001,1621,2953,127965,1736,3418,126983,0,0,0,1,9485,0.0009940000000000018
60000,1649,2945,127971,1743,3509,127075,0,0,0,1,9486,0.0009989999999999999
61000,1619,3032,127938,1734,3419,127060,1,0,4,1,9487,0.0010000000000000009
61999,1712,3019,127937,1847,3425,127115,0,1,0,1,9488,0.0009989999999999999
63000,1631,2924,127893,1830,3471,127102,-3,1,-12,1,9489,0.0010010000000000019
64000,1610,2970,127825,1793,3454,127023,0,1,-12,1,9490,0.0010000000000000009
65000,1541,2943,127937,1781,3491,127083,1,0,0,1,9491,0.0010000000000000009
66000,1603,2917,127849,1780,3561,127122,1,0,4,1,9492,0.0010000000000000009
67000,1615,2957,127850,1705,3420,127180,0,0,0,1,9493,0.000999999999999987
68000,1532,2963,127945,1780,3490,126959,0,0,0,1,9494,0.0010000000000000009
69000,1627,2914,127885,1807,3446,127065,0,0,0,1,9495,0.0010000000000000009
70000,1612,2910,127951,1735,3449,127142,-1,0,0,1,9496,0.0010000000000000009
71000,1644,2993,127835,1809,3535,127107,-2,0,-4,1,9497,0.0010000000000000009
72000,1513,3036,127891,1733,3429,127071,-2,0,-8,1,9498,0.0010000000000000009
73000,1624,3010,128034,1827,3425,126864,0,0,0,1,9499,0.0010000000000000009
73999,1718,2949,127892,1741,3393,126974,0,0,0,1,9500,0.0009989999999999999
75000,1554,3043,127758,1805,3487,127025,0,1,0,1,9501,0.0010010000000000019
75999,1530,2985,127830,1643,3424,127034,0,1,0,1,9502,0.0009989999999999999
77000,1661,2966,127954,1649,3486,127057,0,0,0,1,9503,0.0010010000000000019
78000,1623,2946,127905,1681,3499,126941,0,0,0,1,9504,0.0010000000000000009
79000,1668,2959,127901,1695,3445,127161,-1,1,-4,1,9505,0.0010000000000000009
80000,1644,3074,127856,1684,3517,127032,1,0,4,1,9506,0.0010000000000000009
81000,1639,3016,127823,1724,3479,127058,2,0,8,1,9507,0.0010000000000000009
81999,1573,3048,127886,1764,3448,127015,-1,0,-4,1,9508,0.0009989999999999999
82999,1596,2917,127798,1691,3439,127001,-1,0,-4,1,9509,0.000999999999999987
84002,1598,3052,127851,1762,3373,127015,1,1,-4,1,9510,0.0010030000000000039
85003,1627,2969,127982,1817,3452,126999,1,0,4,1,9511,0.0010010000000000019
86001,1580,2926,127926,1669,3438,127007,0,0,0,1,9512,0.0009979999999999989
86999,1574,2932,127827,1886,3533,126973,1,1,4,1,9513,0.0009979999999999989
88001,1590,2892,127773,1819,3355,126985,0,1,0,1,9514,0.0010020000000000029
89000,1708,3079,127820,1799,3430,127077,0,1,0,1,9515,0.0009989999999999999
89999,1603,2945,127867,1824,3426,127150,1,0,0,1,9516,0.0009989999999999999
91000,1633,2940,127808,1617,3403,127062,1,0,4,1,9517,0.0010010000000000019
91999,1596,2939,127822,1723,3430,126939,1,0,4,1,9518,0.0009989999999999999
92999,1657,2951,127930,1769,3537,127053,1,0,4,1,9519,0.0010000000000000009
94000,1662,3025,127826,1821,3486,126968,1,0,4,1,9520,0.0010010000000000019
95000,1648,2918,127893,1757,3382,127091,0,0,4,1,9521,0.0010000000000000009
96000,1585,2979,127930,1776,3337,127065,0,0,0,1,9522,0.0010000000000000009
97000,1669,2919,127907,1850,3479,127082,0,0,0,1,9523,0.000999999999999987
98000,1559,2977,127939,1787,3383,127141,0,0,0,1,9524,0.0010000000000000009
99000,1586,2945,127972,1883,3400,127093,0,0,0,1,9525,0.0010000000000000009
100000,1679,2910,128014,1760,3461,127031,-1,0,-4,1,9526,0.0010000000000000009
100999,1657,2929,127897,1732,3402,127231,-2,0,-4,1,9527,0.0009989999999999999
102000,1671,2901,127956,1747,3422,127170,0,0,-8,1,9528,0.0010010000000000019
103000,1554,2911,128007,1710,3505,126950,0,0,0,1,9529,0.0010000000000000009
104000,1632,2863,127970,1727,3501,126993,-1,0,-4,1,9530,0.0010000000000000009
105000,1578,3042,127853,1687,3405,127069,0,0,0,1,9531,0.0010000000000000009
105999,1577,2949,127984,1765,3473,127011,-1,0,-4,1,9532,0.0009989999999999999
106999,1652,2901,127875,1763,3434,127158,-1,0,-4,1,9533,0.0010000000000000009
108000,1718,2840,127907,1843,3383,127065,0,0,-4,1,9534,0.0010010000000000019
109001,1629,2847,127912,1747,3385,127053,0,0,0,1,9535,0.0010010000000000019
110002,1619,2930,127923,1867,3408,126906,0,0,0,1,9536,0.001000999999999988
111001,1606,2939,127983,1735,3423,126977,-2,0,-8,1,9537,0.0009989999999999999
112000,1663,2907,127854,1602,3437,127099,0,0,0,1,9538,0.0009989999999999999
113000,1565,2915,127943,1762,3556,127056,0,0,0,1,9539,0.0010000000000000009
114000,1639,2950,127932,1671,3479,127045,1,0,0,1,9540,0.0010000000000000009
115000,1615,2920,127904,1699,3407,127167,1,0,4,1,9541,0.0010000000000000009
116000,1535,2836,127969,1806,3324,127089,1,0,4,1,9542,0.0010000000000000009
116999,1642,2908,127933,1765,3430,126969,-1,0,-4,1,9543,0.0009989999999999999
117999,1562,2932,127879,1769,3415,127072,0,0,0,1,9544,0.0010000000000000009
119000,1639,2932,127858,1849,3424,127153,-2,0,0,1,9545,0.0010010000000000019
120000,1665,2974,127778,1837,3414,126991,2,0,-8,1,9546,0.0010000000000000009
121000,1597,3009,127849,1714,3498,127086,2,0,8,1,9547,0.0010000000000000009
121999,1652,2936,127892,1702,3458,126957,1,0,4,1,9548,0.0009989999999999999
123000,1555,2823,127927,1754,3414,127086,1,0,4,1,9549,0.0010010000000000019
124000,1604,3008,127921,1736,3332,126995,-2,0,-8,1,9550,0.0010000000000000009
125000,1621,2949,127919,1770,3425,127109,0,0,0,1,9551,0.0010000000000000009
126000,1631,2899,127829,1643,3449,127088,-1,0,0,1,9552,0.0010000000000000009
126999,1611,2892,128021,1715,3429,127009,1,0,-4,1,9553,0.0009989999999999999
127999,1594,3011,127921,1813,3449,127025,1,0,4,1,9554,0.0010000000000000009
129000,1627,2985,127872,1781,3419,126990,1,0,4,1,9555,0.0010010000000000019
129999,1614,2922,127855,1833,3481,127072,-1,0,-4,1,9556,0.0009989999999999999
131000,1638,2923,127851,1749,3424,126951,0,0,0,1,9557,0.0010010000000000019
131999,1688,2968,127743,1757,3458,127106,-1,0,0,1,9558,0.0009989999999999999
132999,1565,2976,127788,1721,3487,126975,1,0,-4,1,9559,0.0010000000000000009
134004,1667,3010,127840,1651,3435,126974,1,1,4,1,9560,0.0010049999999999781
135021,1557,2972,127866,1761,3414,127081,0,0,0,1,9561,0.0010170000000000179
136001,1611,2836,127901,1804,3413,127118,0,0,0,1,9562,0.0009799999999999809
137001,1646,2941,127886,1741,3420,127128,0,0,0,1,9563,0.0010000000000000009
138000,1561,2989,127984,1736,3404,127095,1,0,0,1,9564,0.0009989999999999999
139002,1560,2966,127821,1797,3357,127029,-2,0,4,1,9565,0.0010020000000000029
139999,1536,2900,127850,1797,3385,127056,-2,0,-8,1,9566,0.0009969999999999979
141001,1649,2971,127796,1752,3444,127027,0,0,0,1,9567,0.0010020000000000029
142000,1526,2873,127976,1631,3467,126967,0,0,0,1,9568,0.0009989999999999999
143000,1666,2967,127835,1753,3433,127110,0,0,0,1,9569,0.0010000000000000009
143999,1524,2924,127798,1681,3470,127069,-1,0,0,1,9570,0.0009989999999999999
145000,1524,2956,128010,1817,3491,126989,1,0,-4,1,9571,0.0010010000000000019
146002,1426,2937,128072,1718,3499,127045,1,0,4,1,9572,0.0010020000000000029
147005,1575,2958,128028,1810,3459,127214,1,0,4,1,9573,0.0010030000000000039
148001,1513,3012,127957,1751,3325,126974,0,0,0,1,9574,0.0009959999999999969
149000,1651,3022,127956,1724,3544,127075,0,0,0,1,9575,0.0009989999999999999
150000,1580,2852,128022,1741,3490,127129,0,0,0,1,9576,0.0010000000000000009
151000,1574,2907,127956,1784,3483,127196,-2,0,0,1,9577,0.0010000000000000009
152000,1687,2954,127965,1747,3449,127091,-2,1,-8,1,9578,0.0010000000000000009
153000,1572,2940,127886,1706,3451,127108,0,0,0,1,9579,0.0010000000000000009
154000,1679,2900,127931,1668,3408,127190,0,0,0,1,9580,0.0010000000000000009
154999,1585,2928,127874,1714,3438,127128,-1,0,-4,1,9581,0.0009989999999999999
156000,1648,2925,127832,1863,3502,126974,0,0,-4,1,9582,0.0010010000000000019
157000,1635,2860,127937,1729,3538,127131,2,0,0,1,9583,0.0010000000000000009
158000,1550,2945,127834,1696,3451,127057,2,0,8,1,9584,0.0010000000000000009
159000,1659,2985,128005,1768,3469,127062,0,0,0,1,9585,0.0010000000000000009
160000,1592,3015,127998,1737,3439,127101,0,0,0,1,9586,0.0010000000000000009
160999,1617,2961,127898,1832,3530,127030,-1,0,-4,1,9587,0.0009989999999999999
161999,1649,2885,127928,1742,3489,127110,1,0,-4,1,9588,0.0010000000000000009
163000,1646,2954,127915,1723,3529,127199,0,0,4,1,9589,0.0010010000000000019
163999,1666,3031,128102,1766,3458,126979,0,1,0,1,9590,0.0009989999999999999
164999,1657,2956,127903,1806,3517,127009,-1,0,-4,1,9591,0.0009999999999999731
165999,1553,2947,127788,1808,3495,127089,1,1,4,1,9592,0.0010000000000000009
166999,1731,2929,127949,1828,3477,126871,-2,0,-8,1,9593,0.0010000000000000009
167999,1593,3008,127841,1766,3492,127012,-1,0,-4,1,9594,0.0010000000000000009
169000,1621,2929,127940,1800,3431,127026,1,0,-4,1,9595,0.0010010000000000019
169999,1678,2904,127959,1800,3432,127050,1,0,4,1,9596,0.0009989999999999999
171001,1613,2932,127926,1887,3454,126959,1,1,4,1,9597,0.0010020000000000029
171998,1678,3004,127834,1774,3413,126865,-1,0,-4,1,9598,0.0009969999999999979
173001,1628,2989,127693,1721,3552,126934,0,0,0,1,9599,0.0010030000000000039
174000,1668,2948,127833,1651,3506,126981,1,0,4,1,9600,0.0009989999999999999
175000,1678,2949,127802,1683,3556,126960,0,0,4,1,9601,0.0010000000000000009
176000,1604,3035,127948,1775,3445,127191,0,0,0,1,9602,0.0010000000000000009
177000,1599,2839,127939,1742,3505,126864,0,0,0,1,9603,0.0010000000000000009
177998,1630,3018,127944,1831,3470,127010,-2,0,-8,1,9604,0.0009979999999999989
179000,1633,2961,127837,1815,3522,126987,-1,0,-4,1,9605,0.0010020000000000029
179999,1532,2988,128014,1844,3466,127165,-1,0,-4,1,9606,0.0009989999999999999
180999,1697,3008,127888,1714,3465,126972,-1,0,-4,1,9607,0.0010000000000000009
182000,1617,2955,127873,1699,3479,127103,-1,0,-4,1,9608,0.0010010000000000019
182999,1611,2874,127941,1717,3365,126949,-1,0,-4,1,9609,0.0009989999999999999
184000,1630,2900,127829,1815,3381,126931,0,0,0,1,9610,0.0010010000000000019
185000,1621,2967,127800,1789,3441,126922,1,0,4,1,9611,0.0010000000000000009
186000,1606,2898,127779,1846,3508,126938,1,0,4,1,9612,0.0010000000000000009
187000,1560,2867,128021,1834,3442,127014,-1,0,4,1,9613,0.0010000000000000009
187999,1657,2893,127792,1784,3491,127105,-1,0,-4,1,9614,0.0009989999999999999
189000,1609,3069,127801,1792,3622,127041,-1,0,-4,1,9615,0.0010010000000000019
190000,1682,2989,127793,1729,3446,127078,1,0,4,1,9616,0.0010000000000000009
190999,1646,2995,127885,1804,3410,126986,-1,0,-4,1,9617,0.0009989999999999999
192015,1653,2953,127895,1812,3483,127101,1,0,4,1,9618,0.0010159999999999891
193029,1731,2853,127952,1808,3399,126981,-1,0,4,1,9619,0.0010139999999999871
194001,1626,2900,127913,1767,3423,127007,0,0,-4,1,9620,0.0009720000000000006
195003,1635,2944,127984,1708,3464,127002,0,0,0,1,9621,0.0010020000000000029
196000,1614,2955,127870,1712,3460,126942,-1,0,-4,1,9622,0.0009969999999999979
197000,1690,3009,127849,1714,3415,127107,1,0,4,1,9623,0.0010000000000000009
198001,1539,2931,127978,1728,3433,126995,-2,0,-8,1,9624,0.0010010000000000019
199000,1620,2872,127980,1805,3399,127111,0,0,-8,1,9625,0.0009989999999999999
200000,1626,2894,127917,1744,3390,126945,-1,0,0,1,9626,0.0010000000000000009
200999,1539,2896,127868,1743,3485,127030,-1,0,-4,1,9627,0.0009989999999999999
202000,1620,2982,127906,1706,3412,127187,0,0,0,1,9628,0.0010010000000000019
203000,1576,2976,127876,1785,3397,127011,0,0,0,1,9629,0.0010000000000000009
204000,1616,3089,127853,1767,3396,126993,0,0,0,1,9630,0.0010000000000000009
205000,1587,2947,127857,1784,3564,127038,1,0,0,1,9631,0.0010000000000000009
206000,1653,2944,127782,1701,3415,127057,1,0,4,1,9632,0.0010000000000000009
207000,1645,2890,127940,1799,3388,127209,1,0,4,1,9633,0.0010000000000000009
208000,1625,2982,127925,1751,3538,127005,1,0,4,1,9634,0.0010000000000000009
209000,1738,2939,127900,1774,3377,127077,1,0,4,1,9635,0.0010000000000000009
210000,1634,2906,127853,1742,3448,127017,0,1,0,1,9636,0.0010000000000000009
211000,1617,2923,127901,1799,3479,127027,1,1,0,1,9637,0.0010000000000000009
212000,1602,2922,127919,1804,3442,127072,-2,0,4,1,9638,0.0010000000000000009
212999,1652,2921,127698,1783,3487,127057,-2,0,-8,1,9639,0.0009989999999999999
214000,1678,2926,127884,1700,3513,127086,0,0,0,1,9640,0.0010010000000000019
215000,1582,2986,128044,1717,3444,127141,0,0,0,1,9641,0.0010000000000000009
216000,1630,2833,127940,1751,3410,127120,0,0,0,1,9642,0.0010000000000000009
216999,1559,2906,127839,1780,3406,127080,-1,0,-4,1,9643,0.0009989999999999999
218001,1537,2924,127917,1793,3433,127162,1,0,-4,1,9644,0.0010020000000000029
219017,1680,2953,127814,1770,3423,126953,0,0,4,1,9645,0.0010159999999999891
220000,1623,2909,127961,1781,3422,127047,0,0,0,1,9646,0.0009830000000000116
221000,1615,2955,127892,1695,3506,127053,2,0,8,1,9647,0.0010000000000000009
222000,1489,2981,127942,1779,3495,127087,-1,0,-4,1,9648,0.0010000000000000009
223000,1550,2985,127839,1746,3419,126898,1,0,4,1,9649,0.0010000000000000009
224000,1518,2943,127933,1822,3487,127085,0,0,4,1,9650,0.0009999999999999731
225000,1656,2995,127964,1754,3358,127059,-1,0,0,1,9651,0.0010000000000000009
226000,1611,3047,127945,1835,3436,126914,-1,0,-4,1,9652,0.0010000000000000009
227000,1639,2879,127954,1709,3517,127117,0,0,0,1,9653,0.0010000000000000009
228000,1564,3012,127978,1719,3372,126980,2,0,8,1,9654,0.0010000000000000009
229000,1627,2975,127936,1744,3421,127132,0,0,0,1,9655,0.0010000000000000009
230000,1607,2875,127751,1862,3408,127028,0,0,0,1,9656,0.0010000000000000009
230999,1544,2861,127897,1805,3351,126965,-1,1,0,1,9657,0.0009989999999999999
232000,1638,2929,127927,1768,3380,127079,-1,0,-4,1,9658,0.0010010000000000019
233000,1674,2875,127875,1719,3470,127056,0,0,0,1,9659,0.0010000000000000009
233999,1550,2997,127953,1812,3485,126959,-2,0,-8,1,9660,0.0009989999999999999
234999,1634,2881,127952,1737,3478,127049,0,0,0,1,9661,0.0010000000000000009
236000,1687,2930,127825,1675,3491,127121,2,0,0,1,9662,0.0010010000000000019
237000,1601,2919,127898,1786,3391,127045,1,0,8,1,9663,0.0010000000000000009
238000,1558,3045,127888,1736,3405,127068,1,0,4,1,9664,0.0010000000000000009
238999,1484,2943,127881,1712,3446,127079,0,0,0,1,9665,0.0009989999999999999
240000,1708,2999,127834,1753,3392,127033,2,0,8,1,9666,0.0010010000000000019
241000,1681,2954,127926,1773,3378,126912,0,0,0,1,9667,0.0010000000000000009
242000,1608,2979,127882,1810,3393,127093,0,0,0,1,9668,0.0010000000000000009
243011,1646,2913,127873,1745,3473,127042,0,0,0,1,9669,0.0010109999999999841
244004,1559,2801,127822,1697,3426,127028,0,0,0,1,9670,0.0009930000000000216
245021,1537,2942,127967,1734,3374,127086,0,0,0,1,9671,0.0010169999999999901
246004,1648,2939,127898,1779,3406,127014,1,0,4,1,9672,0.0009830000000000116
247001,1625,2951,127993,1782,3454,127026,-1,0,-4,1,9673,0.0009969999999999979
248000,1543,2903,127822,1802,3427,126983,0,0,-4,1,9674,0.0009989999999999999
249014,1651,2955,127937,1753,3468,126961,1,0,0,1,9675,0.0010139999999999871
250001,1629,2871,127944,1711,3469,126944,1,0,4,1,9676,0.0009869999999999879
251001,1621,2877,127960,1841,3535,126965,0,0,0,1,9677,0.0010000000000000009
252001,1591,2985,127987,1722,3440,127021,0,0,0,1,9678,0.0010000000000000009
253003,1556,2965,127837,1718,3527,126961,1,0,4,1,9679,0.0010020000000000029
254000,1615,2878,127774,1780,3517,127084,1,0,4,1,9680,0.0009970000000000256
255000,1689,3008,127837,1747,3319,127044,2,0,4,1,9681,0.0010000000000000009
256000,1646,2922,127912,1722,3540,126988,2,0,8,1,9682,0.0010000000000000009
257000,1626,2870,127835,1656,3473,127037,1,0,4,1,9683,0.0010000000000000009
257999,1641,2955,127791,1700,3509,127109,-1,0,-4,1,9684,0.0009989999999999721
258999,1573,2974,127857,1765,3545,126991,1,0,4,1,9685,0.0010000000000000009
260000,1677,2983,127908,1789,3524,127132,0,0,0,1,9686,0.0010010000000000296
261000,1580,2864,127923,1792,3551,127045,0,0,0,1,9687,0.0010000000000000009
262000,1739,2881,127955,1797,3447,127153,-2,0,0,1,9688,0.0010000000000000009
263000,1559,2935,127824,1692,3490,127045,-2,0,-8,1,9689,0.0010000000000000009
263999,1550,2938,127830,1709,3361,127028,-1,0,-4,1,9690,0.0009989999999999721
265000,1590,3033,128056,1799,3448,126968,0,0,0,1,9691,0.0010010000000000296
265999,1571,2878,127910,1828,3425,127022,-1,0,-4,1,9692,0.0009989999999999721
266999,1540,2955,127854,1826,3515,126970,-1,0,-4,1,9693,0.0010000000000000009
267999,1585,2934,127908,1795,3427,126979,-1,0,-4,1,9694,0.0010000000000000009
269000,1637,3023,127944,1670,3386,127150,-1,0,-4,1,9695,0.0010009999999999741
270000,1660,2953,127935,1827,3453,127002,1,0,4,1,9696,0.0010000000000000009
271000,1569,2960,127881,1742,3455,126994,0,0,0,1,9697,0.0010000000000000009
272000,1652,2956,127944,1743,3367,126982,-1,0,-4,1,9698,0.0010000000000000009
273000,1612,2923,127953,1741,3450,127032,0,2,-4,1,9699,0.0010000000000000009
274000,1527,3015,127979,1708,3480,126954,0,0,0,1,9700,0.0010000000000000009
275002,1694,2973,127836,1792,3467,127017,0,0,0,1,9701,0.0010020000000000029
276016,1638,2943,127913,1784,3506,126977,1,0,4,1,9702,0.0010140000000000149
277007,1545,2975,127983,1743,3473,127140,2,0,8,1,9703,0.0009910000000000196
278001,1725,3048,127903,1831,3474,127097,0,0,0,1,9704,0.0009939999999999949
279000,1585,3020,127866,1726,3411,127101,-1,0,0,1,9705,0.0009989999999999721
280000,1580,2924,127909,1836,3460,127026,2,0,-4,1,9706,0.0010000000000000009
281000,1579,2909,127851,1719,3450,127071,2,0,8,1,9707,0.0010000000000000009
282000,1612,2906,127848,1684,3423,127012,-1,0,-4,1,9708,0.0010000000000000009
283000,1565,2862,127941,1814,3469,127083,2,1,8,1,9709,0.0010000000000000009
283999,1537,2864,127855,1626,3431,127014,2,0,8,1,9710,0.0009990000000000276
285000,1656,2894,127815,1772,3503,126992,-1,0,8,1,9711,0.0010009999999999741
286000,1595,2869,127798,1771,3361,126991,1,0,-4,1,9712,0.0010000000000000009
287000,1647,2872,127960,1729,3388,127129,1,0,4,1,9713,0.0010000000000000009
288000,1614,2978,127942,1795,3381,127049,1,0,4,1,9714,0.0010000000000000009
289000,1591,3076,127761,1744,3450,127125,1,0,4,1,9715,0.0010000000000000009
290000,1612,2973,127940,1705,3416,127091,0,0,0,1,9716,0.0010000000000000009
291000,1635,2892,127876,1748,3401,127031,-1,0,0,1,9717,0.0010000000000000009
291999,1667,2951,127913,1728,3440,126977,-1,0,-4,1,9718,0.0009990000000000276
292999,1694,2905,127776,1850,3443,127167,-1,0,-4,1,9719,0.0010000000000000009
294000,1609,2907,127866,1810,3406,127065,1,0,4,1,9720,0.0010009999999999741
295000,1680,2938,127881,1830,3425,126994,0,0,0,1,9721,0.0010000000000000009
296000,1650,2861,127974,1662,3512,127145,0,0,0,1,9722,0.0010000000000000009
297000,1711,2923,127825,1850,3297,126998,0,0,0,1,9723,0.0010000000000000009
298000,1726,2881,127921,1836,3447,126980,0,0,0,1,9724,0.0010000000000000009
299000,1588,2899,127857,1823,3496,126983,0,1,0,1,9725,0.0010000000000000009
299999,1585,2927,127884,1748,3427,127067,-1,0,-4,1,9726,0.0009989999999999721
301002,1609,3007,127858,1815,3396,127030,0,1,0,1,9727,0.0010030000000000316
302006,1612,2892,127937,1744,3416,126948,0,0,0,1,9728,0.0010040000000000049
303000,1742,2948,127802,1786,3365,127130,0,0,0,1,9729,0.0009939999999999949
304001,1674,2846,127867,1810,3494,127105,0,0,0,1,9730,0.0010009999999999741
304999,1644,2917,127955,1661,3519,127031,-1,0,0,1,9731,0.0009979999999999989
305999,1641,3030,127996,1792,3457,126945,-1,0,-4,1,9732,0.0010000000000000009
307000,1709,2915,127805,1730,3435,127057,0,0,0,1,9733,0.0010010000000000296
308000,1798,2868,127926,1742,3429,126993,0,0,0,1,9734,0.0010000000000000009
308999,1643,3022,127943,1744,3464,127150,-1,0,-4,1,9735,0.0009989999999999721
310000,1587,2980,127750,1812,3453,127033,0,0,-4,1,9736,0.0010010000000000296
310999,1609,2922,127927,1783,3361,127063,-1,1,0,1,9737,0.0009989999999999721
312000,1612,2911,127893,1730,3519,127115,-1,1,-4,1,9738,0.0010010000000000296
313004,1666,2914,127830,1730,3497,127022,0,0,0,1,9739,0.0010040000000000049
314004,1585,2918,127845,1670,3532,127177,-1,0,-4,1,9740,0.0010000000000000009
315001,1745,2995,127771,1828,3356,127013,-1,0,-4,1,9741,0.0009969999999999701
316000,1643,2897,127946,1667,3423,126945,0,0,-4,1,9742,0.0009990000000000276
317000,1625,2882,127943,1768,3437,127077,1,0,0,1,9743,0.0010000000000000009
317999,1674,2810,127882,1720,3417,127028,1,0,4,1,9744,0.0009989999999999721
319000,1656,2972,127925,1778,3464,127031,1,0,4,1,9745,0.0010010000000000296
320003,1684,2837,127943,1753,3394,126998,0,0,0,1,9746,0.0010029999999999761
321001,1623,2892,127883,1812,3422,127052,-1,0,-4,1,9747,0.0009979999999999989
321999,1669,2907,127881,1721,3367,126892,-2,0,-4,1,9748,0.0009979999999999989
323000,1544,2904,127801,1762,3419,127049,0,0,-8,1,9749,0.0010010000000000296
323999,1614,2882,127876,1702,3430,127138,0,0,0,1,9750,0.0009989999999999721
325000,1613,2857,127913,1794,3419,127085,0,0,0,1,9751,0.0010010000000000296
325999,1628,2997,127862,1823,3431,127056,-1,0,-4,1,9752,0.0009989999999999721
326999,1591,2914,127838,1821,3473,127017,-2,0,-8,1,9753,0.0010000000000000009
327999,1642,2935,127837,1688,3401,127013,-1,0,-8,1,9754,0.0010000000000000009
328999,1645,2959,127785,1768,3422,127011,0,0,-4,1,9755,0.0010000000000000009
329999,1606,2946,127859,1724,3501,127079,0,0,0,1,9756,0.0010000000000000009
330999,1523,2901,127881,1720,3395,127088,0,0,0,1,9757,0.0010000000000000009
332000,1596,2866,127878,1809,3337,127070,2,0,8,1,9758,0.0010009999999999741
333000,1646,2915,127758,1783,3342,127108,-2,0,-8,1,9759,0.0010000000000000009
334000,1632,2990,127939,1748,3433,127050,-2,0,-8,1,9760,0.0010000000000000009
334999,1569,2900,127920,1844,3475,127002,-1,0,-8,1,9761,0.0009990000000000276
335999,1639,2955,127891,1684,3476,127037,-1,0,-4,1,9762,0.0010000000000000009
336999,1553,2902,127960,1765,3405,127117,-1,0,-4,1,9763,0.0010000000000000009
338000,1591,2985,127779,1651,3419,127149,1,0,4,1,9764,0.0010009999999999741
338999,1540,2917,127845,1647,3486,127038,-1,0,-4,1,9765,0.0009990000000000276
339999,1625,2942,127899,1724,3394,127054,1,0,-4,1,9766,0.0010000000000000009
341000,1688,3052,127906,1756,3447,126934,0,0,4,1,9767,0.0010009999999999741
342000,1599,2937,127895,1721,3421,127036,0,0,0,1,9768,0.0010000000000000009
342999,1658,2983,127899,1702,3405,127016,0,0,0,1,9769,0.0009990000000000276
344003,1611,2948,127955,1742,3505,127020,1,0,4,1,9770,0.0010040000000000049
345022,1602,3045,128038,1698,3480,127039,0,0,0,1,9771,0.0010189999999999921
346002,1581,2985,127976,1807,3455,127016,0,0,0,1,9772,0.0009799999999999809
347004,1621,2969,127885,1675,3411,127052,1,1,0,1,9773,0.0010020000000000029
347999,1683,3013,127819,1728,3557,127189,1,0,4,1,9774,0.0009950000000000236
349001,1558,2988,127789,1806,3421,126973,0,0,0,1,9775,0.0010020000000000029
350000,1616,2989,127874,1693,3480,127040,0,0,0,1,9776,0.0009989999999999721
351000,1657,2973,127958,1804,3564,126984,0,0,0,1,9777,0.0010000000000000009
352000,1638,2920,127913,1687,3468,126980,0,0,0,1,9778,0.0010000000000000009
353000,1648,2940,127952,1741,3460,126919,0,0,0,1,9779,0.0010000000000000009
354000,1678,2949,127992,1802,3451,126975,0,0,0,1,9780,0.0010000000000000009
355021,1512,2890,127935,1728,3425,127065,0,0,0,1,9781,0.0010209999999999941
356010,1557,2927,127919,1772,3462,127183,-1,0,-4,1,9782,0.0009890000000000176
356999,1655,2970,127926,1741,3426,127041,-1,0,-4,1,9783,0.0009890000000000176
358000,1666,3021,127893,1822,3557,126983,0,0,0,1,9784,0.0010009999999999741
359000,1678,3002,127914,1678,3445,127084,0,0,0,1,9785,0.0010000000000000009
359999,1545,2910,127909,1782,3487,127047,-1,0,0,1,9786,0.0009989999999999721
360999,1603,3003,127747,1788,3542,127048,-1,0,-4,1,9787,0.0010000000000000009
362000,1515,3009,127899,1809,3516,127015,0,0,0,1,9788,0.0010010000000000296
363000,1636,2972,127914,1826,3458,127015,0,0,0,1,9789,0.0010000000000000009
363999,1684,2929,127896,1815,3414,127073,-1,0,-4,1,9790,0.0009989999999999721
365000,1624,2900,127845,1733,3438,126973,-1,0,-4,1,9791,0.0010010000000000296
366000,1617,2953,127884,1750,3540,127060,0,0,-4,1,9792,0.0010000000000000009
367000,1609,2981,127851,1739,3464,127062,0,0,0,1,9793,0.0010000000000000009
368000,1641,2986,127892,1700,3474,127006,-1,0,-4,1,9794,0.0010000000000000009
369002,1518,2902,127814,1802,3471,126986,1,0,4,1,9795,0.0010020000000000029
370010,1620,2905,127962,1707,3405,127096,0,0,0,1,9796,0.0010080000000000089
371023,1700,2991,127831,1825,3452,127086,2,0,0,1,9797,0.0010129999999999861
372002,1696,2957,127795,1765,3444,127050,0,0,8,1,9798,0.0009790000000000076
373001,1674,2989,127874,1800,3402,127008,0,0,0,1,9799,0.0009989999999999721
374000,1602,2902,127708,1826,3369,126930,0,0,0,1,9800,0.0009990000000000276
375000,1704,2953,127846,1695,3443,126955,0,0,0,1,9801,0.0010000000000000009
376000,1633,2914,127927,1845,3392,126986,-1,0,-4,1,9802,0.0010000000000000009
377014,1664,2955,127992,1817,3423,126999,-2,0,-4,1,9803,0.0010139999999999594
378019,1551,2929,127943,1800,3386,127093,0,0,-8,1,9804,0.0010050000000000336
379001,1579,2918,128001,1765,3473,126987,0,0,0,1,9805,0.0009819999999999829
380000,1655,2921,127917,1808,3437,127047,1,0,4,1,9806,0.0009990000000000276
381000,1593,2921,127919,1679,3419,127089,1,0,4,1,9807,0.0010000000000000009
381999,1676,2948,127987,1684,3493,127109,1,0,4,1,9808,0.0009989999999999721
383000,1578,2952,127987,1800,3434,127034,-2,0,4,1,9809,0.0010010000000000296
383999,1671,2948,127882,1775,3428,127057,0,1,-8,1,9810,0.0009989999999999721
385000,1571,2873,127915,1760,3406,126973,0,0,0,1,9811,0.0010010000000000296
386000,1621,2955,127960,1744,3421,127038,0,0,0,1,9812,0.0010000000000000009
387000,1612,2922,127890,1804,3440,127076,1,0,4,1,9813,0.0009999999999999454
387998,1668,2939,127753,1842,3533,127047,1,0,4,1,9814,0.0009980000000000544
389000,1593,2929,127964,1780,3394,126996,0,0,4,1,9815,0.0010019999999999474
390000,1609,2838,127841,1845,3452,126989,0,0,0,1,9816,0.0010000000000000009
391000,1701,2892,127843,1674,3406,127072,0,0,0,1,9817,0.0010000000000000009
391999,1633,3008,127828,1734,3391,127044,-2,0,-8,1,9818,0.0009990000000000276
392999,1572,2848,127834,1809,3356,127125,-1,0,-4,1,9819,0.0010000000000000009
393998,1646,2964,127866,1757,3434,127074,2,0,8,1,9820,0.0009989999999999721
395000,1559,2919,127918,1733,3462,127025,0,0,0,1,9821,0.0010020000000000029
396000,1683,2821,127814,1699,3475,126983,1,0,0,1,9822,0.0010000000000000009
397000,1678,2925,127792,1800,3505,127146,1,2,4,1,9823,0.0010000000000000009
397999,1571,2902,127947,1724,3546,126978,1,0,4,1,9824,0.0009990000000000276
398999,1588,2941,127960,1677,3306,127084,-1,0,-4,1,9825,0.0010000000000000009
399998,1722,2918,127870,1932,3389,127059,-2,1,-8,1,9826,0.0009989999999999721
401000,1653,2951,127967,1722,3479,127159,0,1,0,1,9827,0.0010020000000000029
402000,1629,2978,127880,1764,3482,127025,1,0,0,1,9828,0.0010000000000000009
403004,1621,2898,127860,1823,3458,127142,1,0,4,1,9829,0.0010040000000000049
404000,1558,2966,127875,1846,3409,126877,1,0,4,1,9830,0.0009959999999999969
405001,1683,2943,127830,1754,3370,127120,0,0,0,1,9831,0.0010010000000000296
406000,1636,2980,127940,1757,3428,127117,0,0,0,1,9832,0.0009989999999999721
407000,1566,2957,127950,1785,3429,127048,1,0,4,1,9833,0.0010000000000000009
408000,1598,2970,127858,1761,3532,127038,0,0,4,1,9834,0.0010000000000000009
409000,1597,2945,127931,1801,3447,126969,-1,0,0,1,9835,0.0010000000000000009
409999,1634,2894,127972,1689,3425,126962,-1,0,-4,1,9836,0.0009990000000000276
410999,1562,2854,128012,1794,3427,127064,-1,0,-4,1,9837,0.0010000000000000009
412000,1650,2946,128046,1780,3498,126971,1,0,4,1,9838,0.0010009999999999741
412999,1600,2936,127776,1799,3409,127132,1,0,4,1,9839,0.0009990000000000276
414000,1569,2857,127899,1784,3493,127136,-1,0,4,1,9840,0.0010009999999999741
414999,1550,2969,127913,1730,3398,127129,-1,0,-4,1,9841,0.0009990000000000276
416000,1590,2944,127866,1718,3497,127107,-1,0,-4,1,9842,0.0010009999999999741
416999,1545,2939,127911,1746,3350,127084,-1,0,-4,1,9843,0.0009990000000000276
418000,1744,2930,127878,1704,3315,127068,2,0,8,1,9844,0.0010009999999999741
419000,1631,2904,127766,1832,3513,127038,-1,0,-4,1,9845,0.0010000000000000009
420000,1514,3028,127858,1859,3447,126988,0,0,-4,1,9846,0.0010000000000000009
421000,1565,3009,127820,1667,3418,127177,-1,0,0,1,9847,0.0010000000000000009
422000,1717,2957,127897,1735,3462,127003,-1,0,-4,1,9848,0.0010000000000000009
422999,1697,2851,127967,1801,3425,126971,0,0,0,1,9849,0.0009989999999999721
423999,1572,2973,127839,1773,3494,126950,1,0,4,1,9850,0.0010000000000000009
425000,1577,3030,127915,1633,3421,127037,-1,1,-4,1,9851,0.0010010000000000296
426000,1515,2839,127827,1711,3562,127137,2,1,-4,1,9852,0.0010000000000000009
427000,1652,3005,127924,1683,3506,127074,1,0,8,1,9853,0.0010000000000000009
428000,1559,2973,127974,1780,3472,127029,1,0,4,1,9854,0.0010000000000000009
429013,1612,2889,127971,1737,3511,127062,2,0,8,1,9855,0.0010129999999999861
430001,1591,3007,127945,1666,3450,126963,0,0,0,1,9856,0.0009879999999999889
431000,1741,2914,127932,1715,3552,127082,1,0,4,1,9857,0.0009990000000000276
432000,1599,2881,127890,1772,3422,127044,0,0,4,1,9858,0.0010000000000000009
433000,1653,2957,127798,1760,3391,127024,-1,0,0,1,9859,0.0010000000000000009
434000,1649,2986,127846,1713,3384,126988,-1,0,-4,1,9860,0.0010000000000000009
435000,1564,3006,127897,1699,3405,127026,0,0,0,1,9861,0.0010000000000000009
436000,1660,2925,127773,1767,3488,126957,1,0,4,1,9862,0.0010000000000000009
437000,1695,3056,127799,1709,3490,126959,0,0,0,1,9863,0.0010000000000000009
438000,1536,2934,127989,1746,3513,126997,0,0,0,1,9864,0.0010000000000000009
438999,1521,2996,127836,1864,3505,127150,-1,0,0,1,9865,0.0009989999999999721
440000,1593,2975,127860,1685,3425,126874,1,0,-4,1,9866,0.0010010000000000296
441000,1544,2998,127908,1708,3561,127003,1,0,4,1,9867,0.0010000000000000009
442000,1623,2895,127965,1698,3539,127020,0,1,0,1,9868,0.0010000000000000009
443003,1568,2961,127772,1763,3473,127053,1,0,4,1,9869,0.0010029999999999761
444019,1482,2955,127922,1756,3525,127076,0,0,0,1,9870,0.0010160000000000169
445003,1645,2910,127918,1729,3467,127052,0,0,0,1,9871,0.0009839999999999849
446000,1601,2992,127851,1750,3489,127082,-1,0,0,1,9872,0.0009970000000000256
446999,1641,2916,128019,1751,3514,127200,-1,0,-4,1,9873,0.0009989999999999721
448000,1608,3061,127847,1667,3477,127167,-1,0,-4,1,9874,0.0010009999999999741
449000,1538,2801,127838,1809,3506,127042,0,0,0,1,9875,0.0010000000000000009
450004,1659,2999,127780,1608,3430,127137,1,0,4,1,9876,0.0010040000000000049
451004,1650,2928,128015,1772,3466,126934,1,0,4,1,9877,0.0010000000000000009
452001,1562,2971,127850,1647,3410,127003,2,0,4,1,9878,0.0009970000000000256
453000,1507,2932,127808,1859,3436,126952,2,1,8,1,9879,0.0009989999999999721
454000,1667,2954,127882,1726,3396,126913,-2,0,-8,1,9880,0.0010000000000000009
455000,1483,2853,127851,1717,3495,127011,1,0,4,1,9881,0.0010000000000000009
455999,1581,2926,127947,1778,3388,127166,0,0,0,1,9882,0.0009990000000000276
456999,1600,2939,127984,1711,3429,126974,-1,0,0,1,9883,0.0010000000000000009
458000,1632,2988,127894,1712,3416,127013,0,0,-4,1,9884,0.0010009999999999741
459000,1612,2892,127811,1831,3410,126859,0,0,0,1,9885,0.0010000000000000009
460000,1693,2861,127667,1817,3456,127057,1,0,4,1,9886,0.0010000000000000009
461000,1655,3036,127949,1675,3439,127091,2,0,8,1,9887,0.0010000000000000009
462000,1568,2936,127870,1819,3368,126994,0,0,0,1,9888,0.0010000000000000009
463000,1631,2934,127818,1764,3555,126991,0,0,0,1,9889,0.0010000000000000009
464000,1617,2963,127813,1725,3406,127027,1,0,0,1,9890,0.0010000000000000009
465000,1622,2981,127786,1766,3406,126997,1,0,4,1,9891,0.0010000000000000009
466000,1663,2944,127901,1771,3459,126984,0,0,0,1,9892,0.0010000000000000009
467000,1595,2877,127828,1766,3419,127005,-2,0,-8,1,9893,0.0010000000000000009
468000,1606,2894,127885,1804,3402,127058,-1,1,-4,1,9894,0.0010000000000000009
469000,1585,2843,127879,1754,3424,127111,1,1,-4,1,9895,0.0010000000000000009
470000,1574,2908,127899,1761,3450,127195,-1,1,4,1,9896,0.0010000000000000009
470999,1652,2863,127879,1690,3519,126933,-1,0,-4,1,9897,0.0009990000000000276
472000,1736,2812,127856,1759,3346,127141,1,0,4,1,9898,0.0010009999999999741
473000,1665,2822,127829,1785,3407,127121,1,0,4,1,9899,0.0010000000000000009
474002,1597,2829,127802,1768,3491,127081,0,0,0,1,9900,0.0010020000000000029
475002,1620,2873,127855,1704,3436,127178,0,0,0,1,9901,0.0010000000000000009
476001,1691,2927,127938,1805,3410,127058,1,0,0,1,9902,0.0009989999999999721
477001,1672,2998,127931,1766,3456,127031,1,0,4,1,9903,0.0010000000000000009
477998,1655,2906,127931,1731,3476,127091,-1,0,-4,1,9904,0.0009970000000000256
479000,1570,2946,127849,1748,3406,126982,2,0,8,1,9905,0.0010020000000000029
480000,1669,2897,127841,1807,3457,127008,0,0,0,1,9906,0.0010000000000000009
481000,1602,2939,127877,1826,3367,126969,-1,0,-4,1,9907,0.0010000000000000009
481999,1646,2944,128031,1723,3505,127066,-1,0,-4,1,9908,0.0009989999999999721
482999,1615,2954,127920,1719,3398,127114,1,0,-4,1,9909,0.0010000000000000009
484000,1648,2877,127948,1752,3525,127037,1,0,4,1,9910,0.0010010000000000296
485000,1626,2944,127900,1825,3404,127169,0,0,0,1,9911,0.0010000000000000009
486000,1526,2865,127903,1767,3413,127064,1,0,4,1,9912,0.0010000000000000009
487000,1594,2952,127855,1692,3469,127033,0,0,0,1,9913,0.0010000000000000009
488000,1621,2896,127903,1838,3409,127178,-2,0,0,1,9914,0.0010000000000000009
488999,1715,3015,128003,1860,3367,127023,0,1,-8,1,9915,0.0009989999999999721
490000,1629,2869,127994,1812,3377,127098,0,0,0,1,9916,0.0010010000000000296
491000,1687,2851,127818,1892,3408,127083,1,0,4,1,9917,0.0010000000000000009
492000,1621,2967,127916,1805,3502,127118,1,0,4,1,9918,0.0010000000000000009
493000,1611,2910,128063,1660,3403,127147,1,0,4,1,9919,0.0010000000000000009
494000,1544,2861,127864,1749,3462,127029,-1,0,4,1,9920,0.0010000000000000009
495000,1617,2864,127894,1725,3401,126915,1,0,-4,1,9921,0.0010000000000000009
496000,1612,2925,127978,1694,3379,127110,1,0,4,1,9922,0.0010000000000000009
496999,1509,2999,128026,1846,3422,127116,-1,0,-4,1,9923,0.0009989999999999721
498000,1632,2967,127963,1781,3354,127013,1,0,4,1,9924,0.0010010000000000296
499001,1668,2940,127866,1859,3402,127118,2,0,8,1,9925,0.0010009999999999741
500018,1508,2905,127859,1743,3394,127144,0,0,8,1,9926,0.0010169999999999901
501004,1634,2869,127832,1777,3408,127198,-1,0,0,1,9927,0.0009860000000000424
501999,1613,2896,127932,1706,3394,126986,-1,0,-4,1,9928,0.0009949999999999681
503003,1536,2915,127864,1714,3536,127002,0,0,0,1,9929,0.0010040000000000049
504001,1676,2937,127891,1786,3448,126940,0,0,0,1,9930,0.0009980000000000544
505003,1556,2873,127914,1711,3457,127090,0,0,0,1,9931,0.0010019999999999474
506000,1635,2982,127879,1739,3494,127038,1,0,0,1,9932,0.0009970000000000256
507000,1618,2939,127912,1696,3458,127126,1,0,4,1,9933,0.0010000000000000009
508000,1587,3018,127874,1777,3434,127064,1,0,4,1,9934,0.0010000000000000009
509000,1595,2990,127726,1882,3384,127005,0,0,0,1,9935,0.0010000000000000009
510000,1677,2939,127847,1784,3387,127123,0,0,0,1,9936,0.0010000000000000009
511000,1627,2941,127825,1834,3479,127086,-1,0,-4,1,9937,0.0010000000000000009
512000,1593,2990,127790,1653,3446,126882,-2,0,-4,1,9938,0.0010000000000000009
512999,1554,2962,127884,1719,3387,127110,1,0,-8,1,9939,0.0009989999999999721
514000,1570,2859,127864,1824,3466,127095,1,0,4,1,9940,0.0010010000000000296
515000,1677,2964,127891,1783,3467,127024,0,0,0,1,9941,0.0010000000000000009
516000,1587,3010,127931,1687,3444,127030,1,0,4,1,9942,0.0010000000000000009
517000,1644,2937,127938,1844,3529,127031,0,0,0,1,9943,0.0010000000000000009
518000,1531,3011,127741,1726,3459,126986,-1,0,0,1,9944,0.0010000000000000009
519001,1712,2917,127795,1783,3350,126905,0,0,-4,1,9945,0.0010009999999999186
520024,1533,2838,127989,1846,3483,127107,0,0,0,1,9946,0.0010229999999999961
521006,1603,2897,127867,1786,3372,126920,1,0,4,1,9947,0.0009820000000000384
522000,1703,2915,127925,1899,3530,127123,0,0,0,1,9948,0.0009940000000000504
522999,1650,2935,128012,1785,3402,127028,-1,0,-4,1,9949,0.0009989999999999721
524000,1623,2935,127882,1732,3383,127088,0,0,-4,1,9950,0.0010010000000000296
525000,1665,2978,127947,1736,3415,126987,2,0,0,1,9951,0.0010000000000000009
526000,1608,2985,127779,1763,3509,126983,2,0,8,1,9952,0.0010000000000000009
527000,1563,2884,127892,1748,3552,127067,0,0,0,1,9953,0.0010000000000000009
527999,1554,2930,127810,1819,3468,127014,-1,0,-4,1,9954,0.0009989999999999721
528999,1675,2913,127951,1713,3492,127105,1,0,4,1,9955,0.0010000000000000009
529999,1619,2871,127845,1750,3458,127127,-2,0,-8,1,9956,0.0010000000000000009
531000,1629,2957,127947,1743,3453,127056,-2,0,-8,1,9957,0.0010010000000000296
532000,1636,2904,127980,1745,3423,127017,0,0,-8,1,9958,0.0010000000000000009
532999,1652,2916,127857,1798,3553,127041,0,0,0,1,9959,0.0009989999999999721
534000,1565,3027,127696,1646,3460,126956,0,0,0,1,9960,0.0010010000000000296
535000,1666,2830,127909,1717,3448,127062,0,0,0,1,9961,0.0010000000000000009
536000,1652,2885,127927,1765,3381,127081,0,0,0,1,9962,0.0009999999999998899
537000,1631,2995,127829,1754,3398,127193,1,0,0,1,9963,0.0010000000000000009
538000,1577,3045,127904,1680,3516,126975,2,0,4,1,9964,0.0010000000000000009
539000,1530,2898,127841,1747,3368,126947,2,0,8,1,9965,0.0010000000000000009
540000,1553,2997,127980,1794,3401,127018,1,0,4,1,9966,0.0010000000000000009
541000,1622,2916,127957,1724,3376,127018,1,0,4,1,9967,0.0010000000000000009
541999,1579,2937,127961,1756,3440,127027,-1,0,-4,1,9968,0.0009990000000000832
543000,1543,3003,128055,1773,3407,127216,0,0,-4,1,9969,0.0010009999999999186
544000,1685,3014,128075,1688,3432,127141,0,0,0,1,9970,0.0010000000000000009
545002,1563,2940,127842,1847,3421,127138,0,0,0,1,9971,0.0010020000000000584
546000,1638,2962,127868,1679,3468,127064,0,0,0,1,9972,0.0009979999999999434
547005,1616,2913,127892,1697,3501,127226,0,0,0,1,9973,0.0010050000000000336
548001,1563,2965,127993,1711,3487,127155,0,0,0,1,9974,0.0009959999999999969
549000,1654,2862,127916,1778,3528,126941,0,0,0,1,9975,0.0009989999999999721
550000,1645,2902,127913,1801,3495,126983,0,0,0,1,9976,0.0010000000000000009
551000,1620,2958,127940,1821,3441,127084,0,0,0,1,9977,0.0010000000000000009
551999,1620,2955,127890,1770,3385,127153,-1,0,-4,1,9978,0.0009990000000000832
553000,1519,2881,127882,1766,3415,127084,0,1,0,1,9979,0.0010009999999999186
554000,1545,2960,127874,1870,3403,127217,1,0,4,1,9980,0.0010000000000000009
555000,1568,2905,127906,1707,3446,127068,1,0,4,1,9981,0.0010000000000000009
556000,1658,2843,128040,1815,3423,127019,1,0,4,1,9982,0.0010000000000000009
557000,1658,2918,128010,1740,3419,127008,1,1,4,1,9983,0.0010000000000000009
557999,1596,2831,127948,1699,3408,127083,-2,0,-8,1,9984,0.0009990000000000832
559002,1631,2985,127935,1922,3386,127183,1,0,4,1,9985,0.0010029999999999761
560002,1739,2906,127938,1765,3346,127032,1,0,4,1,9986,0.0010000000000000009
561001,1674,2876,127992,1710,3483,126964,0,0,4,1,9987,0.0009989999999999721
562001,1496,2889,127841,1843,3453,126988,0,0,0,1,9988,0.0010000000000000009
563000,1512,2955,127961,1803,3503,126972,0,0,0,1,9989,0.0009989999999999721
564000,1569,2917,127977,1868,3361,126981,-1,0,-4,1,9990,0.0010000000000000009
565000,1564,2946,127866,1672,3421,127079,0,0,0,1,9991,0.0010000000000000009
566000,1580,2920,127718,1757,3371,126957,0,0,0,1,9992,0.0010000000000000009
567000,1708,2979,127785,1803,3386,126959,0,0,0,1,9993,0.0010000000000000009
568000,1726,2902,127879,1684,3404,126942,-2,0,0,1,9994,0.0010000000000000009
569005,1607,2828,127971,1712,3444,126969,-2,0,-8,1,9995,0.0010050000000000336
570006,1686,2871,127853,1741,3426,127009,1,0,4,1,9996,0.0010010000000000296
571000,1619,2931,127872,1713,3365,126997,-1,0,-4,1,9997,0.0009939999999999394
572000,1655,2879,127782,1802,3387,126993,0,0,0,1,9998,0.0010000000000000009
573014,1624,2991,127810,1721,3440,127047,0,0,0,1,9999,0.0010140000000000704
574020,1569,2971,127886,1747,3453,126966,0,0,0,1,10000,0.0010059999999999514
575002,1621,2961,127890,1833,3504,127108,0,0,0,1,10001,0.0009820000000000384
576000,1698,3078,127870,1808,3520,126964,0,0,0,1,10002,0.0009979999999999434
576999,1609,2963,127859,1780,3499,126988,-1,0,-4,1,10003,0.0009989999999999721
578000,1543,2967,127878,1734,3295,126989,0,0,0,1,10004,0.0010010000000000296
579000,1673,2926,127809,1774,3431,127038,1,0,4,1,10005,0.0010000000000000009
580000,1762,2962,127767,1789,3482,126966,0,0,4,1,10006,0.0010000000000000009
581000,1632,2953,127801,1797,3401,126883,0,0,0,1,10007,0.0010000000000000009
582000,1533,2940,127807,1789,3464,126999,0,1,0,1,10008,0.0010000000000000009
583000,1621,2910,127923,1697,3434,126976,-1,0,-4,1,10009,0.0010000000000000009
583999,1655,2927,127962,1775,3464,127083,-1,0,-4,1,10010,0.0009989999999999721
584999,1648,2869,127768,1716,3497,127023,1,0,4,1,10011,0.0010000000000000009
585999,1615,2932,127937,1781,3486,127013,1,1,4,1,10012,0.0010000000000000009
587000,1617,2883,127926,1752,3448,127125,0,0,4,1,10013,0.0010010000000000296
588000,1661,2939,127977,1772,3348,127146,0,0,0,1,10014,0.0010000000000000009
589000,1510,2913,127883,1777,3415,127080,0,0,0,1,10015,0.0010000000000000009
590000,1578,2945,127917,1746,3521,127070,1,0,4,1,10016,0.0010000000000000009
591000,1629,2939,128019,1788,3441,127153,0,0,0,1,10017,0.0010000000000000009
592000,1629,2962,127971,1789,3433,127206,1,0,0,1,10018,0.0010000000000000009
592999,1621,2951,127934,1742,3493,127186,0,0,4,1,10019,0.0009989999999999721
594000,1595,2995,127948,1732,3426,127114,0,0,0,1,10020,0.0010010000000000296
594999,1697,3060,127850,1783,3351,126992,-1,0,-4,1,10021,0.0009989999999999721
596000,1630,2909,128016,1822,3556,126993,0,0,0,1,10022,0.0010010000000000296
597000,1687,2967,127933,1664,3480,127111,0,0,0,1,10023,0.0010000000000000009
598000,1575,2935,127883,1725,3468,127226,0,0,0,1,10024,0.0010000000000000009
599004,1733,2973,127969,1673,3455,127004,0,1,0,1,10025,0.0010040000000000049
599999,1586,2962,127880,1738,3414,127184,0,0,0,1,10026,0.0009949999999999681
601000,1619,2928,127873,1784,3404,127053,1,0,4,1,10027,0.0010010000000000296
602001,1522,2907,128009,1729,3494,127151,0,0,0,1,10028,0.0010010000000000296
603000,1659,2887,127842,1830,3443,127000,0,0,0,1,10029,0.0009989999999999721
604000,1610,2945,128010,1789,3431,127190,2,0,0,1,10030,0.0010000000000000009
605000,1599,2858,127903,1745,3506,127169,1,0,8,1,10031,0.0010000000000000009
606003,1561,2969,127933,1741,3445,127042,1,0,4,1,10032,0.0010029999999999761
606999,1620,2895,127970,1724,3405,127142,-1,0,-4,1,10033,0.0009959999999999969
608000,1655,2910,127880,1754,3475,127003,0,0,0,1,10034,0.0010010000000000296
609000,1673,2997,128011,1773,3324,127037,0,0,0,1,10035,0.0010000000000000009
610000,1601,2940,127916,1791,3435,127137,-1,0,0,1,10036,0.0010000000000000009
611000,1574,2960,127851,1720,3387,126978,0,0,-4,1,10037,0.0010000000000000009
612000,1680,3004,127824,1754,3389,127120,0,0,0,1,10038,0.0010000000000000009
613000,1507,2937,127925,1701,3449,127030,1,0,4,1,10039,0.0010000000000000009
614000,1678,3039,127904,1743,3485,127015,1,0,4,1,10040,0.0010000000000000009
614999,1606,2925,127862,1828,3463,126995,-1,0,-4,1,10041,0.0009989999999999721
615999,1576,3004,127868,1842,3520,127029,-1,0,-4,1,10042,0.0010000000000000009
617000,1647,2898,127891,1647,3431,126947,0,0,-4,1,10043,0.0010010000000000296
618000,1597,2932,127899,1756,3397,127024,0,0,0,1,10044,0.0010000000000000009
619000,1632,2938,127833,1774,3487,127045,0,0,0,1,10045,0.0010000000000000009
619999,1727,2850,127953,1891,3406,127115,-1,0,-4,1,10046,0.0009989999999999721
620999,1610,2928,127811,1697,3523,127092,-2,0,-8,1,10047,0.0010000000000000009
622000,1601,2976,127894,1712,3391,127065,0,0,0,1,10048,0.0010010000000000296
623000,1586,2924,127772,1810,3333,126923,2,0,0,1,10049,0.0010000000000000009
624000,1612,2961,127904,1738,3430,126943,1,0,8,1,10050,0.0010000000000000009
625000,1711,2941,127856,1689,3471,127182,1,0,4,1,10051,0.0010000000000000009
626000,1628,2948,127970,1730,3447,127097,0,0,0,1,10052,0.0010000000000000009
627002,1631,2976,127917,1815,3442,127102,1,0,4,1,10053,0.0010019999999999474
628000,1641,2903,127799,1819,3402,127015,1,0,4,1,10054,0.0009980000000000544
629000,1592,2915,127967,1787,3312,127136,0,0,4,1,10055,0.0010000000000000009
629999,1622,2985,127871,1807,3272,127044,1,0,0,1,10056,0.0009989999999999721
631013,1672,2934,127849,1797,3508,126969,1,0,4,1,10057,0.0010139999999999594
632014,1640,2968,127853,1720,3411,126989,0,0,0,1,10058,0.0010010000000000296
633000,1584,2918,127786,1752,3479,127089,1,0,4,1,10059,0.0009860000000000424
633999,1637,2927,127904,1630,3480,127005,-1,0,-4,1,10060,0.0009989999999999721
635000,1669,2941,127858,1792,3524,126966,0,0,-4,1,10061,0.0010010000000000296
636000,1666,2956,127948,1802,3517,127121,2,0,0,1,10062,0.0010000000000000009
637002,1591,2935,127963,1641,3397,127045,2,0,8,1,10063,0.0010019999999999474
638002,1626,2907,127987,1799,3382,127128,0,0,0,1,10064,0.0010000000000000009
639015,1683,2967,127980,1767,3408,126955,1,0,4,1,10065,0.0010130000000000416
640000,1639,2925,127932,1734,3468,126969,0,0,0,1,10066,0.0009850000000000136
641000,1506,2875,127834,1783,3454,127156,-1,0,0,1,10067,0.0010000000000000009
642000,1679,2933,127887,1869,3472,127009,0,0,-4,1,10068,0.0010000000000000009
643000,1634,2944,127853,1775,3407,127082,0,0,0,1,10069,0.0010000000000000009
644000,1634,2912,127818,1721,3459,127155,0,0,0,1,10070,0.0010000000000000009
645000,1648,2933,127901,1747,3426,126941,0,0,0,1,10071,0.0010000000000000009
646000,1667,2944,127808,1778,3300,127172,0,0,0,1,10072,0.0010000000000000009
647000,1761,3013,127838,1804,3367,127049,2,0,0,1,10073,0.0010000000000000009
648000,1624,2900,127932,1744,3421,127015,0,0,8,1,10074,0.0010000000000000009
649000,1688,2929,128048,1637,3506,126987,0,0,0,1,10075,0.0010000000000000009
649999,1546,2962,127835,1760,3537,127065,-1,0,-4,1,10076,0.0009989999999999721
651019,1670,2885,127822,1716,3496,126980,0,0,0,1,10077,0.0010200000000000209
652001,1711,2993,127902,1704,3387,127022,0,0,0,1,10078,0.0009819999999999274
653002,1663,2936,127925,1755,3464,127033,1,0,0,1,10079,0.0010010000000000296
653999,1588,2937,127837,1786,3408,127120,-1,0,4,1,10080,0.0009970000000000256
654999,1584,2946,127902,1755,3378,126952,-1,0,-4,1,10081,0.0010000000000000009
655999,1633,2886,127912,1793,3360,127088,-2,1,-8,1,10082,0.0010000000000000009
657001,1626,2931,127850,1909,3431,126942,-1,0,-4,1,10083,0.0010019999999999474
658000,1678,2940,127822,1787,3477,127058,1,0,4,1,10084,0.0009989999999999721
659000,1549,2901,127907,1719,3470,127115,-2,0,4,1,10085,0.0010000000000000009
660001,1675,2977,127793,1724,3382,127090,0,0,-8,1,10086,0.0010010000000000296
661000,1607,2892,127874,1659,3428,127060,0,0,0,1,10087,0.0009989999999999721
662000,1633,2884,127937,1774,3411,127178,1,0,4,1,10088,0.0010000000000000009
662999,1575,2950,127942,1792,3425,126952,-1,0,-4,1,10089,0.0009990000000000832
664000,1572,2863,128004,1715,3526,126915,0,0,0,1,10090,0.0010009999999999186
665000,1629,2950,127937,1796,3486,126989,1,0,4,1,10091,0.0010000000000000009
665999,1657,2931,127835,1795,3351,127035,0,0,4,1,10092,0.0009990000000000832
667000,1669,2882,127981,1745,3413,127111,2,0,0,1,10093,0.0010009999999999186
667999,1728,2956,127859,1763,3515,127149,2,0,8,1,10094,0.0009990000000000832
668999,1591,2956,127990,1717,3480,127170,-1,0,-4,1,10095,0.0010000000000000009
669999,1629,2922,127972,1755,3373,127084,-1,0,-4,1,10096,0.0010000000000000009
671000,1555,2973,127969,1739,3423,127021,0,0,0,1,10097,0.0010009999999999186
671999,1625,2904,128048,1741,3454,127120,1,0,0,1,10098,0.0009990000000000832
673000,1598,2956,127864,1753,3439,127062,1,0,4,1,10099,0.0010009999999999186
673999,1656,2993,127967,1809,3478,127066,1,0,4,1,10100,0.0009990000000000832
675000,1662,2973,127884,1783,3465,127079,0,0,0,1,10101,0.0010009999999999186
676003,1572,2979,128046,1728,3439,127057,0,0,0,1,10102,0.0010030000000000872
677006,1597,2962,127898,1803,3466,127174,2,0,8,1,10103,0.0010029999999999761
678000,1608,2986,127972,1848,3546,126950,-1,0,8,1,10104,0.0009939999999999394
679000,1580,2959,127976,1713,3471,127014,0,0,-4,1,10105,0.0010000000000000009
680000,1643,2942,127944,1796,3443,127099,0,0,0,1,10106,0.0010000000000000009
681000,1553,2922,127849,1776,3480,127117,-2,0,-8,1,10107,0.0010000000000000009
681999,1714,2943,127847,1721,3501,127075,-1,0,-4,1,10108,0.0009990000000000832
683000,1668,2969,127962,1808,3356,127033,-1,0,-4,1,10109,0.0010009999999999186
684000,1714,2959,127855,1727,3391,127078,2,0,-4,1,10110,0.0010000000000000009
685000,1523,2992,127789,1826,3452,126995,2,0,8,1,10111,0.0010000000000000009
686000,1700,2997,127802,1733,3492,126994,2,0,8,1,10112,0.0010000000000000009
687000,1582,2900,127805,1727,3540,127069,0,0,0,1,10113,0.0010000000000000009
688001,1612,2870,127931,1744,3449,127075,-1,0,-4,1,10114,0.0010010000000000296
689000,1649,2904,127823,1778,3416,127090,0,0,0,1,10115,0.0009989999999999721
689999,1573,2943,127929,1879,3429,126999,-1,0,0,1,10116,0.0009989999999999721
691001,1567,2921,127731,1822,3523,126985,0,0,-4,1,10117,0.0010020000000000584
692000,1622,2949,127794,1733,3410,126923,0,0,0,1,10118,0.0009989999999999721
692999,1663,2963,127910,1803,3405,127092,1,0,4,1,10119,0.0009989999999999721
694000,1678,2992,127809,1728,3409,126950,-1,0,-4,1,10120,0.0010010000000000296
695000,1671,3062,127925,1753,3560,127022,0,0,0,1,10121,0.0010000000000000009
696000,1655,2895,127865,1750,3508,127019,1,0,0,1,10122,0.0010000000000000009
697000,1662,2891,127829,1731,3404,127045,-1,0,4,1,10123,0.0010000000000000009
697999,1670,2976,127978,1767,3450,126904,-1,0,-4,1,10124,0.0009989999999999721
698998,1645,2964,127747,1808,3497,127062,1,0,4,1,10125,0.0009990000000000832
700000,1576,2999,127858,1826,3420,127035,1,0,4,1,10126,0.0010019999999999474
701000,1696,2922,127827,1709,3441,127037,0,0,0,1,10127,0.0010000000000000009
702000,1606,2924,127798,1751,3504,127053,1,0,0,1,10128,0.0010000000000000009
703031,1591,2996,127841,1776,3494,127115,0,0,4,1,10129,0.0010310000000000041
704000,1566,2934,127895,1658,3491,126941,0,0,0,1,10130,0.0009689999999999976
705000,1616,2876,127815,1756,3480,127142,0,0,0,1,10131,0.0010000000000000009
706000,1615,2933,127780,1824,3518,127035,1,0,4,1,10132,0.0010000000000000009
707000,1595,2902,127766,1753,3438,126859,0,0,0,1,10133,0.0010000000000000009
708001,1627,2922,127760,1680,3498,126993,0,0,0,1,10134,0.0010010000000000296
708999,1567,2939,127906,1737,3419,126957,1,0,0,1,10135,0.0009979999999999434
710000,1617,2907,127908,1757,3397,127026,0,0,4,1,10136,0.0010010000000000296
711000,1539,2939,127824,1714,3350,126954,0,0,0,1,10137,0.0010000000000000009
712000,1586,3009,127917,1724,3453,127111,-1,1,-4,1,10138,0.0010000000000000009
713000,1536,2799,128009,1629,3456,127016,1,0,4,1,10139,0.0010000000000000009
714000,1661,2990,127909,1824,3382,127125,-1,0,-4,1,10140,0.0010000000000000009
715012,1654,2983,127887,1729,3409,127121,-1,0,-4,1,10141,0.0010120000000000129
716000,1621,2936,127780,1742,3469,126994,-1,0,-4,1,10142,0.0009879999999999889
717000,1581,2879,127938,1752,3562,126985,-1,0,-4,1,10143,0.0010000000000000009
718000,1593,2913,127972,1732,3498,127002,0,0,0,1,10144,0.0010000000000000009
719000,1573,2852,127995,1775,3431,127168,0,0,0,1,10145,0.0010000000000000009
720000,1619,2942,128026,1694,3422,127137,0,0,0,1,10146,0.0010000000000000009
721000,1542,2893,127950,1778,3418,127109,0,1,0,1,10147,0.0010000000000000009
722000,1623,2965,127995,1754,3487,127071,1,0,0,1,10148,0.0010000000000000009
723000,1552,2939,127957,1799,3444,127327,1,0,4,1,10149,0.0010000000000000009
724000,1664,2859,127871,1731,3474,127097,1,0,4,1,10150,0.0010000000000000009
725000,1581,2947,127855,1740,3457,127038,0,0,0,1,10151,0.0010000000000000009
726000,1541,2958,127942,1836,3478,127135,2,0,8,1,10152,0.0010000000000000009
727000,1585,2901,127985,1752,3435,127099,0,0,8,1,10153,0.0010000000000000009
728000,1581,2873,127969,1645,3521,127065,0,0,0,1,10154,0.0010000000000000009
728999,1644,2927,127885,1702,3496,127034,0,0,0,1,10155,0.0009989999999999721
730001,1600,2865,127875,1782,3420,127123,1,0,4,1,10156,0.0010020000000000584
731000,1559,2965,127932,1708,3416,127115,1,0,4,1,10157,0.0009989999999999721
732000,1619,2986,127936,1705,3550,127045,0,0,0,1,10158,0.0010000000000000009
733000,1587,2979,127944,1729,3458,127008,0,0,0,1,10159,0.0010000000000000009
734002,1590,2910,127771,1822,3473,126997,-1,0,0,1,10160,0.0010019999999999474
735000,1563,2936,127872,1728,3385,127058,-1,0,-4,1,10161,0.0009980000000000544
735999,1683,2930,127906,1839,3417,127103,-1,0,-4,1,10162,0.0009989999999999721
737000,1554,3050,127955,1692,3482,127100,-1,0,-4,1,10163,0.0010010000000000296
738000,1552,2932,128030,1756,3356,127029,0,0,0,1,10164,0.0010000000000000009
739006,1466,2969,127831,1804,3419,127060,-2,0,0,1,10165,0.0010059999999999514
740029,1615,2938,127863,1780,3482,127079,0,1,-8,1,10166,0.0010229999999999961
741001,1651,2863,127865,1701,3415,127080,0,0,0,1,10167,0.0009720000000000839
742000,1661,2925,127819,1755,3420,127099,1,0,4,1,10168,0.0009989999999999721
743000,1555,2881,127806,1763,3444,127063,1,0,4,1,10169,0.0010000000000000009
744001,1594,2825,127858,1688,3348,127096,0,0,0,1,10170,0.0010009999999999186
745000,1587,2918,127844,1834,3420,127034,1,0,0,1,10171,0.0009990000000000832
746000,1631,2792,127899,1835,3354,126998,1,0,4,1,10172,0.0010000000000000009
747001,1734,2864,127961,1813,3447,127033,1,0,4,1,10173,0.0010009999999999186
748003,1647,2967,127734,1750,3418,127133,-1,0,-4,1,10174,0.0010020000000000584
749000,1594,2963,127834,1701,3402,126906,0,0,0,1,10175,0.0009970000000000256
749999,1622,2838,127923,1713,3467,127099,-1,0,-4,1,10176,0.0009989999999999721
751000,1575,2926,127866,1716,3392,127158,1,0,-4,1,10177,0.0010010000000000296
752000,1713,2914,127884,1752,3499,127060,0,0,4,1,10178,0.0010000000000000009
753000,1598,2897,127909,1755,3498,127091,0,1,0,1,10179,0.0010000000000000009
754000,1600,2854,127783,1720,3526,127037,0,0,0,1,10180,0.0010000000000000009
754999,1645,2896,127932,1770,3488,127045,0,0,0,1,10181,0.0009989999999999721
755999,1637,2966,127930,1787,3452,127015,0,1,0,1,10182,0.0010000000000000009
756999,1667,2946,128005,1739,3472,127036,-1,1,-4,1,10183,0.0010000000000000009
757999,1647,2911,127896,1839,3436,126904,0,0,-4,1,10184,0.0010000000000000009
759000,1614,2922,127906,1723,3405,127202,1,0,0,1,10185,0.0010010000000000296
760000,1627,2933,127935,1697,3438,127019,1,0,4,1,10186,0.0010000000000000009
761000,1666,2990,127888,1717,3412,127177,0,0,0,1,10187,0.0010000000000000009
762000,1529,3012,127901,1668,3471,127142,0,0,0,1,10188,0.0010000000000000009
762999,1529,2823,127828,1769,3467,127035,-1,0,-4,1,10189,0.0009989999999999721
764000,1796,2913,127760,1798,3440,127198,2,0,-4,1,10190,0.0010010000000000296
764999,1568,2894,127895,1778,3366,127238,-1,0,8,1,10191,0.0009989999999999721
765999,1548,2963,128094,1729,3368,127282,-1,0,-4,1,10192,0.0010000000000000009
767000,1687,2949,127927,1729,3426,127091,-1,1,-4,1,10193,0.0010010000000000296
768000,1677,2951,127848,1838,3487,127117,1,0,4,1,10194,0.0010000000000000009
769000,1685,2918,128001,1768,3453,127089,0,0,0,1,10195,0.0010000000000000009
769999,1663,2895,127985,1878,3524,127197,1,0,0,1,10196,0.0009989999999999721
770999,1622,2973,127925,1807,3458,127065,1,0,4,1,10197,0.0010000000000000009
772003,1642,2944,127923,1775,3507,126890,1,0,4,1,10198,0.0010040000000000049
773007,1639,2933,127894,1693,3439,127069,-1,0,-4,1,10199,0.0010040000000000049
774000,1592,3035,127909,1740,3376,127029,-1,1,-4,1,10200,0.0009929999999999106
775000,1607,3071,127762,1814,3447,127183,0,0,0,1,10201,0.0010000000000000009
776000,1615,2928,127810,1702,3449,126995,1,0,0,1,10202,0.0010000000000000009
777000,1630,2939,127920,1790,3505,127093,0,0,4,1,10203,0.0010000000000000009
778000,1668,2962,127912,1824,3402,126990,0,0,0,1,10204,0.0010000000000000009
779000,1556,2973,127882,1754,3429,126907,1,0,4,1,10205,0.0010000000000000009
779999,1601,2956,127843,1810,3441,127078,-1,0,-4,1,10206,0.0009990000000000832
780999,1616,2914,127877,1747,3572,126993,-1,1,-4,1,10207,0.0010000000000000009
781999,1609,2934,127953,1792,3486,127060,-1,1,-4,1,10208,0.0010000000000000009
783000,1664,2890,127796,1739,3485,127029,0,0,-4,1,10209,0.0010009999999999186
784000,1683,3001,127849,1920,3515,127089,0,0,0,1,10210,0.0010000000000000009
785000,1606,2848,127829,1730,3395,126968,0,0,0,1,10211,0.0010000000000000009
785999,1558,3000,127864,1824,3468,127024,-1,0,-4,1,10212,0.0009990000000000832
787000,1634,3052,127729,1773,3394,126871,0,0,0,1,10213,0.0010009999999999186
788000,1655,2877,127926,1748,3429,126986,-1,0,0,1,10214,0.0010000000000000009
789002,1662,2928,127878,1660,3404,127039,0,1,-4,1,10215,0.0010020000000000584
790009,1477,2872,127788,1829,3383,126975,0,0,0,1,10216,0.0010069999999999801
791001,1585,3006,127873,1771,3506,127091,0,0,0,1,10217,0.0009919999999999929
792000,1624,2952,127852,1742,3532,126996,1,0,4,1,10218,0.0009989999999999721
793000,1643,2941,127785,1798,3458,127034,0,0,0,1,10219,0.0010000000000000009
793999,1526,2975,127894,1810,3445,127090,-1,0,0,1,10220,0.0009990000000000832
795000,1567,2972,127830,1659,3503,127028,0,0,-4,1,10221,0.0010009999999999186
796000,1565,2990,127856,1676,3447,127023,0,0,0,1,10222,0.0010000000000000009
796999,1630,2988,127905,1825,3496,127039,1,0,4,1,10223,0.0009990000000000832
798000,1664,2957,127863,1775,3372,126896,0,0,0,1,10224,0.0010009999999999186
799000,1631,3051,127696,1774,3489,127036,-1,0,-4,1,10225,0.0010000000000000009
800000,1608,3032,127825,1787,3476,127149,0,0,0,1,10226,0.0010000000000000009
800999,1592,2893,127940,1802,3422,126926,0,0,0,1,10227,0.0009990000000000832
802010,1636,3030,127819,1684,3436,127126,0,0,0,1,10228,0.0010109999999999841
803003,1551,2934,127926,1765,3354,126937,0,1,0,1,10229,0.0009929999999999106
804001,1613,2989,127887,1790,3453,127153,-1,0,-4,1,10230,0.0009980000000000544
805001,1596,2920,127899,1732,3465,127039,0,0,0,1,10231,0.0010000000000000009
806000,1637,2991,127974,1687,3433,127124,1,0,4,1,10232,0.0009989999999999721
807000,1651,2974,127709,1768,3382,127030,-1,0,4,1,10233,0.0010000000000000009
808000,1557,3043,127828,1761,3317,127119,-2,0,-4,1,10234,0.0010000000000000009
808999,1606,2925,127830,1804,3452,127084,-2,0,-8,1,10235,0.0009989999999999721
810000,1602,2926,127975,1699,3394,127090,0,0,0,1,10236,0.0010010000000000296
811000,1601,2931,127879,1748,3511,127039,0,0,0,1,10237,0.0010000000000000009
812000,1654,2917,127889,1744,3446,127083,0,0,0,1,10238,0.0010000000000000009
813000,1646,2974,127890,1678,3437,127148,-1,0,0,1,10239,0.0010000000000000009
814000,1609,2941,127958,1828,3425,127033,0,0,-4,1,10240,0.0010000000000000009
815022,1657,2863,127960,1703,3449,127080,0,0,0,1,10241,0.0010219999999999674
816001,1606,2942,127880,1779,3535,127133,1,0,4,1,10242,0.0009790000000000632
817000,1568,2952,127826,1755,3418,126949,0,0,0,1,10243,0.0009989999999999721
818000,1567,2966,127829,1837,3440,126933,0,0,0,1,10244,0.0010000000000000009
818999,1600,2914,127898,1799,3359,127101,-1,0,0,1,10245,0.0009989999999999721
820000,1619,2941,127986,1707,3464,127044,0,0,-4,1,10246,0.0010010000000000296
821000,1615,2993,127962,1856,3497,127186,0,0,0,1,10247,0.0010000000000000009
822000,1610,2948,127952,1655,3412,127060,0,0,0,1,10248,0.0010000000000000009
823000,1637,2853,127996,1723,3341,127117,0,0,0,1,10249,0.0010000000000000009
824000,1631,2941,127961,1690,3425,127064,0,1,0,1,10250,0.0010000000000000009
825004,1694,3011,127969,1796,3390,127166,1,1,0,1,10251,0.0010040000000000049
826006,1672,2852,127908,1703,3359,127157,0,0,4,1,10252,0.0010020000000000584
826999,1631,2862,127891,1763,3430,127093,0,0,0,1,10253,0.0009929999999999106
827999,1592,2963,128046,1663,3408,127092,1,0,4,1,10254,0.0010000000000000009
828999,1576,2971,127986,1756,3489,127113,-1,0,-4,1,10255,0.0010000000000000009
830000,1613,2997,127974,1728,3467,127116,0,0,0,1,10256,0.0010010000000000296
831000,1641,2875,127917,1730,3491,127035,0,0,0,1,10257,0.0010000000000000009
832000,1543,2949,127861,1838,3381,126865,-2,0,0,1,10258,0.0010000000000000009
833000,1684,2931,127955,1744,3497,127129,-2,0,-8,1,10259,0.0010000000000000009
833999,1549,2877,127859,1885,3423,127102,1,0,4,1,10260,0.0009989999999999721
835000,1633,2900,127864,1820,3361,127065,0,0,0,1,10261,0.0010010000000000296
836000,1526,2926,127895,1821,3455,127114,1,0,4,1,10262,0.0010000000000000009
837000,1608,2897,127863,1877,3358,127217,-1,0,4,1,10263,0.0010000000000000009
837999,1666,2897,128050,1755,3451,127091,1,0,-4,1,10264,0.0009989999999999721
838999,1555,2992,127899,1703,3451,127018,1,0,4,1,10265,0.0010000000000000009
840000,1652,2910,127927,1851,3428,127199,1,0,4,1,10266,0.0010010000000000296
841000,1574,2899,127815,1699,3467,127008,1,0,4,1,10267,0.0010000000000000009
842000,1593,2945,128071,1732,3391,126907,-2,0,-8,1,10268,0.0010000000000000009
842998,1666,2980,127792,1801,3424,127065,1,0,-8,1,10269,0.0009979999999999434
843999,1624,3003,127891,1802,3375,127002,1,0,4,1,10270,0.0010010000000000296
845001,1668,2963,127915,1817,3432,127116,1,2,4,1,10271,0.0010020000000000584
846000,1585,2936,127848,1721,3514,127144,1,0,4,1,10272,0.0009989999999999721
847004,1708,2931,127780,1795,3438,127130,0,0,0,1,10273,0.0010040000000000049
848000,1641,2901,127800,1750,3406,127042,-1,0,-4,1,10274,0.0009959999999999969
849000,1626,2954,127860,1819,3427,127014,1,0,4,1,10275,0.0010000000000000009
850000,1595,2965,127854,1736,3418,127072,0,0,4,1,10276,0.0010000000000000009
851000,1641,2897,127921,1738,3385,127070,0,0,0,1,10277,0.0010000000000000009
852000,1676,2860,127815,1726,3457,127031,0,0,0,1,10278,0.0010000000000000009
853000,1656,2983,127848,1691,3496,126994,-1,0,-4,1,10279,0.0010000000000000009
853999,1649,2914,127806,1803,3506,126930,-1,0,-4,1,10280,0.0009989999999999721
855000,1736,2997,127840,1747,3410,127038,0,0,0,1,10281,0.0010010000000000296
855999,1628,2964,127755,1784,3380,127025,-1,0,0,1,10282,0.0009989999999999721
856999,1570,2956,127831,1726,3451,127094,-1,0,-4,1,10283,0.0010000000000000009
858000,1629,2988,127849,1692,3415,127021,-1,0,-4,1,10284,0.0010010000000000296
859000,1649,2932,127811,1709,3421,127116,1,0,4,1,10285,0.0010000000000000009
859999,1621,2951,127788,1689,3462,127022,-1,0,-4,1,10286,0.0009989999999999721
861000,1554,2904,127788,1721,3468,126967,1,0,4,1,10287,0.0010010000000000296
862000,1695,3082,127770,1868,3482,126951,1,0,4,1,10288,0.0010000000000000009
863005,1665,3078,127800,1744,3439,127008,1,0,4,1,10289,0.0010049999999999226
864003,1661,2971,127944,1788,3439,127100,1,0,4,1,10290,0.0009980000000000544
865000,1634,2971,127852,1778,3600,127004,-1,0,-4,1,10291,0.0009970000000000256
865999,1757,2988,127807,1745,3564,127031,0,0,0,1,10292,0.0009989999999999721
866999,1622,2993,127924,1688,3493,127110,-1,1,-4,1,10293,0.0010000000000000009
868000,1646,3006,127869,1811,3428,127120,0,1,-4,1,10294,0.0010010000000000296
868999,1610,3085,127801,1759,3465,127053,-2,1,0,1,10295,0.0009989999999999721
869999,1538,2923,127771,1657,3452,127094,-2,0,-8,1,10296,0.0010000000000000009
871000,1711,2924,127860,1718,3470,127063,0,0,0,1,10297,0.0010010000000000296
872000,1580,2949,127788,1742,3390,127055,1,0,4,1,10298,0.0010000000000000009
872999,1598,2969,127971,1796,3437,127086,-2,0,-8,1,10299,0.0009989999999999721
874000,1673,2901,127844,1759,3465,127069,0,0,-8,1,10300,0.0010010000000000296
875000,1561,2944,127939,1702,3398,127019,-1,1,0,1,10301,0.0010000000000000009
876000,1666,3024,127849,1810,3507,127054,-1,0,-4,1,10302,0.0010000000000000009
877000,1524,2957,128109,1834,3544,127063,0,0,0,1,10303,0.0010000000000000009
877999,1494,2944,127934,1777,3445,127127,1,0,4,1,10304,0.0009989999999999721
879000,1676,2881,127724,1780,3478,127078,0,0,0,1,10305,0.0010010000000000296
880000,1591,2895,127863,1868,3478,126996,-1,0,0,1,10306,0.0010000000000000009
881000,1632,3002,127998,1779,3513,127182,0,1,-4,1,10307,0.0010000000000000009
881999,1714,2974,127921,1788,3444,127030,0,0,0,1,10308,0.0009989999999999721
882999,1610,2986,127930,1847,3449,126919,-1,0,-4,1,10309,0.0010000000000000009
884000,1632,2936,127952,1817,3434,127052,1,0,4,1,10310,0.0010010000000000296
885002,1519,2928,128068,1765,3460,127074,0,0,0,1,10311,0.0010019999999999474
886000,1549,3000,127982,1813,3462,127047,1,0,0,1,10312,0.0009980000000000544
887000,1602,2914,127857,1788,3379,127023,1,0,4,1,10313,0.0010000000000000009
888001,1721,3011,127845,1656,3407,126991,1,0,4,1,10314,0.0010009999999999186
889001,1600,2906,127767,1695,3409,127179,0,0,0,1,10315,0.0010000000000000009
890002,1519,2947,127879,1726,3423,127062,1,0,4,1,10316,0.0010010000000000296
891001,1605,2904,127916,1713,3420,126959,0,0,0,1,10317,0.0009989999999999721
892000,1620,2909,127926,1791,3370,126982,1,0,4,1,10318,0.0009990000000000832
892999,1656,2901,127818,1806,3377,127145,-1,0,4,1,10319,0.0009989999999999721
894000,1577,2967,127882,1825,3551,127079,0,0,-4,1,10320,0.0010009999999999186
895000,1642,2879,127972,1728,3582,127031,0,1,0,1,10321,0.0010000000000000009
896000,1607,2917,127909,1725,3439,126989,-2,0,-8,1,10322,0.0010000000000000009
897000,1657,2904,127898,1696,3418,127007,1,0,4,1,10323,0.0010000000000000009
898000,1556,2975,127974,1784,3470,127047,0,0,0,1,10324,0.0010000000000000009
899000,1620,2924,127875,1750,3423,127009,0,1,0,1,10325,0.0010000000000000009
900000,1717,2971,127876,1726,3374,127098,0,0,0,1,10326,0.0010000000000000009
901000,1613,2928,127803,1701,3452,126983,0,0,0,1,10327,0.0010000000000000009
901999,1651,2922,127934,1744,3464,127087,-2,0,-8,1,10328,0.0009990000000000832
902999,1602,2990,127778,1792,3480,126979,-1,0,-4,1,10329,0.0010000000000000009
904000,1602,2908,128023,1763,3529,127077,1,0,4,1,10330,0.0010009999999999186
904999,1628,2889,127829,1741,3461,127079,1,0,4,1,10331,0.0009990000000000832
906000,1704,2900,127882,1813,3483,126976,0,0,4,1,10332,0.0010009999999999186
907000,1742,2963,127909,1765,3460,127084,0,0,0,1,10333,0.0010000000000000009
908000,1634,2968,127940,1731,3400,127038,1,0,4,1,10334,0.0010000000000000009
908999,1628,2949,127915,1743,3441,127016,-1,0,-4,1,10335,0.0009990000000000832
910000,1597,2911,127754,1689,3477,126912,2,0,8,1,10336,0.0010009999999999186
911002,1636,2963,127758,1751,3451,127020,0,0,8,1,10337,0.0010020000000000584
912004,1638,2907,127947,1733,3515,127137,1,0,0,1,10338,0.0010019999999999474
913000,1545,2948,127917,1708,3392,127065,1,0,4,1,10339,0.0009959999999999969
914000,1626,2916,127777,1700,3523,127154,1,1,4,1,10340,0.0010000000000000009
915000,1670,2939,127895,1746,3486,127031,0,0,0,1,10341,0.0010000000000000009
916000,1736,2903,127926,1755,3415,126950,0,0,0,1,10342,0.0010000000000000009
917000,1604,2930,127903,1682,3442,127002,-1,0,0,1,10343,0.0010000000000000009
918000,1687,2877,127820,1756,3501,126949,0,0,-4,1,10344,0.0010000000000000009
919000,1570,2931,127709,1787,3445,127135,0,0,0,1,10345,0.0010000000000000009
919999,1646,2907,127820,1767,3482,127052,-1,0,-4,1,10346,0.0009990000000000832
921000,1578,2936,127791,1791,3352,127036,0,0,0,1,10347,0.0010009999999999186
922000,1642,3018,127891,1717,3424,127074,0,0,0,1,10348,0.0010000000000000009
923000,1535,2915,127924,1777,3395,127168,0,0,0,1,10349,0.0010000000000000009
924000,1470,2956,127922,1753,3506,127042,-2,0,0,1,10350,0.0010000000000000009
924999,1654,2892,127919,1776,3441,126960,-2,0,-8,1,10351,0.0009989999999999721
926000,1578,2839,127875,1620,3419,127064,2,0,8,1,10352,0.0010010000000000296
927001,1632,2872,127899,1775,3377,127173,-2,0,-8,1,10353,0.0010010000000000296
928000,1694,2900,127798,1805,3415,127031,1,0,4,1,10354,0.0009989999999999721
929000,1587,2941,127959,1729,3418,127148,-1,0,4,1,10355,0.0010000000000000009
930000,1667,2971,127897,1888,3404,127040,0,0,-4,1,10356,0.0010000000000000009
931000,1573,2942,127840,1728,3338,127163,0,0,0,1,10357,0.0010000000000000009
932004,1565,3060,127776,1796,3475,127078,-1,0,-4,1,10358,0.0010040000000000049
933005,1509,2909,127932,1691,3433,127013,0,0,0,1,10359,0.0010010000000000296
934001,1614,2956,127941,1671,3352,127042,0,0,0,1,10360,0.0009959999999999969
935000,1575,2940,127937,1797,3418,127012,-1,0,-4,1,10361,0.0009989999999999721
935999,1583,3051,127912,1716,3433,127106,-2,0,-4,1,10362,0.0009989999999999721
937000,1590,2882,127860,1696,3435,127064,1,0,-8,1,10363,0.0010010000000000296
937999,1564,2962,127813,1726,3372,127005,1,0,4,1,10364,0.0009989999999999721
938999,1581,2896,127816,1649,3422,127217,-1,0,-4,1,10365,0.0010000000000000009
939999,1595,2986,127891,1802,3395,126913,-2,0,-8,1,10366,0.0010000000000000009
941010,1475,2912,127868,1698,3402,127103,1,0,4,1,10367,0.0010109999999999841
942009,1680,2956,127914,1722,3435,127084,0,0,4,1,10368,0.0009990000000000832
943000,1621,2933,127898,1744,3368,127067,-1,0,0,1,10369,0.0009909999999999641
943999,1637,2941,127979,1773,3378,127079,-1,0,-4,1,10370,0.0009989999999999721
945000,1601,2970,127893,1760,3481,127017,1,0,4,1,10371,0.0010010000000000296
945999,1759,2839,127914,1761,3503,127143,0,0,0,1,10372,0.0009989999999999721
947000,1585,2953,127830,1705,3561,126979,0,0,0,1,10373,0.0010010000000000296
947999,1686,2991,127867,1726,3516,127011,-1,0,0,1,10374,0.0009989999999999721
949000,1647,3011,127949,1703,3519,127063,0,0,-4,1,10375,0.0010010000000000296
949999,1561,2809,127828,1699,3445,127016,0,1,0,1,10376,0.0009989999999999721
951013,1631,2932,127901,1772,3440,126906,-1,0,-4,1,10377,0.0010140000000000704
952000,1659,2950,127787,1812,3396,127071,1,0,4,1,10378,0.0009869999999999601
953000,1586,2994,127910,1780,3455,126943,1,0,4,1,10379,0.0010000000000000009
954000,1608,2828,127999,1805,3353,126988,0,0,4,1,10380,0.0010000000000000009
955000,1601,3010,127797,1683,3496,127007,2,0,0,1,10381,0.0010000000000000009
956000,1653,2930,127725,1748,3410,126979,2,0,8,1,10382,0.0010000000000000009
957000,1560,2989,127867,1801,3494,126926,1,0,4,1,10383,0.0010000000000000009
958000,1642,2976,127870,1658,3465,127062,0,0,0,1,10384,0.0010000000000000009
959000,1617,2928,127937,1774,3556,127024,0,0,0,1,10385,0.0010000000000000009
960000,1554,2988,127907,1770,3335,127059,0,0,0,1,10386,0.0010000000000000009
961000,1575,2902,127856,1657,3514,127038,0,0,0,1,10387,0.0010000000000000009
962000,1667,3018,127908,1822,3453,127035,0,0,0,1,10388,0.0010000000000000009
963000,1648,2908,127787,1634,3433,126994,0,0,0,1,10389,0.0010000000000000009
964000,1752,2912,127929,1748,3459,127002,0,0,0,1,10390,0.0010000000000000009
965000,1667,2915,127985,1824,3520,127120,0,0,0,1,10391,0.0010000000000000009
966000,1622,2936,127956,1752,3486,127093,1,0,0,1,10392,0.0010000000000000009
967000,1582,2900,127794,1769,3519,126952,0,0,4,1,10393,0.0010000000000000009
968001,1502,2991,127914,1808,3386,126922,0,0,0,1,10394,0.0010010000000000296
969000,1698,2907,127971,1783,3416,127126,1,0,4,1,10395,0.0009989999999999721
970000,1589,3044,127958,1731,3390,127001,0,0,0,1,10396,0.0010000000000000009
971000,1610,2975,127880,1747,3438,127096,2,1,8,1,10397,0.0010000000000000009
972000,1630,3028,127873,1819,3504,127191,1,1,8,1,10398,0.0010000000000000009
973000,1547,3009,127906,1698,3447,127076,0,0,4,1,10399,0.0010000000000000009
974000,1626,3022,127889,1779,3455,127091,0,1,0,1,10400,0.0010000000000000009
975000,1589,2971,127943,1730,3356,127204,1,0,4,1,10401,0.0010000000000000009
976000,1649,2978,127918,1668,3340,127036,0,0,0,1,10402,0.0010000000000000009
977007,1636,2921,127919,1808,3388,127176,-1,0,-4,1,10403,0.0010069999999999801
978000,1611,2982,127901,1746,3342,127080,1,0,-4,1,10404,0.0009930000000000216
979000,1608,2951,127843,1792,3427,127099,1,0,4,1,10405,0.0010000000000000009
980000,1641,3022,127760,1742,3469,126954,1,0,4,1,10406,0.0010000000000000009
981000,1573,2949,127792,1821,3505,127018,2,0,8,1,10407,0.0010000000000000009
982000,1504,3043,127870,1730,3464,127010,0,0,0,1,10408,0.0010000000000000009
982999,1655,2906,127929,1801,3391,127079,1,0,4,1,10409,0.0009989999999999721
984000,1655,2974,127879,1843,3505,127041,0,0,0,1,10410,0.0010010000000000296
985000,1591,2876,127833,1743,3399,127027,0,0,0,1,10411,0.0010000000000000009
986000,1650,2977,127919,1714,3472,126990,0,1,0,1,10412,0.0010000000000000009
987000,1590,2934,127945,1816,3461,127066,0,0,0,1,10413,0.0010000000000000009
988000,1623,2887,127842,1798,3428,127076,1,0,4,1,10414,0.0010000000000000009
989000,1608,2958,127827,1791,3412,127052,1,0,4,1,10415,0.0010000000000000009
990000,1723,2977,127960,1804,3493,127059,0,0,0,1,10416,0.0010000000000000009
991000,1555,2902,127927,1750,3468,127090,0,0,0,1,10417,0.0010000000000000009
992000,1586,2984,127753,1810,3374,127062,-1,0,0,1,10418,0.0010000000000000009
992999,1660,2935,127829,1770,3439,127001,-1,0,-4,1,10419,0.0009989999999999721
994000,1716,2916,127772,1801,3564,127067,0,0,0,1,10420,0.0010010000000000296
995000,1623,2968,127966,1743,3501,127021,-1,0,-4,1,10421,0.0010000000000000009
996000,1596,2955,127769,1722,3473,126993,0,0,0,1,10422,0.0010000000000000009
997001,1716,2895,127850,1788,3505,127066,0,0,0,1,10423,0.0010009999999999186
998000,1506,2951,127916,1836,3397,127056,-1,0,0,1,10424,0.0009990000000000832
999000,1694,2941,127886,1774,3415,127089,-1,0,-4,1,10425,0.0010000000000000009
1000000,1719,2947,127934,1787,3472,127136,1,0,4,1,10426,0.0010000000000000009
1001000,1590,2965,128004,1779,3344,127148,1,0,4,1,10427,0.0009999999999998899
1001999,1642,2890,127871,1789,3380,127077,1,0,4,1,10428,0.0009989999999999721
1003010,1522,2927,127851,1808,3438,127099,1,0,4,1,10429,0.0010110000000000952
1004001,1675,2903,127839,1749,3462,127084,0,0,4,1,10430,0.0009909999999999641
1005000,1696,2893,127795,1751,3527,127249,0,0,0,1,10431,0.0009989999999999721
1006000,1573,2945,127899,1698,3446,127041,2,0,8,1,10432,0.001000000000000112
1007000,1649,3052,127900,1733,3429,127165,0,0,0,1,10433,0.0009999999999998899
1008000,1626,2910,127898,1840,3500,126939,0,0,0,1,10434,0.001000000000000112
1009000,1622,2877,127827,1752,3328,127158,1,0,0,1,10435,0.0009999999999998899
1010000,1580,2955,127931,1760,3490,126974,1,0,4,1,10436,0.001000000000000112
1011000,1679,2943,127860,1738,3377,127040,1,0,4,1,10437,0.0009999999999998899
1012000,1563,2922,127887,1762,3501,127057,0,0,0,1,10438,0.001000000000000112
1013000,1593,2859,127972,1863,3460,127039,-1,0,-4,1,10439,0.0009999999999998899
1014000,1687,2922,127969,1768,3459,127032,0,0,0,1,10440,0.001000000000000112
1015000,1669,2912,127912,1763,3493,127026,-1,0,0,1,10441,0.0009999999999998899
1015999,1582,2998,127904,1693,3528,127193,2,0,-4,1,10442,0.0009989999999999721
1017000,1624,2908,128018,1805,3432,127040,2,0,8,1,10443,0.0010010000000000296
1018000,1578,2946,127880,1747,3410,126983,2,0,8,1,10444,0.001000000000000112
1019000,1557,3027,127902,1742,3414,127003,0,0,0,1,10445,0.0009999999999998899
1020000,1670,2856,127891,1863,3420,126975,-1,0,-4,1,10446,0.001000000000000112
1021000,1613,2876,127836,1820,3415,127060,0,0,-4,1,10447,0.0009999999999998899
1022000,1688,2968,127869,1643,3416,126955,0,1,0,1,10448,0.001000000000000112
1023000,1609,3023,127920,1755,3332,126912,0,0,0,1,10449,0.0009999999999998899
1024000,1649,2950,127902,1761,3426,126985,0,0,0,1,10450,0.001000000000000112
1025000,1661,2946,127931,1885,3455,127074,2,0,8,1,10451,0.0009999999999998899
1025999,1676,2845,127847,1798,3318,127038,-2,0,-8,1,10452,0.0009989999999999721
1026999,1661,2983,127837,1772,3405,127087,1,0,4,1,10453,0.001000000000000112
1028005,1679,2919,127826,1777,3485,127022,-2,1,4,1,10454,0.0010060000000000624
1029030,1649,2826,127975,1842,3442,127021,1,0,-8,1,10455,0.0010249999999998316
1030028,1618,2974,128029,1774,3486,126936,1,0,4,1,10456,0.0009980000000000544
1031002,1509,2938,127889,1712,3567,127222,1,0,4,1,10457,0.0009740000000000304
1032000,1619,2982,127932,1790,3444,127128,0,0,0,1,10458,0.0009980000000000544
1033001,1538,2946,127820,1731,3497,127065,-1,0,-4,1,10459,0.0010010000000000296
1033999,1689,2913,127797,1814,3387,127087,-2,0,-4,1,10460,0.0009979999999998324
1034999,1549,2895,127897,1678,3422,126988,1,0,-8,1,10461,0.001000000000000112
1036000,1599,2796,127826,1855,3435,127194,1,0,4,1,10462,0.0010010000000000296
1037003,1554,2863,127926,1782,3432,126986,-1,0,-4,1,10463,0.0010029999999998651
1038002,1569,2999,127913,1763,3412,127115,1,0,4,1,10464,0.0009989999999999721
1039000,1642,2975,127897,1752,3463,127022,0,0,0,1,10465,0.0009980000000000544
1040000,1520,3022,127864,1779,3462,126999,0,0,0,1,10466,0.001000000000000112
1041000,1562,2922,128018,1679,3588,127151,-1,0,0,1,10467,0.0009999999999998899
1041999,1687,2961,127902,1805,3478,127135,-1,0,-4,1,10468,0.0009989999999999721
1042999,1551,2900,127907,1781,3523,127123,-1,0,-4,1,10469,0.001000000000000112
1043999,1576,2939,127884,1799,3395,127052,-1,0,-4,1,10470,0.0009999999999998899
1045000,1560,2955,127833,1784,3481,127013,0,0,0,1,10471,0.0010010000000000296
1046000,1498,2916,127931,1664,3447,127038,1,0,0,1,10472,0.001000000000000112
1047000,1594,2954,127907,1881,3484,126985,0,0,4,1,10473,0.0009999999999998899
1048000,1616,2888,127922,1680,3455,127188,0,0,0,1,10474,0.001000000000000112
1049000,1582,2976,128051,1811,3457,126960,0,0,0,1,10475,0.0009999999999998899
1049999,1576,2981,127953,1788,3444,127009,-1,0,-4,1,10476,0.0009989999999999721
1051001,1590,2871,127893,1692,3357,127117,2,0,8,1,10477,0.0010019999999999474
1051999,1690,3003,127867,1783,3352,126958,0,0,8,1,10478,0.0009980000000000544
1052999,1588,2997,127974,1780,3492,127084,0,0,0,1,10479,0.001000000000000112
1054001,1655,2942,127956,1702,3349,127040,0,0,0,1,10480,0.0010019999999999474
1055000,1688,2908,127933,1699,3487,127073,0,0,0,1,10481,0.0009989999999999721
1055999,1601,2989,127846,1790,3432,127077,-1,0,-4,1,10482,0.0009989999999999721
1057000,1752,3009,127853,1840,3417,126994,0,0,0,1,10483,0.0010010000000000296
1058000,1687,3094,127827,1772,3431,126921,-1,0,0,1,10484,0.001000000000000112
1059000,1615,2885,127927,1829,3500,127049,1,0,-4,1,10485,0.0009999999999998899
1060000,1607,2955,127933,1729,3487,127106,1,0,4,1,10486,0.001000000000000112
1061000,1571,2974,127866,1810,3436,127040,0,0,0,1,10487,0.0009999999999998899
1062002,1615,3008,127841,1672,3424,127054,-1,0,-4,1,10488,0.0010019999999999474
1063000,1665,2956,127865,1780,3478,126980,0,0,0,1,10489,0.0009980000000000544
1064002,1626,2972,127977,1730,3540,127001,0,0,0,1,10490,0.0010019999999999474
1065012,1652,2916,127851,1717,3534,127038,1,0,0,1,10491,0.0010099999999999554
1065999,1616,2949,127813,1711,3495,127019,1,0,4,1,10492,0.0009870000000000712
1067000,1668,3005,127844,1754,3467,126913,0,0,0,1,10493,0.0010010000000000296
1068000,1614,2938,127996,1673,3416,126946,0,0,0,1,10494,0.001000000000000112
1069000,1524,3000,127799,1820,3429,127022,0,0,0,1,10495,0.0009999999999998899
1070000,1627,2939,127859,1679,3410,126980,-1,0,-4,1,10496,0.001000000000000112
1071002,1613,2938,127820,1737,3414,126943,1,0,-4,1,10497,0.0010019999999999474
1072001,1542,2906,127826,1698,3418,126914,1,0,4,1,10498,0.0009989999999999721
1073001,1619,2939,127928,1617,3479,126931,1,0,4,1,10499,0.0009999999999998899
1074001,1698,2846,127803,1746,3420,127003,-1,0,-4,1,10500,0.001000000000000112
1074999,1587,2881,127915,1817,3324,126956,0,0,0,1,10501,0.0009980000000000544
1076000,1630,2859,127804,1725,3389,127071,2,0,8,1,10502,0.0010009999999998076
1077000,1644,2955,127906,1731,3501,126934,2,0,8,1,10503,0.001000000000000112
1077999,1571,2929,127870,1649,3403,126942,-2,0,8,1,10504,0.0009989999999999721
1079000,1636,2979,127941,1771,3444,127012,-2,0,-8,1,10505,0.0010010000000000296
1079999,1627,2977,127831,1826,3415,127012,0,1,0,1,10506,0.0009989999999999721
1081003,1525,2928,127950,1755,3525,127079,-2,0,-8,1,10507,0.0010040000000000049
1082001,1612,2949,127922,1668,3436,127053,-1,0,-4,1,10508,0.0009980000000000544
1083000,1637,2867,127868,1649,3436,127132,0,0,-4,1,10509,0.0009989999999999721
1084000,1605,2968,127864,1812,3437,127208,0,0,0,1,10510,0.0009999999999998899
1085000,1525,3025,127870,1682,3453,126992,0,0,0,1,10511,0.001000000000000112
1085999,1585,2913,127829,1746,3453,127053,-1,0,-4,1,10512,0.0009989999999999721
1087000,1589,2926,127980,1750,3384,127000,1,1,4,1,10513,0.0010010000000000296
1087999,1619,2863,128079,1636,3330,127056,1,0,4,1,10514,0.0009989999999999721
1089000,1597,3005,127959,1765,3375,127044,-1,0,4,1,10515,0.0010010000000000296
1090000,1689,2918,127998,1751,3520,127018,-1,1,-4,1,10516,0.0009999999999998899
1091000,1602,2931,127908,1714,3450,127113,-1,0,-4,1,10517,0.001000000000000112
1092000,1663,2912,127942,1716,3450,127086,1,0,4,1,10518,0.0009999999999998899
1093000,1629,3015,127868,1813,3444,126930,1,0,4,1,10519,0.001000000000000112
1094000,1631,2989,128007,1753,3466,127112,1,0,4,1,10520,0.0009999999999998899
1095000,1622,2910,127867,1740,3440,127066,-2,0,4,1,10521,0.001000000000000112
1095999,1576,2941,127939,1738,3462,127089,1,0,-8,1,10522,0.0009989999999999721
1096999,1588,2981,127941,1678,3383,127157,1,0,4,1,10523,0.001000000000000112
1097999,1681,2912,127896,1782,3423,127018,0,0,0,1,10524,0.0009999999999998899
1098999,1607,2813,127994,1695,3473,127030,-1,0,-4,1,10525,0.001000000000000112
1100005,1551,2901,127954,1686,3429,127124,2,0,8,1,10526,0.0010059999999998404
1101006,1589,2901,127929,1785,3470,127137,-2,0,8,1,10527,0.0010010000000000296
1102002,1479,2857,127918,1671,3458,127251,0,0,-8,1,10528,0.0009959999999999969
1103001,1635,2950,127890,1759,3414,127071,0,1,0,1,10529,0.0009989999999999721
1104001,1547,2888,127892,1847,3431,126994,0,0,0,1,10530,0.001000000000000112
1105000,1660,2947,127925,1791,3355,126996,0,0,0,1,10531,0.0009989999999999721
1106000,1680,2908,127829,1786,3305,126903,0,0,0,1,10532,0.0009999999999998899
1107000,1609,3039,127911,1722,3424,127156,1,0,0,1,10533,0.001000000000000112
1108000,1622,2966,127917,1807,3487,127067,0,0,4,1,10534,0.0009999999999998899
1109000,1690,2895,127818,1861,3444,127056,0,0,0,1,10535,0.001000000000000112
1110000,1596,2922,127797,1759,3398,126917,0,0,0,1,10536,0.0009999999999998899
1111000,1604,2885,127751,1747,3383,127047,-1,0,-4,1,10537,0.001000000000000112
1111999,1697,3012,127799,1763,3353,127150,2,0,8,1,10538,0.0009989999999999721
1113000,1634,2962,127796,1844,3465,127059,1,0,8,1,10539,0.0010010000000000296
1113999,1591,2895,127878,1788,3459,126979,-1,0,4,1,10540,0.0009989999999999721
1114999,1593,2946,127735,1786,3458,127052,-1,0,-4,1,10541,0.0009999999999998899
1115999,1630,2895,127869,1783,3470,126975,-1,0,-4,1,10542,0.001000000000000112
1117000,1669,2869,127875,1687,3428,127085,-1,0,-4,1,10543,0.0010010000000000296
1118000,1752,2995,127859,1779,3363,126896,2,0,8,1,10544,0.0009999999999998899
1118999,1665,2912,127875,1683,3436,126980,-1,0,-4,1,10545,0.0009989999999999721
1120000,1587,2911,127959,1864,3489,127069,0,0,-4,1,10546,0.0010010000000000296
1121000,1648,2949,127870,1726,3525,127034,2,0,0,1,10547,0.001000000000000112
1122000,1680,2940,127906,1754,3423,127045,2,0,8,1,10548,0.0009999999999998899
1123000,1658,2974,127866,1679,3398,127133,0,0,0,1,10549,0.001000000000000112
1123999,1599,2978,127905,1739,3459,126987,-1,0,-4,1,10550,0.0009989999999999721
1125003,1595,2968,127856,1801,3437,127074,0,0,0,1,10551,0.0010040000000000049
1126016,1645,2926,127732,1697,3527,126962,0,0,0,1,10552,0.0010129999999999306
1127003,1649,2949,127956,1744,3469,127002,0,0,0,1,10553,0.0009870000000000712
1128000,1591,2903,127857,1795,3474,126956,0,0,0,1,10554,0.0009969999999999146
1129000,1653,3014,127836,1736,3439,126967,1,0,4,1,10555,0.001000000000000112
1130000,1603,2906,127864,1757,3401,126891,0,0,0,1,10556,0.0009999999999998899
1131000,1581,2939,127941,1680,3475,127076,1,0,4,1,10557,0.001000000000000112
1132000,1666,2978,127903,1827,3472,127142,1,0,4,1,10558,0.0009999999999998899
1133000,1663,3000,127960,1813,3527,126987,-1,0,4,1,10559,0.001000000000000112
1133999,1530,2937,127757,1799,3379,126885,-1,0,-4,1,10560,0.0009989999999999721
1135000,1607,2967,127829,1747,3478,126997,0,0,0,1,10561,0.0010010000000000296
1136000,1694,2893,127825,1772,3459,127144,1,0,4,1,10562,0.0009999999999998899
1137000,1666,2930,127956,1767,3424,126961,1,0,4,1,10563,0.001000000000000112
1138000,1606,2948,128011,1955,3459,127043,1,0,4,1,10564,0.0009999999999998899
1139000,1699,2973,127947,1725,3436,127064,0,0,4,1,10565,0.001000000000000112
1140000,1651,3060,127989,1790,3432,127177,0,0,0,1,10566,0.0009999999999998899
1141000,1588,3026,127899,1713,3422,127011,1,0,4,1,10567,0.001000000000000112
1141999,1537,2908,127846,1797,3533,127015,-1,0,-4,1,10568,0.0009989999999999721
1143000,1652,2992,127904,1802,3573,127105,-2,1,-8,1,10569,0.0010010000000000296
1144009,1635,2927,128013,1743,3277,127082,2,1,-8,1,10570,0.0010090000000000376
1145003,1626,2878,127953,1841,3409,126956,0,0,8,1,10571,0.0009939999999999394
1146002,1609,3002,127942,1907,3405,126970,0,1,0,1,10572,0.0009989999999999721
1146999,1625,2902,127783,1853,3422,127079,1,1,4,1,10573,0.0009969999999999146
1148000,1629,2980,127842,1764,3416,127102,-2,1,-8,1,10574,0.0010010000000000296
1149000,1683,2999,127832,1728,3450,126986,1,0,4,1,10575,0.001000000000000112
1150012,1563,2890,127960,1745,3419,127025,1,0,4,1,10576,0.0010120000000000129
1151007,1702,3020,127854,1690,3415,127098,0,0,4,1,10577,0.0009949999999998571
1152000,1669,2925,127907,1823,3479,127097,0,0,0,1,10578,0.0009930000000000216
1153000,1629,3016,127954,1819,3426,127021,0,0,0,1,10579,0.001000000000000112
1154000,1646,2848,127886,1820,3426,127135,2,1,8,1,10580,0.0009999999999998899
1155000,1604,2949,127915,1838,3516,127160,-1,0,-4,1,10581,0.001000000000000112
1156000,1633,2941,127918,1683,3456,126992,1,0,-4,1,10582,0.0009999999999998899
1157002,1687,3046,127854,1753,3537,127062,1,0,4,1,10583,0.0010019999999999474
1158000,1599,2963,127863,1755,3490,126946,1,0,4,1,10584,0.0009980000000000544
1159000,1702,3008,127929,1869,3467,126936,0,0,0,1,10585,0.001000000000000112
1159999,1591,2900,127905,1768,3468,127044,0,0,0,1,10586,0.0009989999999999721
1161000,1688,2950,127892,1778,3419,127076,-1,0,-4,1,10587,0.0010010000000000296
1162000,1665,2958,127823,1804,3422,127016,0,0,0,1,10588,0.0009999999999998899
1163000,1678,2879,127861,1719,3428,127154,-1,0,0,1,10589,0.001000000000000112
1164000,1617,2916,127956,1756,3507,127066,2,0,-4,1,10590,0.0009999999999998899
1165015,1581,3036,127879,1699,3370,127028,2,1,8,1,10591,0.0010149999999999881
1166000,1632,2912,127817,1803,3397,126926,0,0,0,1,10592,0.0009850000000000136
1166999,1584,3005,127874,1774,3435,127110,0,0,0,1,10593,0.0009989999999999721
1167999,1666,2958,128025,1737,3443,126953,0,0,0,1,10594,0.001000000000000112
1169000,1608,2945,127971,1813,3527,126966,0,0,0,1,10595,0.0010010000000000296
1170000,1605,2916,127829,1813,3434,126946,1,0,0,1,10596,0.0009999999999998899
1171000,1449,2894,128094,1692,3475,126942,1,0,4,1,10597,0.001000000000000112
1172000,1638,2985,127962,1750,3464,127129,0,0,0,1,10598,0.0009999999999998899
1173000,1627,2945,127847,1739,3510,126957,0,0,0,1,10599,0.001000000000000112
1173999,1575,2988,128009,1714,3388,127040,1,0,4,1,10600,0.0009989999999999721
1175000,1548,2957,127912,1759,3503,127050,0,0,4,1,10601,0.0010010000000000296
1176000,1708,2992,127847,1699,3334,127138,-1,0,0,1,10602,0.0009999999999998899
1177001,1663,2959,127948,1772,3440,127026,-1,0,-4,1,10603,0.0010010000000000296
1178000,1583,2830,127709,1723,3419,126958,1,0,4,1,10604,0.0009989999999999721
1179000,1663,2909,127920,1712,3365,127089,0,0,0,1,10605,0.001000000000000112
1180000,1639,2895,127823,1745,3442,126975,1,0,4,1,10606,0.0009999999999998899
1181000,1545,2960,127780,1658,3447,127006,0,0,4,1,10607,0.001000000000000112
1182000,1702,2924,127763,1629,3425,127111,0,0,0,1,10608,0.0009999999999998899
1183000,1541,2984,127949,1779,3446,126992,0,0,0,1,10609,0.001000000000000112
1184000,1541,2870,127837,1731,3427,127074,1,0,4,1,10610,0.0009999999999998899
1185000,1540,2986,127823,1753,3446,127087,1,0,4,1,10611,0.001000000000000112
1186000,1608,2915,127920,1745,3367,127141,0,0,0,1,10612,0.0009999999999998899
1187000,1617,2990,127985,1808,3442,127080,0,0,0,1,10613,0.001000000000000112
1188000,1510,3038,127928,1682,3500,127078,0,0,0,1,10614,0.0009999999999998899
1189001,1504,3014,127911,1782,3406,127005,0,0,0,1,10615,0.0010010000000000296
1190003,1641,2899,127902,1822,3481,127033,0,0,0,1,10616,0.0010019999999999474
1190999,1694,2928,127833,1769,3457,127188,0,0,0,1,10617,0.0009959999999999969
1191999,1556,3040,127922,1834,3377,126952,1,0,4,1,10618,0.001000000000000112
1192999,1637,2991,127889,1788,3394,127139,1,0,4,1,10619,0.0009999999999998899
1194000,1600,2905,127903,1780,3474,126872,0,0,4,1,10620,0.0010010000000000296
1195000,1626,2928,128078,1752,3362,126968,0,0,0,1,10621,0.0009999999999998899
1196000,1691,2986,127956,1790,3460,127002,0,0,0,1,10622,0.001000000000000112
1197000,1601,2924,127847,1737,3446,127041,-1,0,-4,1,10623,0.0009999999999998899
1197999,1586,3021,127930,1731,3421,127123,-1,0,-4,1,10624,0.0009990000000001942
1199000,1640,3031,127947,1689,3430,127162,1,0,-4,1,10625,0.0010009999999998076
1200000,1697,3030,128016,1808,3546,127012,0,0,4,1,10626,0.001000000000000112
1201000,1556,3034,127813,1726,3428,127029,0,0,0,1,10627,0.0009999999999998899
1202000,1577,3013,128109,1729,3486,127123,0,0,0,1,10628,0.001000000000000112
1203000,1599,3050,127842,1790,3424,127192,0,0,0,1,10629,0.0009999999999998899
1203999,1636,2918,127959,1742,3551,127077,-2,1,-8,1,10630,0.0009990000000001942
1205000,1584,2955,127823,1813,3518,127034,2,1,8,1,10631,0.0010009999999998076
1205999,1630,3008,127852,1697,3561,126967,1,0,8,1,10632,0.0009990000000001942
1207000,1623,2982,127938,1756,3437,127060,0,0,4,1,10633,0.0010009999999998076
1207999,1662,2945,127931,1810,3441,126994,0,0,0,1,10634,0.0009990000000001942
1208999,1567,2897,127887,1832,3470,127065,-2,0,-8,1,10635,0.0009999999999998899
1210000,1757,2967,127893,1755,3304,126960,0,0,0,1,10636,0.0010010000000000296
1210999,1572,3017,127779,1837,3433,127070,0,0,0,1,10637,0.0009989999999999721
1212000,1664,2942,127984,1847,3466,127005,0,0,0,1,10638,0.0010010000000000296
1213000,1587,3000,127955,1841,3501,127193,1,0,0,1,10639,0.0009999999999998899
1214000,1651,2974,127757,1787,3411,127017,1,0,4,1,10640,0.001000000000000112
1215001,1644,2905,128028,1746,3465,126992,0,0,0,1,10641,0.0010010000000000296
1216004,1628,2989,127804,1768,3415,127042,2,0,8,1,10642,0.0010029999999998651
1216999,1581,3088,127872,1845,3359,127004,0,0,0,1,10643,0.0009950000000000792
1218000,1605,3004,127850,1727,3510,127080,-1,0,0,1,10644,0.0010010000000000296
1218999,1620,2972,127947,1724,3411,126977,1,0,-4,1,10645,0.0009989999999999721
1220000,1566,2880,127879,1692,3422,127095,1,0,4,1,10646,0.0010010000000000296
1220999,1649,3051,127898,1774,3500,127073,-2,0,-8,1,10647,0.0009989999999999721
1222000,1590,2929,127833,1841,3389,127006,0,0,0,1,10648,0.0010010000000000296
1223000,1557,2956,127690,1689,3448,126960,1,0,4,1,10649,0.0009999999999998899
1224000,1600,2931,127973,1687,3426,127037,-1,0,4,1,10650,0.001000000000000112
1225000,1622,3032,127922,1693,3444,127057,0,0,-4,1,10651,0.0009999999999998899
1225999,1685,2959,127845,1775,3417,127038,0,0,0,1,10652,0.0009989999999999721
1227000,1573,3022,127958,1691,3565,127060,0,0,0,1,10653,0.0010010000000000296
1228000,1638,2935,127860,1769,3573,126969,-1,0,-4,1,10654,0.001000000000000112
1229000,1656,2866,127930,1635,3392,127155,0,1,0,1,10655,0.0009999999999998899
1230000,1604,2863,127797,1758,3453,127048,0,1,0,1,10656,0.001000000000000112
1231000,1706,3002,127932,1731,3425,126982,1,0,0,1,10657,0.0009999999999998899
1232000,1692,2955,127811,1781,3445,127050,1,0,4,1,10658,0.001000000000000112
1232999,1584,2990,127780,1740,3557,127077,-1,0,-4,1,10659,0.0009989999999999721
1234000,1513,2951,127913,1773,3498,127021,-1,0,-4,1,10660,0.0010010000000000296
1234999,1586,2860,127844,1763,3389,126933,-1,0,-4,1,10661,0.0009989999999999721
1236000,1627,2980,127927,1695,3389,127104,-1,0,-4,1,10662,0.0010010000000000296
1236999,1684,2915,127970,1816,3527,126963,1,0,-4,1,10663,0.0009989999999999721
1238000,1566,2994,127931,1818,3439,127060,1,0,4,1,10664,0.0010010000000000296
1239002,1595,2918,127879,1743,3455,126997,0,0,0,1,10665,0.0010019999999999474
1240012,1658,2918,127878,1644,3438,126993,0,0,0,1,10666,0.0010099999999999554
1241030,1588,2952,127937,1817,3417,127071,0,0,0,1,10667,0.0010179999999999634
1242000,1597,2828,127882,1880,3446,127077,0,0,0,1,10668,0.0009700000000001374
1243000,1640,2935,127914,1744,3463,127130,-1,0,0,1,10669,0.0009999999999998899
1243999,1663,2946,127780,1827,3458,127009,-1,0,-4,1,10670,0.0009989999999999721
1245000,1614,2907,127830,1697,3385,127026,0,0,0,1,10671,0.0010010000000000296
1246000,1592,2987,127940,1784,3410,126950,0,0,0,1,10672,0.001000000000000112
1247000,1687,2999,127910,1766,3503,126962,1,0,4,1,10673,0.0009999999999998899
1248000,1610,2969,127925,1745,3551,127024,1,0,4,1,10674,0.001000000000000112
1249000,1568,2904,127843,1769,3521,126997,0,0,4,1,10675,0.0009999999999998899
1250000,1639,2914,127921,1775,3492,127131,-1,0,0,1,10676,0.001000000000000112
1251000,1578,2939,127947,1771,3393,126999,-1,0,-4,1,10677,0.0009999999999998899
1252000,1699,2957,127835,1792,3472,127040,1,0,4,1,10678,0.001000000000000112
1252999,1646,2955,127975,1745,3463,126964,-1,0,-4,1,10679,0.0009989999999999721
1253999,1544,2921,127828,1782,3415,127096,1,0,4,1,10680,0.0009999999999998899
1254999,1649,2949,127829,1677,3488,126973,-1,0,4,1,10681,0.001000000000000112
1256000,1677,3058,127853,1647,3320,127122,1,0,-4,1,10682,0.0010010000000000296
1257000,1613,2949,127938,1766,3439,127103,1,0,4,1,10683,0.0009999999999998899
1258000,1569,2913,128021,1785,3355,127058,0,0,0,1,10684,0.001000000000000112
1259000,1585,2920,127906,1755,3470,127097,0,0,0,1,10685,0.0009999999999998899
1260000,1550,2893,127903,1707,3447,127045,0,0,0,1,10686,0.001000000000000112
1261001,1637,2983,127996,1807,3468,126957,3,1,0,1,10687,0.0010010000000000296
1262000,1611,3007,127884,1732,3504,127050,1,0,12,1,10688,0.0009989999999999721
1263000,1646,2962,127897,1823,3359,127032,1,0,4,1,10689,0.0009999999999998899
1264000,1559,2962,127945,1728,3465,126937,1,0,4,1,10690,0.001000000000000112
1265000,1618,2966,128018,1713,3504,127108,0,0,0,1,10691,0.0009999999999998899
1266001,1614,2927,127961,1748,3512,127074,0,0,0,1,10692,0.0010010000000000296
1267001,1582,3034,127764,1733,3423,127090,-2,0,0,1,10693,0.001000000000000112
1268002,1524,2978,127962,1692,3400,126958,-1,0,-8,1,10694,0.0010009999999998076
1269002,1556,2900,127944,1780,3420,127134,-1,0,-4,1,10695,0.001000000000000112
1269999,1691,2955,128022,1796,3358,127153,1,0,4,1,10696,0.0009969999999999146
1271000,1619,3036,127900,1760,3458,126985,0,0,0,1,10697,0.0010010000000000296
1271998,1486,2942,127864,1675,3392,127122,-1,0,-4,1,10698,0.0009980000000000544
1272999,1657,3010,127885,1747,3369,127079,0,0,-4,1,10699,0.0010010000000000296
1274000,1579,2961,127981,1749,3452,127009,1,1,0,1,10700,0.0010010000000000296
1275000,1639,2928,127750,1737,3464,127121,1,0,4,1,10701,0.0009999999999998899
1275999,1667,2996,127764,1719,3465,127020,-1,0,-4,1,10702,0.0009989999999999721
1276999,1495,2968,127895,1849,3423,127066,-1,0,-4,1,10703,0.001000000000000112
1277999,1619,3038,127869,1757,3536,126942,-2,0,-8,1,10704,0.0009999999999998899
1279000,1607,2924,127845,1752,3437,126952,0,0,-8,1,10705,0.0010010000000000296
1279998,1643,2942,127873,1749,3359,127090,0,0,0,1,10706,0.0009980000000000544
1280999,1756,2986,127947,1691,3404,126897,0,1,0,1,10707,0.0010010000000000296
1282001,1687,2951,127831,1776,3514,127026,0,0,0,1,10708,0.0010019999999999474
1282999,1583,2927,127823,1800,3461,126975,-1,0,-4,1,10709,0.0009980000000000544
1284000,1508,2944,127862,1747,3499,127064,-1,0,-4,1,10710,0.0010010000000000296
1285000,1612,2981,127830,1698,3441,127059,0,0,-4,1,10711,0.0009999999999998899
1286000,1638,2946,127937,1829,3610,127042,-1,0,0,1,10712,0.001000000000000112
1286999,1595,2815,127738,1753,3421,126838,-1,0,-4,1,10713,0.0009989999999999721
1288004,1603,2944,127825,1896,3400,127019,0,0,0,1,10714,0.0010049999999999226
1289002,1530,3011,127878,1716,3470,126955,-1,0,-4,1,10715,0.0009980000000000544
1290033,1618,2969,127871,1770,3391,127078,0,0,0,1,10716,0.0010310000000000041
1291000,1606,2962,127925,1697,3381,126997,-1,0,0,1,10717,0.0009669999999999401
1292000,1640,2956,127826,1805,3520,126982,0,0,-4,1,10718,0.001000000000000112
1292999,1640,3023,127918,1816,3439,126993,0,1,0,1,10719,0.0009989999999999721
1294000,1594,3085,127967,1709,3505,126976,0,0,0,1,10720,0.0010010000000000296
1295006,1604,2932,127820,1855,3506,127078,0,0,0,1,10721,0.0010059999999998404
1296003,1626,2998,127955,1670,3436,127252,0,0,0,1,10722,0.0009970000000001367
1297001,1567,2897,127918,1763,3418,127106,0,0,0,1,10723,0.0009979999999998324
1298001,1583,2922,127859,1773,3546,127061,0,0,0,1,10724,0.001000000000000112
1299000,1630,2902,128042,1840,3404,126901,1,1,0,1,10725,0.0009989999999999721
1300000,1652,3016,127907,1875,3423,127080,1,0,4,1,10726,0.001000000000000112
1301000,1618,3029,127886,1705,3422,127074,1,0,4,1,10727,0.0009999999999998899
1301999,1588,2911,127989,1734,3489,126905,-1,0,-4,1,10728,0.0009989999999999721
1303000,1639,2923,127846,1794,3440,127022,0,0,0,1,10729,0.0010010000000000296
1304000,1567,2876,127924,1684,3521,127100,0,0,0,1,10730,0.001000000000000112
1305000,1647,2923,127958,1758,3557,127052,0,0,0,1,10731,0.0009999999999998899
1306000,1698,2994,127761,1766,3414,127034,0,0,0,1,10732,0.001000000000000112
1307000,1644,2981,127838,1792,3507,127172,0,0,0,1,10733,0.0009999999999998899
1308000,1609,2996,127903,1757,3440,127035,0,0,0,1,10734,0.001000000000000112
1309000,1640,2948,127757,1729,3465,127023,2,0,8,1,10735,0.0009999999999998899
1310000,1549,2887,127855,1780,3455,127041,0,0,8,1,10736,0.0009999999999998899
1311000,1655,2951,128012,1723,3507,127101,0,0,0,1,10737,0.001000000000000112
1312000,1566,2988,127901,1718,3338,126948,0,0,0,1,10738,0.0009999999999998899
1313010,1555,2989,127976,1720,3415,127016,1,0,4,1,10739,0.0010100000000001774
1314007,1598,2981,128059,1639,3450,127008,0,0,0,1,10740,0.0009969999999999146
1315001,1708,2944,127851,1721,3520,127047,1,0,4,1,10741,0.0009939999999999394
1316000,1619,2921,127971,1691,3469,127184,0,0,4,1,10742,0.0009989999999999721
1317000,1623,2991,127968,1750,3456,126932,0,0,0,1,10743,0.001000000000000112
1318000,1661,2954,127843,1838,3442,127068,0,0,0,1,10744,0.0009999999999998899
1319000,1612,2960,127897,1682,3497,127151,2,0,8,1,10745,0.001000000000000112
1320000,1551,3010,127930,1786,3473,127085,0,0,0,1,10746,0.0009999999999998899
1320999,1576,3034,127873,1727,3434,127058,-1,0,-4,1,10747,0.0009990000000001942
1321999,1643,2971,127924,1829,3446,127081,0,0,-4,1,10748,0.0009999999999998899
1323000,1687,2842,127936,1731,3399,126988,0,0,0,1,10749,0.0010010000000000296
1324000,1527,2941,128070,1798,3505,127054,0,0,0,1,10750,0.0009999999999998899
1325000,1680,2941,127881,1818,3498,127158,0,0,0,1,10751,0.001000000000000112
1326006,1625,2918,128003,1717,3423,127096,2,0,8,1,10752,0.0010060000000000624
1327031,1647,2939,127880,1769,3536,127032,0,0,0,1,10753,0.0010249999999998316
1328002,1656,2911,127678,1787,3412,127184,-1,0,0,1,10754,0.0009710000000000552
1329000,1589,2982,127977,1799,3414,127125,0,0,-4,1,10755,0.0009980000000000544
1330000,1631,3039,127897,1732,3446,127084,0,0,0,1,10756,0.0009999999999998899
1331000,1668,2935,127884,1724,3407,127047,1,0,4,1,10757,0.001000000000000112
1332000,1561,2903,127951,1774,3493,127106,0,1,0,1,10758,0.0009999999999998899
1333000,1620,3015,127942,1761,3511,126929,0,0,0,1,10759,0.001000000000000112
1333999,1607,2917,128029,1770,3503,127139,-1,0,0,1,10760,0.0009989999999999721
1334999,1569,2858,127732,1764,3445,127134,-1,0,-4,1,10761,0.001000000000000112
1336000,1578,3000,127865,1774,3360,126920,-1,0,-4,1,10762,0.0010009999999998076
1337030,1602,2868,127968,1808,3426,126974,1,0,4,1,10763,0.0010300000000000864
1338003,1603,2934,127853,1751,3399,126841,-1,0,-4,1,10764,0.0009729999999998906
1339003,1512,3008,127901,1691,3492,126989,1,0,4,1,10765,0.001000000000000112
1339999,1612,3035,127794,1813,3426,126925,-1,0,-4,1,10766,0.0009959999999999969
1341000,1576,2950,127872,1629,3516,127106,-1,0,-4,1,10767,0.0010010000000000296
1342000,1553,2944,127896,1771,3503,127200,1,0,-4,1,10768,0.0009999999999998899
1343000,1692,2962,127955,1783,3404,127063,1,0,4,1,10769,0.001000000000000112
1344000,1615,2894,127760,1739,3445,126948,0,0,0,1,10770,0.0009999999999998899
1344999,1531,2915,127943,1774,3550,127070,0,1,0,1,10771,0.0009989999999999721
1346000,1531,2964,128027,1790,3502,127140,-2,1,-8,1,10772,0.0010010000000000296
1347000,1701,2942,127906,1788,3528,127141,0,0,-8,1,10773,0.001000000000000112
1348000,1599,2928,127866,1624,3443,126978,0,0,0,1,10774,0.0009999999999998899
1349000,1591,2964,127833,1761,3554,126998,0,0,0,1,10775,0.001000000000000112
1350000,1699,3003,127850,1784,3387,126862,0,0,0,1,10776,0.0009999999999998899
1351000,1590,2903,127850,1650,3463,127097,-1,0,-4,1,10777,0.001000000000000112
1352000,1716,2883,127849,1735,3466,126965,2,0,8,1,10778,0.0009999999999998899
1353000,1624,2995,127963,1751,3467,126975,1,1,8,1,10779,0.001000000000000112
1354000,1620,2891,127882,1727,3491,127047,2,0,4,1,10780,0.0009999999999998899
1355000,1668,2952,127934,1833,3528,126978,2,0,8,1,10781,0.001000000000000112
1356000,1565,2993,127881,1754,3448,127005,0,1,0,1,10782,0.0009999999999998899
1357000,1610,2930,127964,1706,3369,127042,0,0,0,1,10783,0.001000000000000112
1358000,1640,2994,127821,1692,3439,126914,0,0,0,1,10784,0.0009999999999998899
1359000,1582,2967,127931,1802,3492,127075,1,0,0,1,10785,0.001000000000000112
1360007,1667,2888,127798,1794,3397,127087,-2,1,4,1,10786,0.0010069999999999801
1361026,1650,2927,127895,1766,3428,127048,-2,0,-8,1,10787,0.0010189999999998811
1362003,1600,2989,127912,1806,3376,127075,2,0,8,1,10788,0.0009770000000000056
1363001,1639,2878,127879,1831,3471,127099,0,1,0,1,10789,0.0009980000000000544
1364000,1485,2894,128054,1698,3529,127002,0,0,0,1,10790,0.0009989999999999721
1365000,1651,2960,127836,1740,3374,126976,1,0,0,1,10791,0.001000000000000112
1366000,1603,2929,127797,1814,3489,126908,1,0,4,1,10792,0.0009999999999998899
1367000,1564,3002,127812,1700,3403,127026,1,0,4,1,10793,0.001000000000000112
1368000,1618,2930,127935,1756,3523,126995,0,0,0,1,10794,0.0009999999999998899
1369000,1571,2954,127915,1682,3479,126973,0,0,0,1,10795,0.001000000000000112
1369999,1591,2909,128053,1818,3487,127072,0,1,0,1,10796,0.0009989999999999721
1370999,1677,2945,127856,1704,3440,127045,-1,1,0,1,10797,0.0009999999999998899
1371999,1723,2935,127987,1722,3455,127079,1,0,-4,1,10798,0.001000000000000112
1373000,1539,2909,127811,1772,3452,126981,1,0,4,1,10799,0.0010010000000000296
1374002,1605,2986,127980,1714,3509,127017,0,0,0,1,10800,0.0010019999999999474
1375000,1620,3002,127922,1723,3460,127061,0,0,0,1,10801,0.0009980000000000544
1375999,1541,2998,127945,1850,3369,127127,-1,0,-4,1,10802,0.0009989999999999721
1377000,1623,2880,127852,1672,3361,127144,1,0,-4,1,10803,0.0010010000000000296
1378000,1696,2931,128017,1860,3438,127085,-1,0,4,1,10804,0.0009999999999998899
1379000,1597,2939,127935,1751,3466,126965,-1,0,-4,1,10805,0.001000000000000112
1380000,1600,3045,127811,1658,3433,126990,0,0,0,1,10806,0.0009999999999998899
1380999,1666,2852,127991,1781,3405,127185,-2,0,-8,1,10807,0.0009989999999999721
1381999,1592,2912,127998,1751,3491,127073,1,0,4,1,10808,0.001000000000000112
1383000,1671,2963,127975,1854,3485,127105,0,0,0,1,10809,0.0010010000000000296
1383999,1572,2932,127964,1831,3459,127082,-1,0,0,1,10810,0.0009989999999999721
1385000,1680,2940,127910,1731,3453,126994,1,0,-4,1,10811,0.0010010000000000296
1386002,1609,2934,127990,1789,3472,127015,1,0,4,1,10812,0.0010019999999999474
1387000,1610,3018,127907,1828,3434,127154,1,0,4,1,10813,0.0009980000000000544
1388001,1630,2807,127854,1762,3436,127117,2,0,8,1,10814,0.0010010000000000296
1389000,1563,3012,128013,1654,3501,127043,0,0,0,1,10815,0.0009989999999999721
1390002,1580,2937,127849,1774,3477,127023,1,0,0,1,10816,0.0010019999999999474
1391001,1609,2938,127979,1741,3332,127118,0,0,4,1,10817,0.0009989999999999721
1392001,1520,2860,127908,1838,3477,127089,0,0,0,1,10818,0.001000000000000112
1392999,1574,2849,127923,1824,3427,127040,-1,0,-4,1,10819,0.0009979999999998324
1394000,1590,2973,127836,1791,3474,127128,1,0,4,1,10820,0.0010010000000000296
1395000,1582,2983,127827,1775,3458,127081,0,0,0,1,10821,0.001000000000000112
1396000,1626,2905,128034,1738,3398,127112,0,0,0,1,10822,0.0009999999999998899
1397000,1591,2880,127928,1716,3440,127092,1,0,0,1,10823,0.001000000000000112
1398000,1565,2916,127802,1775,3470,127025,1,0,4,1,10824,0.0009999999999998899
1398999,1662,2843,128004,1697,3400,126995,-1,0,-4,1,10825,0.0009989999999999721
1399999,1556,3024,127918,1739,3383,126994,-1,0,-4,1,10826,0.001000000000000112
1400999,1560,3011,128027,1756,3450,127009,1,0,4,1,10827,0.0009999999999998899
1402000,1631,2953,127961,1818,3479,127069,0,0,4,1,10828,0.0010010000000000296
1403000,1540,2926,127971,1613,3377,127051,2,0,0,1,10829,0.001000000000000112
1404000,1572,2934,127930,1717,3471,126956,2,0,8,1,10830,0.0009999999999998899
1405000,1682,2955,127988,1780,3449,127070,0,0,0,1,10831,0.001000000000000112
1406000,1614,2872,128037,1737,3558,127083,0,1,0,1,10832,0.0009999999999998899
1407000,1574,2970,127852,1714,3422,127035,1,0,4,1,10833,0.001000000000000112
1408000,1714,2932,127873,1743,3382,127071,-1,0,4,1,10834,0.0009999999999998899
1409000,1642,2890,127742,1705,3462,127045,1,0,-4,1,10835,0.001000000000000112
1410000,1658,2872,128034,1755,3498,127078,1,0,4,1,10836,0.0009999999999998899
1411000,1621,2904,127799,1727,3434,127046,0,0,0,1,10837,0.001000000000000112
1412000,1676,2929,127837,1738,3456,126896,0,0,0,1,10838,0.0009999999999998899
1413000,1604,3006,127878,1799,3443,126932,0,1,0,1,10839,0.001000000000000112
1414001,1711,3023,127893,1732,3405,126960,-1,1,0,1,10840,0.0010009999999998076
1415041,1534,2949,127863,1810,3437,126938,0,1,-4,1,10841,0.001040000000000152
1416003,1638,2916,127911,1740,3380,127049,0,0,0,1,10842,0.0009619999999999074
1416999,1651,2972,127765,1753,3397,126968,0,0,0,1,10843,0.0009959999999999969
1418000,1645,2823,127714,1779,3479,126955,0,0,0,1,10844,0.0010010000000000296
1419000,1577,3004,127814,1821,3429,127014,0,0,0,1,10845,0.001000000000000112
1419999,1611,2875,127683,1746,3468,127105,-2,0,0,1,10846,0.0009989999999999721
1420999,1608,2930,127895,1716,3482,127009,0,0,-8,1,10847,0.0009999999999998899
1421999,1755,2960,127876,1796,3554,126944,0,0,0,1,10848,0.001000000000000112
1423000,1591,2855,127855,1747,3411,127024,2,0,8,1,10849,0.0010010000000000296
1424000,1607,3031,127695,1776,3436,126999,1,0,4,1,10850,0.0009999999999998899
1425000,1725,2872,127807,1737,3414,127053,1,0,4,1,10851,0.001000000000000112
1426005,1606,2970,127887,1715,3348,127049,1,0,4,1,10852,0.0010049999999999226
1427005,1645,2928,127810,1768,3464,127005,0,0,4,1,10853,0.0009999999999998899
1428000,1585,2966,127811,1828,3475,127137,0,0,0,1,10854,0.0009950000000000792
1429000,1606,2889,127816,1809,3423,127001,0,0,0,1,10855,0.0009999999999998899
1430000,1627,2938,127801,1679,3476,127108,1,1,4,1,10856,0.001000000000000112
1431000,1603,2961,127901,1799,3459,127043,-1,0,-4,1,10857,0.0009999999999998899
1431999,1591,2885,127951,1677,3486,127094,-1,0,-4,1,10858,0.0009990000000001942
1433000,1589,2914,127775,1792,3503,127151,1,0,-4,1,10859,0.0010009999999998076
1434000,1660,2929,128029,1757,3391,127043,0,0,4,1,10860,0.001000000000000112
1435000,1666,2959,127965,1715,3398,127228,0,0,0,1,10861,0.0009999999999998899
1435999,1629,2846,127824,1839,3389,127174,0,0,0,1,10862,0.0009990000000001942
1437000,1651,2885,127775,1762,3474,127039,0,0,0,1,10863,0.0010009999999998076
1438000,1660,2927,127906,1778,3503,127025,-1,0,-4,1,10864,0.001000000000000112
1439002,1607,2815,127818,1737,3410,127079,1,0,-4,1,10865,0.0010019999999999474
1440014,1704,2881,127857,1740,3435,127068,1,0,4,1,10866,0.0010120000000000129
1441001,1611,3004,127957,1836,3473,127111,1,0,4,1,10867,0.0009870000000000712
1442000,1578,2889,127807,1771,3452,127036,1,0,4,1,10868,0.0009989999999999721
1443000,1627,2960,128017,1647,3343,127140,0,0,0,1,10869,0.0009999999999998899
1443999,1545,2902,127908,1678,3385,127087,1,0,4,1,10870,0.0009990000000001942
1444999,1569,2918,127869,1760,3472,126925,0,1,4,1,10871,0.0009999999999998899
1446000,1668,2837,127930,1628,3436,127192,0,0,0,1,10872,0.0010010000000000296
1447000,1645,2885,127946,1692,3308,127053,0,0,0,1,10873,0.0009999999999998899
1447999,1600,2902,127945,1879,3461,127203,0,0,0,1,10874,0.0009990000000001942
1449000,1604,2980,127940,1825,3380,126919,2,0,8,1,10875,0.0010009999999998076
1449999,1651,2806,127899,1704,3386,127085,-1,0,-4,1,10876,0.0009990000000001942
1451001,1590,2901,127956,1702,3538,127071,-1,0,-4,1,10877,0.0010019999999999474
1452001,1627,2897,127910,1747,3497,127096,2,0,-4,1,10878,0.0009999999999998899
1453001,1631,3029,127797,1722,3488,126996,2,0,8,1,10879,0.001000000000000112
1454000,1613,2982,127901,1692,3461,126999,0,0,0,1,10880,0.0009989999999999721
1455000,1688,2948,127925,1816,3367,127001,0,0,0,1,10881,0.0009999999999998899
1455999,1568,2938,127897,1815,3391,127063,-2,0,-8,1,10882,0.0009990000000001942
1457000,1592,2942,127865,1757,3405,126919,0,0,-8,1,10883,0.0010009999999998076
1458000,1591,2910,127944,1703,3444,127010,-1,0,0,1,10884,0.001000000000000112
1458999,1648,2941,127929,1795,3471,127073,-1,0,-4,1,10885,0.0009989999999999721
1460000,1624,2925,127932,1807,3430,127122,1,0,4,1,10886,0.0010010000000000296
1461000,1614,3032,127844,1800,3477,127053,2,1,8,1,10887,0.0009999999999998899
1462000,1628,2905,127887,1701,3431,127121,0,0,0,1,10888,0.001000000000000112
1463000,1546,2879,127823,1727,3433,127106,0,0,0,1,10889,0.0009999999999998899
1464006,1551,2913,127899,1844,3409,126999,-2,0,0,1,10890,0.0010060000000000624
1465006,1659,2995,127845,1787,3402,127015,-2,0,-8,1,10891,0.001000000000000112
1466001,1606,3027,127907,1750,3410,127104,-1,0,-4,1,10892,0.0009949999999998571
1467001,1590,2905,127758,1847,3487,127030,-1,0,-4,1,10893,0.001000000000000112
1467999,1637,2863,127916,1819,3382,127038,2,0,8,1,10894,0.0009979999999998324
1469001,1614,3021,127830,1840,3464,126942,-1,0,8,1,10895,0.0010020000000001694
1470001,1709,2896,127896,1812,3358,126991,2,0,-4,1,10896,0.0009999999999998899
1471000,1622,3017,127857,1713,3353,127083,2,0,8,1,10897,0.0009989999999999721
1472000,1621,2909,127759,1755,3394,127021,0,0,0,1,10898,0.001000000000000112
1473000,1601,2884,127859,1698,3419,127010,-1,0,-4,1,10899,0.0009999999999998899
1473999,1603,2878,127895,1875,3409,126962,1,0,4,1,10900,0.0009989999999999721
1475000,1651,2843,127954,1725,3537,126943,0,0,0,1,10901,0.0010010000000000296
1476000,1644,2949,127813,1677,3505,127057,1,0,0,1,10902,0.001000000000000112
1477000,1698,2960,128058,1761,3500,127025,0,0,4,1,10903,0.0009999999999998899
1478000,1609,2930,127909,1727,3372,127092,0,0,0,1,10904,0.001000000000000112
1478999,1638,2985,127939,1616,3431,127182,-2,1,-8,1,10905,0.0009989999999999721
1480000,1603,2897,127898,1792,3418,127065,1,0,4,1,10906,0.0010010000000000296
1481000,1603,2935,127912,1684,3439,127118,1,0,4,1,10907,0.0009999999999998899
1482000,1721,2884,127901,1691,3394,127216,0,0,4,1,10908,0.001000000000000112
1483000,1601,2971,127982,1676,3458,127158,0,0,0,1,10909,0.0009999999999998899
1484000,1550,2860,127781,1748,3542,127054,0,0,0,1,10910,0.001000000000000112
1485000,1629,2934,127866,1746,3407,126980,0,0,0,1,10911,0.0009999999999998899
1486000,1606,2938,128094,1716,3386,127042,-2,0,-8,1,10912,0.001000000000000112
1486999,1659,3008,127888,1733,3469,127009,-1,0,-4,1,10913,0.0009989999999999721
1488000,1668,2933,128008,1815,3468,127126,-1,0,-4,1,10914,0.0010010000000000296
1489009,1754,3055,127883,1709,3352,127057,-1,0,-4,1,10915,0.0010090000000000376
1490001,1669,2993,127887,1712,3495,127257,-1,1,-4,1,10916,0.0009919999999998819
1491000,1624,2917,127960,1788,3530,126983,1,1,4,1,10917,0.0009989999999999721
1491999,1636,2880,127982,1897,3414,127036,-1,0,-4,1,10918,0.0009989999999999721
1493000,1627,2927,127843,1757,3437,127004,0,0,0,1,10919,0.0010010000000000296
1494000,1606,2932,128110,1719,3422,127161,0,0,0,1,10920,0.001000000000000112
1494999,1653,2997,127989,1843,3439,127066,0,1,0,1,10921,0.0009989999999999721
1496000,1623,2924,127943,1738,3480,127084,0,0,0,1,10922,0.0010010000000000296
1497000,1692,3008,127935,1809,3421,127054,0,0,0,1,10923,0.0009999999999998899
1498000,1642,2939,127941,1746,3426,127076,1,0,4,1,10924,0.001000000000000112
1499000,1669,2941,128011,1770,3383,127022,0,1,0,1,10925,0.0009999999999998899
1500000,1647,3003,127870,1818,3459,127112,0,1,0,1,10926,0.001000000000000112
1501000,1639,2967,127945,1746,3451,127017,-1,0,0,1,10927,0.0009999999999998899
1501999,1606,2949,128010,1849,3438,127051,-1,0,-4,1,10928,0.0009989999999999721
1503001,1585,2931,127917,1726,3448,127073,-1,0,-4,1,10929,0.0010020000000001694
1504000,1654,2982,127958,1654,3391,127103,0,0,0,1,10930,0.0009989999999999721
1505001,1656,2920,127946,1750,3510,126990,2,1,8,1,10931,0.0010010000000000296
1506001,1694,3004,128040,1755,3488,127148,-1,1,8,1,10932,0.0009999999999998899
1507001,1635,2932,127809,1749,3429,127127,0,0,-4,1,10933,0.001000000000000112
1508000,1579,2942,127920,1737,3308,127017,0,0,0,1,10934,0.0009989999999999721
1509000,1713,2945,127840,1849,3476,127112,0,0,0,1,10935,0.0009999999999998899
1510000,1553,2922,127855,1862,3550,127147,2,0,8,1,10936,0.001000000000000112
1511000,1606,2876,127826,1707,3431,127051,0,0,0,1,10937,0.0009999999999998899
1512000,1632,2979,127919,1829,3495,127043,0,0,0,1,10938,0.001000000000000112
1513000,1623,2978,127828,1761,3449,127114,0,0,0,1,10939,0.0009999999999998899
1514000,1677,2953,127812,1822,3468,127066,0,0,0,1,10940,0.001000000000000112
1515000,1680,2932,127782,1753,3417,126972,0,0,0,1,10941,0.0009999999999998899
1516000,1686,2985,127837,1716,3401,127034,1,0,4,1,10942,0.001000000000000112
1517000,1663,2902,127809,1780,3553,127162,0,0,0,1,10943,0.0009999999999998899
1518000,1599,2947,127757,1757,3470,127016,0,0,0,1,10944,0.001000000000000112
1518999,1648,2955,127795,1837,3409,126972,0,0,0,1,10945,0.0009989999999999721
1519999,1632,2910,127976,1847,3444,126976,1,0,0,1,10946,0.0009999999999998899
1521000,1643,2824,127779,1824,3412,127084,1,0,4,1,10947,0.0010010000000000296
1521999,1554,2979,127870,1774,3431,127124,-1,1,-4,1,10948,0.0009989999999999721
1523000,1628,2881,127881,1751,3449,127002,0,0,0,1,10949,0.0010010000000000296
1523999,1632,2984,127775,1771,3500,126970,-1,0,-4,1,10950,0.0009989999999999721
1524999,1644,2957,127762,1826,3430,127006,-2,0,-4,1,10951,0.001000000000000112
1526000,1628,2987,127929,1799,3458,127043,0,0,-8,1,10952,0.0010010000000000296
1527000,1547,2997,127945,1742,3436,127009,0,1,0,1,10953,0.0009999999999998899
1528003,1593,2938,127829,1683,3411,126984,-1,0,-4,1,10954,0.0010030000000000872
1529008,1627,2873,127898,1808,3435,127002,0,0,0,1,10955,0.0010049999999999226
1530011,1649,2947,127789,1701,3422,127027,1,0,4,1,10956,0.0010030000000000872
1531000,1603,3025,127744,1765,3393,127073,2,0,4,1,10957,0.0009889999999999066
1532000,1524,2929,127813,1788,3416,127210,1,0,8,1,10958,0.001000000000000112
1533000,1626,2998,127965,1820,3452,127103,1,0,4,1,10959,0.0009999999999998899
1533999,1525,2954,127855,1693,3473,126986,-1,0,-4,1,10960,0.0009989999999999721
1535002,1506,2936,127843,1747,3469,126987,-1,1,-4,1,10961,0.0010030000000000872
1536002,1561,2871,127982,1671,3447,127036,-1,0,-4,1,10962,0.0009999999999998899
1537001,1643,2952,127768,1746,3433,127135,0,0,-4,1,10963,0.0009989999999999721
1538000,1673,2915,127889,1713,3476,127050,1,1,0,1,10964,0.0009990000000001942
1539001,1596,2921,127940,1730,3414,126920,1,0,4,1,10965,0.0010009999999998076
1539999,1596,2987,127911,1836,3422,127073,1,0,4,1,10966,0.0009980000000000544
1541000,1652,2938,127858,1763,3417,126947,0,0,0,1,10967,0.0010010000000000296
1541999,1644,2878,127919,1773,3442,127018,1,0,4,1,10968,0.0009989999999999721
1542999,1537,2854,127828,1727,3462,127155,0,0,4,1,10969,0.001000000000000112
1544000,1686,2864,127943,1758,3449,126949,1,0,0,1,10970,0.0010010000000000296
1545000,1615,2836,127909,1817,3478,126936,1,0,4,1,10971,0.0009999999999998899
1546001,1654,2951,127851,1648,3411,127054,0,0,0,1,10972,0.0010010000000000296
1547000,1581,2955,127862,1699,3431,127049,1,0,4,1,10973,0.0009989999999999721
1547999,1601,2984,127853,1734,3496,126902,-2,0,-8,1,10974,0.0009989999999999721
1549000,1635,3083,127953,1782,3509,127106,-1,0,-8,1,10975,0.0010010000000000296
1550000,1688,2863,127943,1672,3433,127039,0,0,-4,1,10976,0.0009999999999998899
