t_us,ax,ay,az,ax1,ay1,az1,shunt_raw,bus_raw,curr_raw,pg_rpm,seq,dt
0,10674,3846,129117,3923,513,125063,704,19134,2883,0,7913,
998,4986,-11746,124365,-3858,-16210,134062,867,19134,3551,1,7914,0.000998
1998,8894,-9401,127855,-9705,-10775,131905,789,19174,3551,0,7915,0.0009999999999999998
2998,2981,3154,127004,12509,1480,125652,739,19148,3232,0,7916,0.001
3998,1515,10536,130024,-13011,4974,124337,739,19116,3027,1,7917,0.001
4998,6103,-3027,129537,-19273,741,122591,564,19158,2310,1,7918,0.001
5998,3842,-6589,128970,18096,-16876,142334,911,19155,3731,0,7919,0.001
6999,-666,-18314,125898,-2492,-13239,126814,826,19155,3383,1,7920,0.0010010000000000002
7998,-16029,11110,128250,-41072,2999,121453,562,19119,3383,1,7921,0.0009989999999999999
8998,10254,14367,131462,2424,19254,122264,681,19151,2302,0,7922,0.0009999999999999992
9998,3891,21015,130026,9492,13996,120803,681,19155,2789,0,7923,0.0010000000000000009
10999,235,177,125232,-13734,3931,125774,910,19141,3727,1,7924,0.0010010000000000002
12000,8800,2418,127903,-6677,-5073,123911,676,19131,2769,0,7925,0.0010010000000000002
12998,15850,7778,128047,10477,7745,124758,625,19145,2560,0,7926,0.0009979999999999989
14000,9445,4478,132997,5584,174,129388,722,19145,2560,1,7927,0.0010019999999999994
15000,14598,-943,132637,-2432,-59,131003,745,19177,2957,1,7928,0.0010000000000000009
15998,2072,-2602,129510,864,-3558,130736,745,19127,3051,0,7929,0.0009979999999999989
16998,14141,3472,129377,2654,1332,125780,727,19127,2978,1,7930,0.0010000000000000009
17998,9572,4997,124884,1998,-1081,124775,696,19170,2851,1,7931,0.0010000000000000009
19001,16278,8430,129151,2938,4297,124019,798,19171,3268,0,7932,0.0010030000000000004
19998,14833,-277,127517,365,-6097,127103,773,19171,3268,1,7933,0.0009969999999999979
20998,52,-6083,126399,12084,-11420,132884,572,19104,3166,1,7934,0.0010000000000000009
21999,14744,-14617,127165,-16656,-14828,134560,572,19162,2343,0,7935,0.0010009999999999984
22998,-4539,1815,126677,10097,5799,123131,858,19159,3514,0,7936,0.0009989999999999999
23998,4081,6468,128779,-4732,-3122,124720,816,19150,3342,1,7937,0.0010000000000000009
24998,5902,-316,129391,-9018,6639,119815,630,19139,2580,1,7938,0.0010000000000000009
25998,5369,-1751,129127,21911,-20900,143055,887,19139,2580,0,7939,0.0010000000000000009
26999,-4079,-15349,124723,-27228,-4722,119942,967,19151,3633,1,7940,0.0010009999999999984
27998,-12896,7551,128810,-28991,2935,124184,967,19176,3961,1,7941,0.0009989999999999999
28998,8484,15590,133412,25123,21967,122835,675,19150,2765,0,7942,0.0010000000000000009
29998,4273,10040,126642,-12141,-7058,125495,711,19130,2912,0,7943,0.0010000000000000009
30999,-11,8670,127268,-22538,17959,115106,1135,19194,4649,1,7944,0.0010009999999999984
31999,10157,-70,126086,10192,-10741,130991,765,19194,4649,0,7945,0.0010000000000000009
32998,16310,14868,127874,8237,15138,118411,733,19145,3133,0,7946,0.0009989999999999999
33998,10062,4200,133855,-7561,-5319,134137,733,19120,3002,1,7947,0.0010000000000000009
35000,14468,-2901,131944,7111,-7692,128000,507,19161,2077,0,7948,0.001001999999999996
35998,2244,-3707,129879,-5629,-4069,132845,895,19165,3666,0,7949,0.0009979999999999989
36998,12390,1462,130099,2296,-958,127108,797,19137,3264,1,7950,0.0010000000000000009
37998,10613,2695,124197,6005,-903,125433,589,19137,2412,1,7951,0.0010000000000000009
38998,15510,11889,129255,933,12614,121826,735,19153,2412,0,7952,0.0010000000000000009
40001,12699,2218,127722,4750,-4071,125869,871,19153,3010,1,7953,0.001002999999999997
40998,2104,-6824,126322,-6399,-11330,131659,871,19147,3567,1,7954,0.0009970000000000048
41998,14140,-17639,126691,-2849,-17344,135870,673,19127,2756,0,7955,0.0010000000000000009
43000,-5162,2050,126401,12678,-221,126872,710,19145,2908,0,7956,0.001001999999999996
43998,6710,2500,127284,-24576,-1265,122764,960,19145,3932,1,7957,0.0009979999999999989
44998,6079,7854,133042,-9435,11053,120562,696,19190,3932,1,7958,0.0010000000000000009
45999,6127,-6493,126687,24070,-18525,141703,664,19103,2851,0,7959,0.0010010000000000019
46998,-7124,-12525,125674,-27885,-7769,122578,664,19128,2720,1,7960,0.0009989999999999999
47998,-7185,3972,129212,-31310,-1193,125142,865,19173,3543,1,7961,0.0010000000000000009
49001,6877,18390,132868,26569,22590,121086,780,19174,3195,0,7962,0.001002999999999997
49998,6972,10475,127654,-10937,-512,125770,777,19174,3182,0,7963,0.0009970000000000048
50998,-1580,6308,128085,-21041,9342,119303,864,19112,3182,1,7964,0.000999999999999994
51998,8873,-2520,124888,6906,-5044,129036,827,19161,3539,0,7965,0.0010000000000000009
52998,15438,20323,130138,10886,15472,118628,827,19165,3387,1,7966,0.0010000000000000009
53998,11101,1871,131872,-5988,-4782,131435,797,19155,3264,1,7967,0.0010000000000000009
54998,13169,-1317,132165,5267,-2565,127153,653,19140,2674,0,7968,0.0010000000000000009
55998,3270,-5515,130186,-2540,-8260,134557,804,19155,3293,0,7969,0.0010000000000000009
57000,12087,-85,129647,2729,-2986,129342,916,19155,3293,1,7970,0.001001999999999996
57998,9789,3660,124862,1053,-2674,126130,660,19184,3752,1,7971,0.0009979999999999989
58998,15237,13079,128876,2517,13953,120719,660,19138,2703,0,7972,0.0010000000000000009
60000,11507,6118,127006,6539,5113,124455,660,19142,2703,1,7973,0.0010020000000000029
61000,5964,-9295,125827,-1457,-14077,136955,1026,19193,4202,1,7974,0.0010000000000000009
61999,11673,-18733,125385,-7379,-19318,131687,755,19142,3092,0,7975,0.0009989999999999999
62998,-2479,3339,126777,12987,-1673,125892,727,19142,3092,0,7976,0.0009989999999999999
63998,4999,3934,126727,-19325,1472,120221,687,19126,2978,1,7977,0.0010000000000000009
64998,8629,11392,134542,-14762,14519,125841,687,19173,2814,0,7978,0.0010000000000000009
65998,3935,-12279,125049,25810,-18015,139835,822,19143,3367,0,7979,0.0010000000000000009
67001,-3252,-10144,126062,-16350,-1824,120069,788,19102,3227,1,7980,0.00100299999999999
67998,-6279,3874,129253,-36933,4643,126721,569,19158,2330,1,7981,0.0009970000000000118
68998,4858,20373,132364,18197,25111,115828,724,19158,2330,0,7982,0.0010000000000000009
69998,6106,13027,128200,-6917,-2048,129400,856,19149,2965,0,7983,0.000999999999999987
70998,-268,4190,128299,-18859,5438,121134,856,19113,3506,1,7984,0.0010000000000000009
71998,10385,-3692,123454,19142,-4911,127905,597,19144,2445,0,7985,0.0010000000000000009
72998,14573,18799,129689,-1874,17176,118737,685,19144,2806,1,7986,0.0010000000000000009
73998,11762,5246,131845,-7739,-4248,131013,835,19182,3420,1,7987,0.0010000000000000009
75000,15778,-343,132259,13230,-7089,132071,709,19182,3420,0,7988,0.0010020000000000029
75998,2797,-6494,129998,-9058,-4356,134411,644,19111,2904,0,7989,0.0009979999999999989
76998,9421,844,129091,6316,-3240,126448,644,19132,2638,1,7990,0.0010000000000000009
78000,8733,4762,124477,3562,6776,123640,731,19177,2994,1,7991,0.0010020000000000029
78998,17325,13963,129786,-1306,5565,125589,735,19163,3010,0,7992,0.0009979999999999989
79998,13227,-361,126743,8862,-3675,124583,746,19114,3055,1,7993,0.0010000000000000009
80998,4817,-8483,126912,-8168,-17320,134854,724,19114,3055,1,7994,0.0010000000000000009
81998,11175,-16554,125180,6764,-7878,128670,905,19160,2965,0,7995,0.0010000000000000009
82998,-3514,9014,127224,366,682,128803,905,19169,3707,0,7996,0.0010000000000000009
83998,5075,-24,125400,-24929,1257,122230,781,19141,3199,1,7997,0.000999999999999987
84998,6663,15057,135819,-3689,7608,121277,584,19154,2392,0,7998,0.0010000000000000009
85998,4855,-19345,124246,13718,-26240,143897,891,19156,3649,0,7999,0.0010000000000000009
86998,-5884,-6880,127735,-24121,-6137,119794,911,19156,3731,1,8000,0.0010000000000000009
87998,-3049,-2518,128074,-21679,-759,129418,677,19148,3731,0,8001,0.0010000000000000009
88998,2511,29110,132607,15856,33372,112322,672,19134,2773,0,8002,0.0010000000000000009
90000,7263,13801,127529,-14484,-2144,128971,672,19141,2752,1,8003,0.0010020000000000029
90998,-1423,4543,127767,-16050,5707,119868,1043,19171,4272,1,8004,0.0009979999999999989
92000,10623,-7076,122863,11378,-10149,129638,731,19143,2994,0,8005,0.0010020000000000029
92998,17220,18297,131229,6685,13658,120304,716,19143,2933,1,8006,0.0009979999999999989
93998,10795,891,130101,-2795,-3313,129741,607,19135,2933,1,8007,0.0010000000000000009
94998,18563,2577,132396,3665,-4725,129355,827,19163,2486,0,8008,0.0010000000000000009
95998,-1491,-2281,129653,-5273,-2876,133744,827,19145,3387,0,8009,0.0010000000000000009
97000,10780,497,128038,-4852,-4398,126883,768,19123,3146,1,8010,0.001001999999999989
98000,6315,8085,126380,10146,3772,124843,494,19165,2023,0,8011,0.0010000000000000009
98998,15911,8664,128972,2946,3722,126013,737,19163,3019,0,8012,0.0009979999999999989
99998,15787,-9101,122790,1817,-11476,126450,832,19163,3019,1,8013,0.0010000000000000009
100998,2318,319,129919,-689,-1057,125021,632,19135,3408,1,8014,0.0010000000000000009
101998,17314,-8506,124295,3791,-11893,134785,632,19136,2588,0,8015,0.0010000000000000009
102999,-6311,9517,127793,-5421,5514,122503,781,19157,3199,1,8016,0.0010010000000000019
103998,5962,5894,129883,-18413,-1183,125627,910,19192,3727,1,8017,0.0009989999999999999
104998,1364,-8109,130334,-1187,-10167,132662,664,19120,2720,0,8018,0.0010000000000000009
105999,1845,-18135,126163,12769,-19173,135640,793,19120,2720,0,8019,0.0010010000000000019
107000,-9407,-7798,126830,-32134,-10923,127601,1032,19138,3248,1,8020,0.0010010000000000019
108000,4148,20625,127997,-16911,22152,111462,1032,19187,4227,0,8021,0.0010000000000000009
108999,954,35539,133235,18654,28686,121361,734,19161,3006,0,8022,0.0009989999999999999
109998,8513,-3757,122806,-17080,-8830,124057,752,19120,3080,1,8023,0.0009989999999999999
110998,-4256,1140,129033,-9250,1048,128595,885,19170,3625,1,8024,0.0010000000000000009
111998,11649,-5964,125458,3499,-9480,125638,864,19170,3625,0,8025,0.0010000000000000009
112998,15649,19832,131468,5586,13597,124681,775,19174,3539,1,8026,0.0010000000000000009
113998,13520,463,130411,-2424,-2791,129930,775,19156,3174,1,8027,0.000999999999999987
114998,11563,7904,130466,4631,-1790,128978,619,19149,2535,0,8028,0.0010000000000000009
115998,8247,-1841,128185,-3976,2821,129637,864,19160,3539,0,8029,0.0010000000000000009
116998,5508,2215,128294,4369,-2338,127063,867,19160,3551,1,8030,0.0010000000000000009
117998,16229,2865,123785,-4870,1261,127677,653,19160,3551,0,8031,0.0010000000000000009
118998,16187,8170,128519,9674,3329,126118,632,19135,2674,0,8032,0.0010000000000000009
119998,6056,2780,129433,1300,-6763,126661,632,19144,2588,1,8033,0.0010000000000000009
120999,7730,-18744,123428,-11219,-15696,134156,997,19188,4083,1,8034,0.0010010000000000019
121998,8294,-3738,127540,8532,1565,128666,719,19124,2945,0,8035,0.0009989999999999999
122998,606,10823,127379,8842,4757,125651,692,19141,2834,1,8036,0.0010000000000000009
123998,421,3182,123933,-39424,-1937,121122,726,19141,2834,1,8037,0.0010000000000000009
124998,10638,2714,134469,4391,-2362,129632,776,19177,2973,0,8038,0.0010000000000000009
125998,-800,-22046,123498,18489,-25750,142111,765,19127,3178,0,8039,0.0010000000000000009
127000,-967,-289,127026,-26645,7941,115055,765,19115,3133,1,8040,0.0010020000000000029
127998,-10741,9422,129361,-28843,4768,127096,680,19165,2785,0,8041,0.0009979999999999989
128998,13812,23391,129464,24892,28988,114895,713,19154,2920,0,8042,0.0010000000000000009
129999,884,11107,126111,-9017,-5639,130039,828,19154,3391,1,8043,0.0010010000000000019
131000,495,4806,128120,-23084,7408,118228,629,19089,3391,1,8044,0.0010010000000000019
131998,8588,-7933,123955,11457,-11246,131180,758,19143,2576,0,8045,0.0009979999999999989
132998,18577,19683,131257,7720,13011,123792,758,19157,3105,1,8046,0.0010000000000000009
134000,9795,2298,130480,-5553,-243,129364,885,19193,3625,1,8047,0.0010019999999999751
135000,14571,2165,130476,6557,-6389,128419,691,19115,2830,0,8048,0.0010000000000000009
135998,3368,-4019,128280,-8251,-2629,132600,707,19115,2896,0,8049,0.0009979999999999989
136998,13182,3854,127627,11157,829,126308,857,19145,2896,1,8050,0.0010000000000000009
137998,9590,6190,123057,6176,6065,124372,704,19186,3510,0,8051,0.0010000000000000009
138998,17667,14729,128455,-10472,5853,122740,704,19149,2883,0,8052,0.0010000000000000009
139998,10046,-5487,125753,9749,-8156,128854,721,19126,2953,1,8053,0.0010000000000000009
140998,243,-7398,128587,-1008,-11280,132430,773,19166,3166,1,8054,0.0010000000000000009
141998,16258,-17263,125094,-9705,-22233,138857,842,19166,3449,0,8055,0.0010000000000000009
142999,-7280,9591,127121,23738,12825,117719,760,19173,3449,1,8056,0.0010010000000000019
143998,8058,9757,125294,-32192,-2821,126093,518,19114,3113,1,8057,0.0009989999999999999
144998,9605,-853,129855,-13834,4635,119922,518,19159,2122,0,8058,0.0010000000000000009
145998,1933,-5128,128465,26750,-15827,141715,971,19172,3977,0,8059,0.0010000000000000009
146998,-4807,-13620,123610,-23562,-12421,125516,858,19140,3514,1,8060,0.0010000000000000009
147998,-10509,10253,129729,-34554,7212,117779,640,19137,2621,0,8061,0.0010000000000000009
148998,8200,23089,132831,25679,20053,126923,628,19137,2621,0,8062,0.0010000000000000009
149999,4095,-2001,121098,-7324,-7615,124938,975,19148,2572,1,8063,0.0010010000000000019
150998,87,20888,132096,-24219,22080,114262,975,19146,3993,1,8064,0.0009989999999999999
152000,12072,-8791,122160,7831,-13758,133727,701,19135,2871,0,8065,0.0010020000000000029
152999,19104,22081,128229,12771,16215,115167,684,19145,2801,1,8066,0.0009989999999999999
154000,6917,962,133187,-8310,-4856,136236,688,19165,2818,1,8067,0.0010010000000000019
154998,12969,-7538,127430,1560,-11626,128839,788,19165,2818,0,8068,0.0009979999999999989
155998,5297,317,130850,-4621,440,131151,755,19145,3227,0,8069,0.0010000000000000009
156998,9057,4612,128867,6385,-821,125594,755,19114,3092,1,8070,0.0010000000000000009
157998,13667,5575,120211,5291,41,120030,560,19167,2294,0,8071,0.0010000000000000009
158998,17467,16037,129400,-1585,12290,128877,786,19163,3219,0,8072,0.0010000000000000009
159998,10858,-1785,125644,8243,-5354,126886,799,19114,3272,1,8073,0.0010000000000000009
160998,2379,-9430,127447,-5133,-12297,138391,563,19114,3272,1,8074,0.0010000000000000009
161998,7727,-13546,127911,-3919,-2721,130164,765,19153,2306,0,8075,0.0010000000000000009
162998,-4128,7591,124882,9765,1596,124188,765,19158,3133,1,8076,0.0010000000000000009
163998,8658,3500,125153,-25097,8601,121673,850,19161,3481,1,8077,0.0010000000000000009
164998,8669,11771,134455,-5861,-2710,130980,650,19128,2662,0,8078,0.0010000000000000009
165998,3876,-18384,123123,-266,-18282,133288,807,19142,3305,0,8079,0.0009999999999999731
167000,-10945,-2407,127110,-37621,-1659,123618,1051,19142,3305,1,8080,0.0010020000000000029
167999,700,7003,129940,1017,13550,123566,728,19195,4305,0,8081,0.0009989999999999999
169000,610,25847,129240,7790,20288,119878,728,19153,2982,0,8082,0.0010010000000000019
169998,4390,3873,124908,-18292,977,127552,741,19129,3035,1,8083,0.0009979999999999989
170998,469,8964,129271,-4929,-573,123351,1033,19181,4231,1,8084,0.0010000000000000009
171999,13232,-3956,122060,18326,6954,122544,816,19157,3342,0,8085,0.0010010000000000019
172999,19579,22751,130282,-3603,6865,125729,756,19157,3342,1,8086,0.0010000000000000009
173998,9727,-2375,130227,-10595,-3356,131281,585,19135,3096,1,8087,0.0009989999999999999
174998,12143,-1713,129631,13598,-1334,130999,585,19159,2396,0,8088,0.0010000000000000009
175998,1924,-593,129319,1385,-2670,134039,954,19165,3907,0,8089,0.0010000000000000009
176998,7031,-2214,123963,-4995,-1071,123098,824,19157,3375,1,8090,0.0010000000000000009
177998,14489,14188,123368,2893,11466,122500,605,19146,2478,0,8091,0.0010000000000000009
178998,20552,11286,127804,4899,592,128274,684,19146,2801,0,8092,0.0010000000000000009
179998,10262,-345,125959,7822,-2404,122540,938,19147,2801,1,8093,0.0010000000000000009
181002,4399,-17354,126523,-7578,-23979,139744,695,19164,3842,1,8094,0.0010040000000000049
181998,3958,-2524,127985,13692,597,128286,695,19124,2847,0,8095,0.0009959999999999969
182998,-1842,1841,123323,-11052,-7172,130566,627,19142,2568,1,8096,0.0010000000000000009
183998,2271,11424,129446,-29806,15955,114326,815,19184,3338,1,8097,0.0010000000000000009
185001,8049,4147,131177,16591,-14678,137074,736,19184,3014,0,8098,0.0010030000000000039
185998,-2709,-20015,123462,1377,-11519,129319,725,19120,3014,0,8099,0.0009969999999999979
186998,-7348,-757,128527,-34723,-10795,127990,791,19114,2969,1,8100,0.0010000000000000009
187998,1951,10422,126875,1014,22739,117786,791,19174,3240,0,8101,0.0010000000000000009
188998,5591,35261,130474,6555,22053,119266,766,19161,3137,0,8102,0.0010000000000000009
189998,1836,-4916,124277,-16345,-8614,131391,799,19101,3272,1,8103,0.0010000000000000009
190998,-1521,2180,127770,-7862,860,120795,673,19148,2756,1,8104,0.0010000000000000009
191998,11248,-1061,125617,10965,37,128376,752,19148,2756,0,8105,0.0010000000000000009
193001,17834,21682,130163,-4454,11035,121893,844,19157,3080,1,8106,0.0010029999999999761
193998,12787,490,129960,174,1572,128747,844,19183,3457,1,8107,0.0009970000000000256
194998,9337,-308,127781,8043,-8265,134050,675,19129,2765,0,8108,0.0010000000000000009
195998,10203,-2000,127685,-5783,1068,127494,787,19144,3223,0,8109,0.0009999999999999731
197000,4440,2763,126654,10352,-1883,127773,974,19189,3989,1,8110,0.0010020000000000029
198000,17797,6839,123021,-2666,4759,124763,692,19189,3989,0,8111,0.0010000000000000009
198998,17995,9718,127679,-1592,3712,125900,709,19149,2834,0,8112,0.0009979999999999989
199998,4228,-1387,127890,12269,-6554,127478,709,19134,2904,1,8113,0.0010000000000000009
200998,463,-17714,124344,-16183,-20856,132847,866,19169,3547,1,8114,0.0010000000000000009
201998,7588,-1755,127929,8845,-2421,129568,793,19146,3248,0,8115,0.0010000000000000009
202998,1886,10108,124693,8081,862,128277,744,19123,3047,1,8116,0.0010000000000000009
203998,7635,7284,125404,-29357,6862,116298,547,19123,3047,1,8117,0.0010000000000000009
204998,7135,5493,133548,-671,-2371,145490,905,19167,2240,0,8118,0.0010000000000000009
205998,-1804,-24105,123237,14235,-24738,125045,905,19155,3707,0,8119,0.0010000000000000009
206998,-12325,-2276,127293,-30134,-7672,128016,823,19108,3371,1,8120,0.0010000000000000009
207998,1087,15939,129782,-19433,11452,115482,557,19149,2281,0,8121,0.0010000000000000009
208999,4642,30618,127722,17927,16982,120976,674,19147,2761,0,8122,0.0010010000000000019
210012,3690,2631,124676,-13529,-532,128410,914,19147,3743,1,8123,0.0010130000000000139
211001,-238,3294,128531,-15912,-8555,125410,665,19119,3743,1,8124,0.0009889999999999899
212000,12244,-4138,123757,11496,11569,123921,665,19118,2724,0,8125,0.0009989999999999999
212998,18745,20778,131622,3617,288,128323,623,19151,2552,1,8126,0.0009979999999999989
213999,11722,1198,129677,2258,6548,126055,712,19173,2916,1,8127,0.0010010000000000019
214998,8015,-3727,127778,3516,-8468,135589,752,19125,3080,0,8128,0.0009989999999999999
215998,7497,-1053,129135,1412,1108,126897,734,19125,3080,0,8129,0.0010000000000000009
216998,8137,1543,125437,2391,207,127524,710,19128,3006,1,8130,0.0010000000000000009
217998,15671,11709,123712,1345,9829,121242,710,19167,2908,0,8131,0.0010000000000000009
218998,18922,9460,127238,1480,3114,126689,803,19168,3289,0,8132,0.0010000000000000009
219999,7818,-1891,126571,10202,-9098,131486,771,19101,3158,1,8133,0.0010010000000000019
220998,-1011,-14556,127165,-11436,-16360,133917,562,19152,2302,1,8134,0.0009989999999999999
221998,12897,-12089,124900,8596,-8606,133943,857,19152,3510,0,8135,0.0010000000000000009
222998,-8972,13298,125757,-24,13292,118767,818,19157,3510,1,8136,0.0010000000000000009
223998,10134,6733,124511,-37262,510,123390,623,19155,3350,1,8137,0.0010000000000000009
224998,7903,5069,131923,18001,808,130711,623,19139,2552,0,8138,0.0010000000000000009
225998,591,-14371,125976,9879,-20497,136137,806,19155,3301,0,8139,0.0009999999999999731
226998,-6351,-5008,125027,-36985,-2040,122634,969,19169,3969,1,8140,0.0010000000000000009
227998,-1914,15496,130111,-9646,13992,121068,694,19169,2842,0,8141,0.0010000000000000009
228998,5038,20532,128477,17363,14378,125171,716,19150,2842,0,8142,0.0010000000000000009
229998,1886,-775,122660,-17590,5500,123444,1142,19130,2933,1,8143,0.0010000000000000009
230998,-516,19796,132089,-9134,6580,121724,1142,19201,4677,1,8144,0.0010000000000000009
231998,12469,-6211,121362,14497,2443,125086,761,19153,3117,0,8145,0.0010000000000000009
232998,19409,20691,131120,1781,7990,124065,733,19115,3002,1,8146,0.0010000000000000009
233998,9148,-3268,130792,-6204,-4280,134849,511,19115,2093,1,8147,0.0010000000000000009
234998,8903,-8188,126485,11133,-7112,130204,899,19158,2093,0,8148,0.0010000000000000009
235998,4913,3269,131350,-4080,1891,132034,795,19161,3682,0,8149,0.0010000000000000009
236998,11297,2547,126645,6284,-1510,127249,795,19145,3256,1,8150,0.0010000000000000009
237998,13803,11000,122284,2767,9585,120278,570,19159,2335,0,8151,0.0010000000000000009
238998,19586,9376,128280,-8415,3288,127654,726,19154,2973,0,8152,0.0010000000000000009
239998,7105,-2744,124967,17274,-3314,124632,876,19149,3588,1,8153,0.0010000000000000009
241000,1410,-9832,128005,-11682,-18361,137292,668,19149,3588,1,8154,0.0010020000000000029
241998,6091,-15375,125268,7339,-10062,132556,700,19128,2736,0,8155,0.0009979999999999989
242998,-3220,15154,125608,2615,7929,122898,700,19147,2867,1,8156,0.0010000000000000009
243998,6335,-2020,124169,-33888,-1413,124582,851,19189,3485,1,8157,0.0010000000000000009
244998,8740,15863,133123,9148,10597,120317,703,19105,2879,0,8158,0.0010000000000000009
245998,-735,-21590,123851,14045,-26248,143404,674,19123,2761,0,8159,0.0010000000000000009
246998,-11551,170,126924,-33861,-346,118928,875,19123,2761,1,8160,0.0010000000000000009
248001,4910,11374,129121,-15213,5472,126872,787,19177,3584,0,8161,0.0010030000000000039
248998,65,23991,128649,18530,23300,119428,787,19170,3223,0,8162,0.0009969999999999979
249998,4508,-1118,123033,-16291,-3084,126587,775,19111,3174,1,8163,0.0010000000000000009
250998,-258,13122,130759,-16628,8148,120530,830,19156,3399,0,8164,0.0010000000000000009
251998,14570,-1837,122067,18401,-2459,118606,824,19162,3375,0,8165,0.0010000000000000009
252998,16759,20534,131028,1133,13634,129485,809,19162,3375,1,8166,0.0010000000000000009
253998,12201,-2280,129704,-9393,-5067,129235,648,19162,3313,1,8167,0.0010000000000000009
254998,4475,-4217,128313,11151,-5985,133840,648,19139,2654,0,8168,0.0010000000000000009
255998,7061,-1120,130277,-8480,-3502,130481,797,19152,3264,1,8169,0.0010000000000000009
257009,8262,1031,126231,9885,-2676,124999,920,19192,3768,1,8170,0.0010109999999999841
257998,17733,9578,124021,2364,10010,123111,651,19138,2666,0,8171,0.0009890000000000176
258998,19113,9460,127922,-3269,4138,125371,666,19138,2666,0,8172,0.0010000000000000009
260000,5302,-477,125644,4904,-8643,131334,1027,19139,2728,1,8173,0.0010020000000000029
260998,5753,-17051,125308,-9396,-17534,132054,748,19195,4206,1,8174,0.0009979999999999989
262000,-1399,637,127782,7451,2818,130255,748,19143,3064,0,8175,0.0010020000000000029
262999,4194,2541,123405,-14151,-7477,127052,720,19131,2949,1,8176,0.0009989999999999721
263998,406,5100,127362,-17194,18251,116368,690,19166,2826,1,8177,0.0009990000000000276
264998,11410,6879,131394,24263,-19834,144047,844,19166,3457,0,8178,0.0010000000000000009
266000,-4210,-20518,122946,-10303,-6035,121079,800,19130,3457,0,8179,0.0010020000000000029
266998,-9112,1129,128462,-39929,-5337,130154,535,19098,3277,1,8180,0.0009979999999999989
267998,6342,12545,127294,11973,24293,117697,535,19158,2191,0,8181,0.0010000000000000009
268998,759,29364,129169,296,14290,122471,712,19148,2916,0,8182,0.0010000000000000009
269998,890,-2977,124995,-17284,-128,128292,864,19087,3539,1,8183,0.0009999999999999454
270998,-1108,5672,127666,9,-5810,123467,566,19087,2318,0,8184,0.0010000000000000009
271998,14712,2730,125749,11430,13289,124242,688,19132,2318,0,8185,0.0010000000000000009
272999,17481,20332,131551,1090,1508,125847,819,19149,2818,1,8186,0.0010010000000000296
274000,15459,-3433,128641,-4617,4101,126932,819,19186,3354,1,8187,0.0010009999999999741
274998,4370,-1164,129124,11762,-5757,135142,717,19115,2937,0,8188,0.0009979999999999989
275998,5682,-4863,128793,1310,-3678,129860,666,19131,2728,1,8189,0.0010000000000000009
277008,10763,757,126900,-15534,-532,128698,750,19131,3072,1,8190,0.0010100000000000109
277998,13068,12789,127816,15664,8392,123439,755,19174,3072,0,8191,0.0009899999999999909
278998,16895,8400,126914,2720,-492,127463,747,19158,3092,0,8192,0.0010000000000000009
280004,4706,-12007,122658,-532,-9527,126036,747,19112,3059,1,8193,0.0010060000000000069
281000,9937,-3033,127602,4757,-6664,130554,716,19165,2933,0,8194,0.0009959999999999969
281998,6013,-5214,123442,10389,-7757,136598,912,19178,3735,0,8195,0.0009979999999999989
282998,1968,13031,126840,-22274,13392,112286,786,19143,3219,1,8196,0.0010000000000000009
283998,-1645,6675,131515,-19860,-1590,133187,589,19143,3219,1,8197,0.0010000000000000009
284998,4007,-15919,125757,26325,-20956,137211,986,19149,2412,0,8198,0.0010000000000000009
285998,-8110,-14997,127026,-15507,-14376,130050,986,19161,4038,0,8199,0.0010000000000000009
286998,-1330,-1737,125868,-31789,2982,122522,906,19149,3711,1,8200,0.0010000000000000009
287998,8754,40027,127371,10879,38880,108153,676,19139,2769,0,8201,0.0010000000000000009
288999,5215,20740,128989,-1435,9006,129813,676,19141,2769,0,8202,0.0010010000000000296
289999,1867,-9746,122794,-14801,-7631,125807,1044,19141,2769,1,8203,0.0010000000000000009
291001,-3650,3028,129087,2966,-1900,126291,727,19172,4276,0,8204,0.0010020000000000029
291998,12226,1347,127708,5948,2602,127913,727,19146,2978,0,8205,0.0009969999999999701
292998,15168,14960,131004,-2378,6458,121894,709,19129,2904,1,8206,0.0010000000000000009
293998,12192,1816,131523,-2927,5669,130610,600,19168,2457,1,8207,0.0010000000000000009
294998,7382,-2126,125886,11029,-4276,130578,831,19140,3404,0,8208,0.0010000000000000009
295998,9219,5134,130215,-360,4093,126594,773,19140,3404,1,8209,0.0010000000000000009
296998,6396,130,126897,1296,-3415,130261,495,19114,3166,1,8210,0.0010000000000000009
297998,21116,4936,124917,-198,4840,124911,495,19163,2027,0,8211,0.0010000000000000009
298998,12582,4412,127515,9358,1685,125393,731,19157,2994,0,8212,0.0010000000000000009
299998,7808,-4291,125495,221,-7660,134124,840,19140,3440,1,8213,0.0010000000000000009
300998,-509,-16271,124661,-7938,-17123,130669,636,19135,2605,0,8214,0.0010000000000000009
302000,12484,4462,128451,10696,3773,122710,777,19135,2605,0,8215,0.0010020000000000029
302998,-2595,13638,125811,2011,6995,127355,923,19146,3182,1,8216,0.0009979999999999989
303998,3943,-678,127116,-37150,5531,120402,923,19188,3780,1,8217,0.0010000000000000009
304998,5462,573,132543,9240,-30039,149684,671,19115,2748,0,8218,0.0010000000000000009
305998,-3376,-27272,123595,14499,-4100,118080,701,19141,2871,1,8219,0.0010000000000000009
306999,-9919,13705,129379,-29610,2353,124976,1027,19186,4206,1,8220,0.0010009999999999741
308000,5412,14537,128361,10042,25686,118864,762,19186,4206,0,8221,0.0010010000000000296
308999,3378,28862,128845,7387,9774,122290,756,19161,3121,0,8222,0.0009989999999999721
310000,1307,-3801,124550,-20482,4083,125753,756,19115,3096,1,8223,0.0010010000000000296
310998,-117,8708,129884,-3339,-11915,127066,867,19167,3551,0,8224,0.0009979999999999989
311998,12686,-6081,125022,13424,11751,123763,874,19177,3580,0,8225,0.0010000000000000009
312998,15998,14374,133282,552,-3085,130737,780,19162,3195,1,8226,0.0010000000000000009
313998,11784,-193,129897,-862,5877,125049,625,19162,2560,1,8227,0.0010000000000000009
314998,6511,-2043,128343,549,-5214,133360,856,19145,2560,0,8228,0.0010000000000000009
316000,8104,1681,129008,2302,1917,124947,870,19153,3506,1,8229,0.0010020000000000029
316998,13260,4463,125614,425,-3283,128553,870,19164,3563,1,8230,0.0009979999999999989
317998,13922,7285,127110,4314,9190,121889,628,19136,2572,0,8231,0.0010000000000000009
319000,17991,1737,126133,875,-2496,128672,619,19150,2535,0,8232,0.0010020000000000029
319999,2969,-6025,126240,11189,-7924,131921,1011,19150,4141,1,8233,0.0009989999999999721
320998,2740,-9982,127639,-20985,-16360,133254,720,19191,4141,0,8234,0.0009990000000000276
321998,7049,-8163,123929,13979,458,127076,699,19134,2949,0,8235,0.0010000000000000009
323000,-2340,17275,129086,-2875,5609,122946,699,19136,2863,1,8236,0.0010020000000000029
323998,6370,-3990,124166,-32345,-637,123863,725,19175,2969,1,8237,0.0009979999999999989
324998,6141,8575,132900,21623,-3490,133491,779,19129,3191,0,8238,0.0010000000000000009
325998,-3899,-18420,126442,6302,-18050,134189,773,19129,3166,1,8239,0.0010000000000000009
326999,-12258,-1507,124879,-48349,-713,120418,680,19111,3166,1,8240,0.0010009999999999741
327998,7253,17579,131575,1290,18120,124154,712,19164,2785,0,8241,0.0009990000000000276
328998,2591,18321,127941,16471,12310,122503,712,19156,2916,0,8242,0.0010000000000000009
329999,3912,2482,123241,-19289,10721,119105,833,19090,3412,1,8243,0.0010009999999999741
330998,1844,13522,132208,-8602,-4770,127912,533,19143,2183,0,8244,0.0009989999999999721
331998,16066,-2410,122645,17706,8076,122163,748,19157,3064,0,8245,0.0010000000000000009
332998,12899,13016,133267,633,1149,129224,897,19157,3064,1,8246,0.0010000000000000009
333998,11222,-2301,131322,-6266,1095,130145,699,19190,3674,1,8247,0.0010000000000000009
334998,4897,-6544,127293,10630,-5873,131097,699,19115,2863,0,8248,0.0010000000000000009
335998,8576,1675,131382,214,639,131358,693,19138,2838,1,8249,0.0010000000000000009
336998,11676,1857,125439,-234,-3600,126332,852,19183,3490,1,8250,0.0010000000000000009
337998,17300,10516,126658,3204,11965,120292,725,19152,2969,0,8251,0.0010000000000000009
338998,14635,6080,127818,-503,2470,127976,733,19152,2969,0,8252,0.0010000000000000009
339998,3668,-5669,124837,9401,-7631,128779,788,19121,3002,1,8253,0.0010000000000000009
340998,5967,-13385,128161,-11507,-18833,137065,788,19163,3227,0,8254,0.0010000000000000009
341998,1999,-6701,126020,13134,-4368,129913,854,19163,3498,0,8255,0.0010000000000000009
342998,1740,10254,127857,-5917,4475,123236,767,19119,3141,1,8256,0.0010000000000000009
343998,3379,-82,126962,-33111,4435,122999,529,19158,2167,1,8257,0.0010000000000000009
344998,8527,9823,131913,19994,2543,127980,999,19158,2167,0,8258,0.0010000000000000009
345999,-5963,-20749,124146,6389,-20274,137092,861,19170,4092,1,8259,0.0010010000000000296
346998,-11044,3921,127936,-41905,-405,125188,861,19141,3526,1,8260,0.0009989999999999721
347998,8745,10318,129723,-2090,8024,122702,624,19136,2556,0,8261,0.0010000000000000009
348999,1661,21452,129821,14606,21137,124331,620,19144,2539,0,8262,0.0010010000000000296
349998,3035,683,125008,-18150,2006,118884,987,19134,4042,1,8263,0.0009989999999999721
350998,2042,10215,128870,-7713,-8581,129034,714,19134,4042,0,8264,0.0010000000000000009
351999,14723,4596,123948,13613,14343,118651,689,19136,2924,0,8265,0.0010010000000000296
353000,14072,15216,133938,-4410,-330,130895,689,19143,2822,1,8266,0.0010009999999999741
354000,11796,-6950,130283,359,-9048,129483,682,19169,2793,1,8267,0.0010000000000000009
355000,3700,-6037,129271,-10320,-6004,132818,790,19145,3236,0,8268,0.0010000000000000009
355998,11183,-2295,130844,3949,-2864,130649,757,19124,3100,1,8269,0.0009979999999999989
356998,9739,4521,125714,9563,1933,123628,582,19124,2384,1,8270,0.0010000000000000009
357998,17292,11531,127666,-3804,13491,120907,792,19171,2384,0,8271,0.0010000000000000009
358998,15236,5570,126536,4260,-1006,125115,798,19166,3244,0,8272,0.0010000000000000009
359998,3973,-3175,126530,3021,-13806,133148,798,19116,3268,1,8273,0.0010000000000000009
360998,10152,-23195,124459,-6741,-19576,133383,565,19150,2314,0,8274,0.0010000000000000009
361998,-2214,2239,127794,5785,1402,128758,782,19156,3203,0,8275,0.0010000000000000009
363000,5919,2492,126519,-16003,-1778,124143,893,19156,3657,1,8276,0.0010020000000000029
363998,1508,9894,129630,-13404,19025,116179,645,19175,3657,1,8277,0.0009979999999999989
364998,8852,1057,129252,22291,-24265,146423,801,19135,2642,0,8278,0.0010000000000000009
365998,-5188,-21116,124018,-19845,-6578,118997,801,19140,3281,1,8279,0.0010000000000000009
367001,-7877,2170,128487,-34490,-7009,129683,1045,19191,4280,1,8280,0.0010029999999999761
368000,5579,16883,130691,20427,28336,115586,731,19152,2994,0,8281,0.0009990000000000276
368998,2507,23851,129787,-9628,5284,126354,739,19152,3027,0,8282,0.0009979999999999989
369998,-1475,-206,126525,-17266,5391,123657,1035,19126,3027,1,8283,0.0010000000000000009
370998,5709,1513,126260,7113,-7362,126556,812,19179,4239,0,8284,0.0010000000000000009
371998,15293,8994,127249,8469,15479,120099,812,19166,3326,0,8285,0.0010000000000000009
372998,12756,10292,133833,-1009,-4236,129004,755,19138,3092,1,8286,0.0010000000000000009
373998,15095,-5699,130843,669,-771,128565,584,19151,2392,1,8287,0.0010000000000000009
374998,2297,-974,130493,4051,-5338,134180,950,19164,3891,0,8288,0.0010000000000000009
375998,11173,-1474,128980,1752,-1306,127341,824,19164,3891,1,8289,0.0010000000000000009
376998,5524,9036,126905,-15553,1755,125733,607,19157,3375,1,8290,0.0010000000000000009
377998,18506,6527,130855,11937,7065,126485,607,19147,2486,0,8291,0.0010000000000000009
378998,12244,1075,126157,17056,-1031,126202,681,19147,2789,0,8292,0.0010000000000000009
379998,4143,-10457,125071,-13177,-15551,129514,938,19165,3842,1,8293,0.0010000000000000009
381000,12384,-10067,127197,7651,-4277,130331,683,19119,2797,0,8294,0.0010020000000000029
381999,3724,3932,125129,4007,-3116,131717,629,19119,2797,0,8295,0.0009989999999999721
382998,3924,13550,131411,-27117,15744,111760,813,19138,2576,1,8296,0.0009990000000000276
383998,-1337,6744,133554,-3245,-4181,136604,813,19180,3330,1,8297,0.0010000000000000009
384998,-1971,-25946,124899,25287,-29453,140400,736,19112,3014,0,8298,0.0010000000000000009
385998,-11926,-18195,126149,-35940,-14480,128132,724,19118,2965,1,8299,0.0010000000000000009
387000,3946,14653,128784,-16704,20427,116201,786,19169,3219,1,8300,0.0010019999999999474
388000,6054,36384,129649,14153,30124,114751,767,19169,3219,0,8301,0.0010000000000000009
388998,10250,8167,127571,-14227,7077,127355,799,19167,3141,0,8302,0.0009979999999999989
389998,-691,-5022,125933,-9709,-7068,126241,799,19103,3272,1,8303,0.0010000000000000009
391001,1648,-1477,127275,10786,-4245,129521,783,19148,3207,0,8304,0.0010030000000000316
391998,12775,8077,129689,-4066,7271,122864,757,19159,3100,0,8305,0.0009969999999999701
392998,14673,2434,132878,-2089,-3030,130267,848,19177,3473,1,8306,0.0010000000000000009
393998,11805,5551,131485,11912,10665,127808,677,19177,3473,1,8307,0.0010000000000000009
394998,6573,-1488,127823,884,-3049,126139,787,19136,2773,0,8308,0.0010000000000000009
396000,8029,3442,130284,-1150,-4063,130268,787,19145,3223,1,8309,0.0010020000000000029
396998,14742,845,125575,1187,-4322,128231,962,19197,3940,1,8310,0.0009979999999999989
397998,13744,8057,129238,6873,9415,121700,670,19145,2744,0,8311,0.0010000000000000009
398998,10380,3788,128718,1623,-7993,126228,701,19135,2871,0,8312,0.0010000000000000009
400000,7811,-12237,123737,920,-16389,133885,869,19135,3559,1,8313,0.0010020000000000029
400998,1788,-8070,128295,-2514,-13113,134673,808,19178,3559,0,8314,0.0009979999999999989
402000,12291,-3780,125687,-1369,5607,120012,808,19144,3309,0,8315,0.0010020000000000029
402998,-4664,19850,131402,-13990,4245,125024,747,19117,3059,1,8316,0.0009979999999999989
403998,10415,-7911,126866,-24039,-6664,123872,548,19163,2244,1,8317,0.0010000000000000009
404998,4216,-57,131326,18516,-16951,141006,910,19145,3727,0,8318,0.0010000000000000009
405998,-1507,-19719,127190,-1111,-6817,125315,826,19145,3383,1,8319,0.0010000000000000009
406998,-17317,12550,127103,-46572,1896,119306,561,19110,3383,1,8320,0.0010000000000000009
407998,9155,11976,132929,9631,22603,123324,671,19155,2298,0,8321,0.0010000000000000009
408999,4172,22090,131060,13062,-1342,125924,671,19150,2748,0,8322,0.0010010000000000296
409998,1153,-3196,122572,-22724,13145,116684,914,19114,3743,1,8323,0.0009989999999999721
410998,5605,11243,131489,-7816,-9460,129878,666,19123,2728,0,8324,0.0010000000000000009
412000,17409,477,125397,19641,8554,122121,623,19123,2552,0,8325,0.0010020000000000029
412998,11354,6891,133087,2984,3165,129416,709,19148,2552,1,8326,0.0009979999999999989
413999,12335,-1885,132829,-7503,-10321,131140,752,19172,2904,1,8327,0.0010010000000000296
414998,3344,-6760,127945,-3789,-2095,128491,752,19124,3080,0,8328,0.0009989999999999721
415998,10403,2164,129734,5730,788,130069,707,19127,2896,1,8329,0.0010000000000000009
416998,11474,8298,126104,6387,1201,123549,683,19165,2797,1,8330,0.0010000000000000009
417998,15361,9449,128537,-1140,10693,121465,793,19170,3248,0,8331,0.0010000000000000009
418998,16048,342,127603,3068,-7052,128689,771,19170,3248,1,8332,0.0010000000000000009
419998,-420,-7662,125640,8324,-11381,130789,582,19103,3158,1,8333,0.0010000000000000009
420998,14460,-15786,127723,-20633,-21139,138124,582,19155,2384,0,8334,0.0010000000000000009
421998,-4790,235,126606,16496,5687,122742,951,19174,3895,0,8335,0.0010000000000000009
422998,4603,12169,129571,-16897,3012,123203,816,19150,3342,1,8336,0.0010000000000000009
423998,6934,-1750,127886,-19792,5730,122729,621,19144,2543,1,8337,0.0010000000000000009
424999,4913,565,130921,29082,-15365,139166,878,19144,2543,0,8338,0.0010009999999999741
425998,-2054,-21605,123916,-15063,-14021,127450,976,19152,3596,1,8339,0.0009990000000000276
426998,-16786,6089,128338,-42172,1474,121625,976,19170,3997,1,8340,0.0010000000000000009
427998,11055,18290,134866,19077,22336,123371,674,19149,2761,0,8341,0.0010000000000000009
428998,2414,12620,127718,-1631,1579,126016,705,19131,2887,0,8342,0.0010000000000000009
430000,130,7351,126545,-18028,15687,116480,1136,19197,4653,1,8343,0.0010020000000000029
430998,8833,385,126552,-1245,-12787,131224,766,19197,4653,0,8344,0.0009979999999999989
431998,16922,13216,126644,11832,18298,114783,735,19153,3137,0,8345,0.0010000000000000009
432998,10657,7991,135482,-256,-2223,133100,735,19119,3010,1,8346,0.0010000000000000009
433998,14962,-9294,130181,964,-7759,132189,511,19161,2093,0,8347,0.0010000000000000009
434998,1380,-769,130955,2765,-2926,129450,895,19168,3666,0,8348,0.0010000000000000009
436000,12561,-549,130092,-2953,-1571,130525,792,19135,3244,1,8349,0.0010020000000000029
436998,9067,6363,124604,3360,-107,122845,588,19135,3244,1,8350,0.0009979999999999989
437998,16616,8881,129606,2512,9248,124233,737,19161,2408,0,8351,0.0010000000000000009
438999,14640,1509,127314,2691,1701,126882,737,19151,3019,1,8352,0.0010009999999999741
439998,1374,-4995,125843,6783,-9116,129548,882,19154,3612,1,8353,0.0009990000000000276
441001,15298,-17492,126242,-11234,-17450,128340,669,19136,2740,0,8354,0.0010029999999999761
442000,-4872,6178,126736,11054,1162,130425,695,19149,2847,0,8355,0.0009990000000000276
443000,8256,-1223,127113,-15754,-2576,118487,943,19149,2847,1,8356,0.0010000000000000009
443998,3094,11645,133951,-16514,15039,126435,699,19186,3862,1,8357,0.0009979999999999989
444998,6289,-13256,125892,27496,-18839,139134,699,19105,2863,0,8358,0.0010000000000000009
445998,-9325,-11232,125263,-17817,-6567,121704,660,19127,2703,1,8359,0.0010000000000000009
446998,-4753,3208,129515,-38041,7832,126434,860,19178,3522,1,8360,0.0010000000000000009
448000,6250,22852,132665,17963,26256,115813,787,19170,3223,0,8361,0.0010019999999999474
448998,7458,15331,129188,-3830,-5509,128788,777,19170,3182,0,8362,0.0009979999999999989
449998,-301,1120,127284,-12313,3040,121079,864,19106,3182,1,8363,0.0010000000000000009
451001,7544,-4213,124376,15239,-1767,125921,815,19165,3539,0,8364,0.0010030000000000316
451998,17334,20003,130575,245,15082,121537,815,19163,3338,0,8365,0.0009969999999999701
453001,8805,4571,132625,-4695,-5354,130268,810,19163,3318,1,8366,0.0010030000000000316
454003,14667,-1831,132455,-1803,-6945,130464,656,19139,2687,0,8367,0.0010020000000000029
454998,2356,-4079,131353,2326,-597,133471,803,19139,3289,0,8368,0.0009949999999999681
456001,7659,-1579,129013,9864,-11167,130938,923,19155,3289,1,8369,0.0010030000000000316
457000,10660,-515,123596,-11877,7378,120345,657,19189,3780,1,8370,0.0009989999999999721
457998,15055,17436,131546,9790,13378,123727,657,19142,2691,0,8371,0.0009979999999999989
458998,19760,2128,125863,14368,389,122689,675,19136,2765,1,8372,0.0010000000000000009
460001,1939,-4561,126439,-17837,-21500,135403,1008,19188,4128,1,8373,0.0010030000000000316
461000,9413,-24194,125357,5600,-11789,130647,760,19188,3113,0,8374,0.0009989999999999721
461998,399,3405,126016,5408,-6115,132653,729,19147,3113,0,8375,0.0009979999999999989
462998,323,-545,127789,-22890,9509,117864,667,19124,2986,1,8376,0.0010000000000000009
463998,9303,20859,136396,-9624,7719,121554,667,19172,2732,0,8377,0.0010000000000000009
464998,1494,-20226,122098,17413,-24940,144031,833,19153,3412,0,8378,0.0010000000000000009
466001,-2997,-3871,128998,-23960,-3930,118532,795,19098,3256,1,8379,0.0010030000000000316
466998,-3955,-6283,125737,-23634,-4594,129578,545,19154,2232,1,8380,0.0009969999999999701
467998,3527,31275,134084,19549,35851,110071,728,19154,2232,0,8381,0.0010000000000000009
468998,7237,10287,128510,-18001,-6661,132947,870,19150,2982,0,8382,0.0010000000000000009
469998,-630,1912,127349,-17397,4580,119705,870,19115,3563,1,8383,0.0010000000000000009
470998,9804,-3588,125023,14486,-6166,130246,616,19141,2523,0,8384,0.0010000000000000009
471998,14282,15501,130252,966,11799,119425,667,19144,2732,1,8385,0.0010000000000000009
472998,14163,2159,131066,-973,-1241,128140,808,19180,3309,1,8386,0.0010000000000000009
474000,14268,6094,134411,7329,-3530,130940,721,19180,3309,0,8387,0.0010020000000000029
474999,4261,-9328,127118,-5956,-6678,133211,677,19114,2953,0,8388,0.0009990000000000276
475999,8184,4512,130561,6421,-523,124927,677,19134,2773,1,8389,0.0010000000000000009
476998,8891,1321,123947,-4960,-4015,129771,721,19176,2953,1,8390,0.0009989999999999721
477998,16936,13623,130530,3805,12643,120236,749,19158,3068,0,8391,0.0010000000000000009
478998,9955,1969,129759,10288,-367,128095,752,19107,3080,1,8392,0.0010000000000000009
479998,3990,-13874,124060,-4262,-21787,133944,702,19107,3080,1,8393,0.0010000000000000009
480998,10655,-14143,125528,-8999,-6512,124633,920,19163,2875,0,8394,0.0010000000000000009
481998,2101,10538,128846,11502,-2073,134097,920,19169,3768,0,8395,0.0010000000000000009
482998,4257,2112,126230,-16949,6337,116835,787,19137,3223,1,8396,0.0010000000000000009
483998,4249,20548,138680,-18122,12473,121677,600,19147,2457,0,8397,0.0010000000000000009
484999,455,-28503,122942,22151,-32450,149467,880,19150,3604,0,8398,0.0010009999999999741
485998,-6987,-6648,128243,-18344,-8194,117573,916,19150,3604,1,8399,0.0009990000000000276
486998,-6556,-3863,128005,-35670,-4517,132971,656,19148,3752,0,8400,0.0010000000000000009
487998,8243,38031,133652,18787,39830,105466,656,19140,2687,0,8401,0.0010000000000000009
488998,5743,11999,127378,-8109,3997,131326,678,19137,2777,1,8402,0.0010000000000000009
490001,1678,3180,127807,-16746,3844,119181,1056,19178,4325,1,8403,0.0010029999999999761
490998,8860,-9332,122576,6182,-12789,129974,735,19145,3010,0,8404,0.0009970000000000256
491998,14553,16613,131712,8181,11832,123865,721,19145,3010,1,8405,0.0010000000000000009
492998,13654,-2166,129485,-3023,4245,126275,589,19126,2953,1,8406,0.0010000000000000009
493998,13605,8452,134350,5676,-8517,137071,589,19161,2412,0,8407,0.0010000000000000009
494998,6379,-7927,127150,-1527,2954,126066,839,19144,3436,0,8408,0.0010000000000000009
495998,9051,6748,129023,3505,-160,127433,776,19117,3178,1,8409,0.0010000000000000009
496998,12848,1695,123914,-2838,3195,124802,509,19161,2085,1,8410,0.0010000000000000009
497999,16240,12529,128861,-1289,4694,122832,730,19161,2990,0,8411,0.0010009999999999741
498998,11081,-358,129212,9231,-10399,133066,842,19157,2990,1,8412,0.0009990000000000276
499998,2250,-13690,125870,-10312,-13485,129327,660,19136,3449,1,8413,0.0010000000000000009
500998,9479,-10004,126977,-1833,-12210,137521,660,19134,2703,0,8414,0.0009999999999999454
501999,-1214,4784,128643,16306,12641,118010,811,19151,3322,0,8415,0.0010010000000000296
502999,1759,13047,127559,-30470,-2345,124679,922,19190,3776,1,8416,0.0010000000000000009
503998,10873,-5790,130658,-7746,-160,125129,679,19190,2781,0,8417,0.0009989999999999721
504998,4888,-6037,128296,23523,-19490,139825,782,19119,2781,0,8418,0.0010000000000000009
506000,-3182,-15001,125740,-19714,-5123,123252,1011,19138,3203,1,8419,0.0010020000000000584
507000,-16248,11340,130318,-38204,6398,121921,1011,19186,4141,0,8420,0.0010000000000000009
507998,9219,13887,132966,22074,18637,125183,736,19163,3014,0,8421,0.0009979999999999434
508998,2779,13803,126788,-668,-1344,125189,752,19114,3080,1,8422,0.0010000000000000009
509998,-188,9095,127365,-26549,16448,113862,987,19164,4042,1,8423,0.0010000000000000009
511000,11552,-1751,124792,5609,-10778,130549,885,19164,4042,0,8424,0.0010020000000000584
511998,19410,14241,128516,16084,12589,121599,779,19172,3625,1,8425,0.0009979999999999434
512998,11359,2348,131454,-8426,-28,132085,779,19158,3191,1,8426,0.0010000000000000009
513999,14351,130,132190,1628,-10062,129696,628,19143,2572,0,8427,0.0010010000000000296
514998,889,-6969,128812,-6090,-3777,132100,942,19166,3858,0,8428,0.0009989999999999721
516000,11627,2862,129697,6930,-2398,128924,867,19172,3551,1,8429,0.0010020000000000584
516998,11588,3791,123335,5290,1737,123228,629,19172,3551,0,8430,0.0009979999999999434
517999,17790,16027,129342,-1895,11406,121343,659,19137,2576,0,8431,0.0010010000000000296
518999,13962,-806,127019,6822,-8016,127781,659,19142,2699,1,8432,0.0010000000000000009
520001,-911,-6900,126741,-3102,-11843,131897,998,19197,4088,1,8433,0.0010019999999999474
521000,14269,-18339,125858,-4936,-16956,135333,716,19122,2933,0,8434,0.0009990000000000832
521998,-7090,7383,127600,9281,5578,123493,667,19140,2732,1,8435,0.0009979999999999434
522998,6758,2948,125955,-21669,-1890,123700,719,19140,2732,1,8436,0.0010000000000000009
524000,9527,6257,133069,-11358,7811,120374,776,19171,2945,0,8437,0.0010020000000000584
525000,5329,-11932,125752,23265,-21725,143277,776,19136,3178,0,8438,0.0010000000000000009
525998,-5732,-8023,125677,-24949,-4371,119650,775,19109,3174,1,8439,0.0009979999999999434
526998,-7156,5373,129460,-32361,-923,126839,670,19161,2744,0,8440,0.0010000000000000009
527998,6352,21440,132682,26591,24848,119398,708,19160,2900,0,8441,0.0010000000000000009
529000,6768,7793,125949,-12676,-6179,127288,828,19160,2900,1,8442,0.0010020000000000584
529998,-2801,8764,129251,-19865,13479,117932,595,19088,3391,1,8443,0.0009979999999999434
530998,10955,-4158,122709,7370,-9004,128674,595,19148,2437,0,8444,0.0010000000000000009
531998,15600,20987,129632,8778,16291,118826,746,19156,3055,1,8445,0.0010000000000000009
532998,12720,6094,132453,-4806,-975,130400,898,19193,3678,1,8446,0.0010000000000000009
533998,13409,-4691,130296,6387,-8087,129634,700,19124,2867,0,8447,0.0010000000000000009
534998,2912,-4841,130741,-7353,-6889,133955,760,19124,2867,0,8448,0.0010000000000000009
535998,10857,-400,129135,3229,-3291,125131,827,19143,3113,1,8449,0.0010000000000000009
536998,10193,5882,123588,5787,60,123498,827,19185,3387,0,8450,0.0010000000000000009
537998,17347,13938,128644,-815,12644,123445,704,19146,2883,0,8451,0.0010000000000000009
538999,10895,2170,126626,6844,22,126789,722,19118,2957,1,8452,0.0010010000000000296
539998,3927,-10637,126450,-1331,-14455,137961,776,19169,3178,1,8453,0.0009989999999999721
540998,9103,-14522,126145,-6398,-419,127007,866,19169,3547,0,8454,0.0010000000000000009
541998,-2050,7740,127721,6894,-1612,128553,763,19156,3547,1,8455,0.0010000000000000009
542998,5821,1393,125399,-15699,4500,119570,530,19116,3125,1,8456,0.0010000000000000009
543998,8717,13400,135332,-15712,502,128437,530,19154,2171,0,8457,0.0010000000000000009
544999,4109,-18966,123150,8213,-23583,139182,994,19172,4071,0,8458,0.0010010000000000296
545998,-7626,-5443,126646,-35382,-570,119355,865,19149,3543,1,8459,0.0009989999999999721
546998,-2773,5376,130382,-10697,10086,126346,626,19149,2564,0,8460,0.0010000000000000009
547998,3840,26309,131735,15745,25203,116234,619,19142,2564,0,8461,0.0010000000000000009
548999,6396,8032,126265,-14912,-4185,131387,994,19147,2535,1,8462,0.0010010000000000296
550001,-3356,3899,128699,-14114,1867,121249,994,19143,4071,1,8463,0.0010019999999999474
551000,10347,-998,122842,14432,3953,122413,713,19144,2920,0,8464,0.0009989999999999721
551998,18602,21343,130826,2866,11962,125850,689,19137,2822,1,8465,0.0009980000000000544
553000,10267,1285,130920,-8728,-7038,130279,684,19137,2801,1,8466,0.0010019999999999474
554000,17786,-2703,130220,10999,-3570,129850,782,19165,2801,0,8467,0.0010000000000000009
554999,-1661,-4809,130052,-5866,-3211,136020,756,19135,3203,0,8468,0.0009990000000000832
556000,12481,-587,127636,-2529,-2453,125060,756,19123,3096,1,8469,0.0010009999999999186
556998,8479,12171,126063,10025,11326,125074,557,19168,2281,0,8470,0.0009980000000000544
557999,14596,12244,129200,-4873,433,125982,849,19171,3477,0,8471,0.0010010000000000296
558999,15974,-10457,122105,8455,-9095,123356,793,19107,3248,1,8472,0.0010000000000000009
559998,1569,-1762,129914,-2173,-9000,132840,563,19107,3248,1,8473,0.0009989999999999721
560998,15721,-9220,125437,11838,-11994,133805,841,19150,2306,0,8474,0.0010000000000000009
561998,-5372,7847,126886,-12700,10249,118947,841,19158,3444,1,8475,0.0010000000000000009
563001,3841,11992,131916,-22007,-1659,128506,855,19164,3502,1,8476,0.0010029999999999761
563999,2769,-8892,128847,10111,-12044,131088,643,19130,2634,0,8477,0.0009980000000000544
564998,414,-17748,126041,1060,-19079,136032,859,19138,3518,0,8478,0.0009989999999999721
566001,-6831,-9370,126476,-29231,-9335,125639,1048,19138,3518,1,8479,0.0010029999999999761
566999,4930,22105,127690,-4111,31456,108565,707,19197,4292,0,8480,0.0009979999999999434
567998,327,36770,133309,7072,21651,124752,707,19149,2896,0,8481,0.0009990000000000832
568998,7582,-6173,122575,-16184,-12150,127939,734,19127,3006,1,8482,0.0010000000000000009
569998,-5085,-44,128269,-7786,60,124584,1170,19188,4792,1,8483,0.0010000000000000009
570998,9659,-2610,125886,6173,-3338,129116,818,19161,3350,0,8484,0.0010000000000000009
571998,18559,17008,129131,1304,12792,117998,756,19161,3350,1,8485,0.0010000000000000009
572999,14467,2982,131598,-1677,-1662,134030,590,19141,3096,1,8486,0.0010009999999999186
573998,12813,3253,128644,6697,-3543,126447,590,19154,2416,0,8487,0.0009990000000000832
574998,7051,-2200,128617,-9268,830,130039,984,19169,4030,0,8488,0.0010000000000000009
575998,4734,1882,127631,10606,-5291,130169,828,19157,3391,1,8489,0.0010000000000000009
576998,16413,7943,123682,-5354,1593,124991,598,19149,2449,0,8490,0.0010000000000000009
577998,16228,9911,128752,6216,6290,125526,678,19149,2449,0,8491,0.0010000000000000009
578998,6455,1574,128266,14559,-2934,121408,934,19151,2777,1,8492,0.0010000000000000009
579998,9854,-21865,122747,-17829,-24251,140874,934,19165,3825,1,8493,0.0010000000000000009
581000,3894,-4305,127423,1161,-1489,125332,715,19114,2928,0,8494,0.0010019999999999474
582000,578,16099,127835,12718,8231,123774,666,19140,2728,1,8495,0.0010000000000000009
582998,1001,1549,124102,-27900,-530,117789,809,19186,3313,1,8496,0.0009980000000000544
584000,11280,8079,135164,-11886,3573,142721,731,19186,2994,0,8497,0.0010019999999999474
584998,-670,-33221,121303,21780,-36428,132743,726,19114,2994,0,8498,0.0009980000000000544
585998,-1508,2934,127140,-13165,5080,117376,791,19123,2973,1,8499,0.0010000000000000009
586998,-7857,9717,129451,-39347,844,124186,791,19168,3240,0,8500,0.0010000000000000009
587998,14351,31739,131047,15065,26195,116439,764,19161,3129,0,8501,0.0010000000000000009
588998,665,6425,124782,5925,-4572,132584,789,19098,3232,1,8502,0.0010000000000000009
589998,29,5266,127486,-26112,-2080,118127,671,19098,2748,1,8503,0.0010000000000000009
590998,9637,-9560,122467,2083,3669,127260,751,19147,2748,0,8504,0.0010000000000000009
592000,18607,22544,133749,4649,4387,128385,843,19155,3076,1,8505,0.0010019999999999474
592999,10229,-1791,129484,-4775,5094,127626,843,19181,3453,1,8506,0.0009989999999999721
594000,11623,4397,131229,5898,-6539,134453,673,19126,2756,0,8507,0.0010010000000000296
594998,4628,-4585,127726,1764,246,128171,778,19147,3186,0,8508,0.0009980000000000544
596000,9618,8000,127836,2550,2611,124743,967,19147,3961,1,8509,0.0010019999999999474
596998,12486,5152,122953,4695,4284,125554,683,19197,3961,0,8510,0.0009979999999999434
598000,19548,11130,128010,-6380,3775,123936,708,19146,2797,0,8511,0.0010020000000000584
599000,8975,-5660,126100,13107,-10944,135154,708,19137,2900,1,8512,0.0010000000000000009
600000,-2615,-9185,128343,-7036,-9046,129047,873,19171,3576,1,8513,0.0010000000000000009
600998,14998,-12400,124379,-3888,-10700,135414,794,19148,3252,0,8514,0.0009979999999999434
601998,-7560,13016,127741,14784,16377,118612,740,19120,3031,1,8515,0.0010000000000000009
602998,10045,6185,123268,-36461,-7198,125752,557,19120,3031,1,8516,0.0010000000000000009
603998,10534,-2264,129935,3188,3935,124960,917,19161,2281,0,8517,0.0010000000000000009
604998,1624,-8837,128045,20515,-18715,139202,917,19153,3756,0,8518,0.0010000000000000009
605998,-7845,-8790,123871,-34548,-4040,122848,809,19114,3313,1,8519,0.0010000000000000009
606998,-7919,12281,129879,-26831,14164,120953,566,19153,2318,0,8520,0.0010000000000000009
607998,8733,22986,131604,25734,17945,125051,668,19150,2736,0,8521,0.0010000000000000009
608999,4215,-1450,120598,-6506,-3123,125783,921,19150,2736,1,8522,0.0010010000000000296
610000,-1151,18400,130875,-21810,12853,115923,673,19129,3772,1,8523,0.0010010000000000296
611005,12548,-8629,122073,10745,-7899,130407,673,19126,2756,0,8524,0.0010050000000000336
611998,19559,24309,129799,9210,16139,120688,629,19141,2576,1,8525,0.0009929999999999106
613001,7189,3280,131903,-10954,-3479,134859,702,19168,2875,1,8526,0.0010030000000000872
614000,9261,-6930,127444,7375,-9830,129055,755,19129,3092,0,8527,0.0009989999999999721
614998,4848,-3210,129421,-3103,-2186,133115,738,19129,3092,0,8528,0.0009979999999999434
615998,11181,3149,128449,8737,-470,128033,675,19131,3023,1,8529,0.0010000000000000009
616998,15601,7571,121165,4424,7777,120930,675,19175,2765,0,8530,0.0010000000000000009
617999,17739,15922,129308,-7522,7462,125013,797,19168,3264,0,8531,0.0010010000000000296
618999,7100,-3971,124906,11749,-6765,127213,770,19102,3154,1,8532,0.0010000000000000009
619998,738,-8353,127764,-8839,-14451,133870,557,19158,2281,1,8533,0.0009989999999999721
620998,8947,-15809,125394,2595,-14735,135168,943,19158,2281,0,8534,0.0010000000000000009
621999,-6118,13292,126393,9714,7764,121169,824,19165,3862,1,8535,0.0010010000000000296
623000,11574,-116,123901,-35126,-4388,125764,824,19149,3375,1,8536,0.0010010000000000296
623998,8745,11837,134137,3038,11278,119123,629,19139,2576,0,8537,0.0009979999999999434
624998,2653,-16674,123748,16431,-23238,143472,868,19146,3555,0,8538,0.0010000000000000009
625998,-10588,-3193,125999,-32460,-3348,119993,975,19173,3993,1,8539,0.0010000000000000009
627000,1618,9842,130354,-22829,3662,124828,670,19173,3993,0,8540,0.0010020000000000584
627998,3462,23015,130006,25321,20855,121581,714,19152,2744,0,8541,0.0009979999999999434
629004,4462,866,126260,-14463,-4103,123163,1148,19129,2924,1,8542,0.0010060000000000624
629998,-2337,14313,131116,-21948,12152,126431,1148,19195,4702,1,8543,0.0009939999999999394
630998,11368,-5834,120818,15440,-6403,119531,781,19146,3199,0,8544,0.0010000000000000009
631998,22081,26224,130890,4780,18675,127771,735,19119,3010,1,8545,0.0010000000000000009
632998,7298,-782,130707,-6151,-5940,132841,513,19119,2101,1,8546,0.0010000000000000009
633998,15110,-8886,127565,7458,-11408,129450,904,19153,2101,0,8547,0.0010000000000000009
634998,-266,-1830,130321,-2257,-3948,134058,799,19160,3703,0,8548,0.0010000000000000009
635998,10847,-417,126833,-6927,694,125131,799,19138,3272,1,8549,0.0010000000000000009
636998,12920,17333,124562,4982,16953,120560,577,19161,2363,0,8550,0.0010000000000000009
637998,12120,14856,130013,8970,-8451,133020,725,19154,2969,0,8551,0.0010000000000000009
638999,11116,-16571,118514,-811,-6204,119603,881,19154,3608,1,8552,0.0010010000000000296
640001,7438,318,130642,5843,-11319,140251,684,19150,3608,1,8553,0.0010019999999999474
640999,8106,-12626,123985,7269,-6053,130033,755,19131,2801,0,8554,0.0009980000000000544
641998,291,18747,126383,-29590,17503,109830,755,19148,3092,1,8555,0.0009989999999999721
643000,3054,8767,132990,-5051,-10778,144301,932,19189,3817,1,8556,0.0010020000000000584
643998,2100,-14105,125606,23905,-18316,128494,699,19102,2863,0,8557,0.0009979999999999434
644998,-5174,-19636,124531,-27379,-16047,136369,660,19102,2703,0,8558,0.0010000000000000009
645998,-5157,662,128509,-24390,15441,113475,843,19130,2703,1,8559,0.0010000000000000009
646999,11990,34101,132393,14634,33382,113807,784,19177,3453,0,8560,0.0010010000000000296
647998,2385,24482,131145,-9267,5001,131990,784,19173,3211,0,8561,0.0009989999999999721
648998,6983,-10491,121627,-9202,-6978,123315,770,19110,3154,1,8562,0.0010000000000000009
649998,-8420,2453,128690,7496,-284,130361,805,19163,3297,1,8563,0.0010000000000000009
650998,11547,1610,126715,369,9016,120600,838,19160,3432,0,8564,0.0010000000000000009
651998,13436,18714,130472,-4540,4139,126903,814,19160,3432,1,8565,0.0010000000000000009
652998,14762,-1331,130451,4844,1521,133055,654,19168,3334,1,8566,0.0010000000000000009
653998,6328,727,126719,7113,-638,126206,654,19142,2679,0,8567,0.0010000000000000009
654998,10735,1693,128698,-2040,-101,130592,794,19153,3252,1,8568,0.0010000000000000009
655998,6595,1012,126590,3857,-912,125727,920,19187,3768,1,8569,0.0010000000000000009
656998,20233,7421,122529,-643,3935,127103,673,19142,2756,0,8570,0.0010000000000000009
657998,15247,6720,127801,6634,5718,125191,682,19142,2756,0,8571,0.0010000000000000009
658999,7203,264,126129,1265,-7370,128528,1013,19132,2793,1,8572,0.0010010000000000296
659999,-929,-17673,124630,-6958,-14619,134986,1013,19183,4149,1,8573,0.0010000000000000009
661000,11661,-2933,126063,5561,-2716,129104,768,19134,3146,0,8574,0.0010009999999999186
662000,-5749,13493,125360,4601,9944,122871,726,19128,2973,1,8575,0.0010000000000000009
662998,7748,3717,124871,-33040,-3754,123258,655,19169,2683,1,8576,0.0009980000000000544
663998,8726,1575,132585,8573,-1949,130343,840,19169,2683,0,8577,0.0010000000000000009
664998,-417,-20755,124664,14504,-24379,139616,801,19137,3440,0,8578,0.0010000000000000009
665999,-8057,4190,126513,-28062,7579,116910,801,19100,3281,1,8579,0.0010010000000000296
666998,-1341,14398,128997,-27533,8361,125012,513,19159,2101,0,8580,0.0009989999999999721
667998,8340,23829,128568,22549,24915,119164,711,19149,2912,0,8581,0.0010000000000000009
668998,1781,509,122878,-8437,-1983,127833,866,19095,3547,1,8582,0.0010000000000000009
669998,820,14255,130367,-19411,8294,118310,582,19095,3547,0,8583,0.0010000000000000009
670998,10480,-8106,122974,13161,-7541,129560,673,19132,2384,0,8584,0.0010000000000000009
671998,20502,16906,130606,5454,9411,125447,673,19148,2756,1,8585,0.0010000000000000009
672998,10083,2290,130764,-6950,330,130778,807,19179,3305,1,8586,0.0010000000000000009
674000,7448,-4149,128063,10681,-6657,129649,722,19120,2957,0,8587,0.0010019999999999474
675000,3830,-2072,129078,-7556,-2721,133341,681,19134,2789,1,8588,0.0010000000000000009
676000,12877,4613,127264,6184,1708,125641,729,19134,2986,1,8589,0.0010000000000000009
677000,12228,10003,123264,7369,7176,123995,756,19172,2986,0,8590,0.0010000000000000009
677998,19192,11354,127886,-10968,6394,127212,737,19163,3096,0,8591,0.0009980000000000544
678998,5083,-6411,125291,12701,-9416,132567,737,19110,3019,1,8592,0.0010000000000000009
679998,2151,-10093,127546,-4742,-14660,136076,692,19165,2834,1,8593,0.0010000000000000009
680998,9526,-13565,124864,2338,-13240,125500,922,19172,3776,0,8594,0.0010000000000000009
681998,-3516,19336,127287,7233,13499,123616,789,19172,3232,1,8595,0.0010000000000000009
682998,9135,-1527,124316,-34785,5552,122432,598,19140,3232,1,8596,0.0010000000000000009
683998,5958,11143,133205,3481,-11388,138228,867,19144,2449,0,8597,0.0010000000000000009
684998,-198,-20783,124589,15648,-16553,129413,867,19154,3551,0,8598,0.0010000000000000009
685998,-12425,-154,126071,-31668,1276,121710,912,19156,3735,1,8599,0.0010000000000000009
686998,5445,13090,129823,13878,19652,123795,670,19140,2744,0,8600,0.0010000000000000009
687998,2174,24741,129012,1573,10678,121989,682,19140,2793,0,8601,0.0010000000000000009
689000,5412,-1516,122489,-16257,8124,121682,1060,19134,2793,1,8602,0.0010019999999999474
690002,-1103,17422,124365,-207,-7556,127550,734,19177,4341,0,8603,0.0010020000000000584
690998,12428,-6081,121187,9038,11886,119329,734,19148,3006,0,8604,0.0009959999999999969
691998,15979,22933,132456,-2031,2157,129501,717,19135,2937,1,8605,0.0010000000000000009
692998,11168,-5786,130355,1427,-3657,132733,583,19165,2388,1,8606,0.0010000000000000009
693999,5704,-5887,127543,5239,-3826,129786,834,19146,3416,0,8607,0.0010009999999999186
694998,7538,-214,130649,-2239,-1072,132041,774,19146,3416,1,8608,0.0009990000000000832
695998,10855,537,125708,4954,515,123683,510,19115,3170,1,8609,0.0010000000000000009
696998,17293,11871,123827,1321,10204,122433,510,19161,2089,0,8610,0.0010000000000000009
697998,16821,8142,127557,789,2797,127614,732,19158,2998,0,8611,0.0010000000000000009
698999,3529,-951,125680,9440,-6598,128653,838,19140,3432,1,8612,0.0010009999999999186
700000,3479,-14752,126411,-11842,-21978,136881,635,19138,2601,0,8613,0.0010010000000000296
700998,2886,-4873,126984,12764,3270,126522,773,19138,2601,0,8614,0.0009980000000000544
701999,2574,8008,124793,-12121,-2988,127433,928,19156,3166,1,8615,0.0010009999999999186
702999,4085,1656,126006,-23866,13001,118190,928,19193,3801,1,8616,0.0010000000000000009
703998,8962,12254,133355,26034,-10396,137998,674,19114,2761,0,8617,0.0009990000000000832
704998,-4483,-23556,122971,-5866,-15458,129343,703,19138,2879,0,8618,0.0010000000000000009
706000,-11127,3179,128572,-41700,-2577,124118,1018,19185,4169,1,8619,0.0010019999999999474
707000,5483,10680,128001,7999,16601,124339,752,19185,4169,0,8620,0.0010000000000000009
707998,591,27675,128937,4816,19588,118337,755,19161,3080,0,8621,0.0009980000000000544
708998,2606,-935,124435,-18124,2917,127472,755,19114,3092,1,8622,0.0010000000000000009
710000,1529,10463,128963,-1738,-2817,123371,863,19162,3535,0,8623,0.0010019999999999474
710998,14448,-628,123775,14425,9670,123379,880,19172,3604,0,8624,0.0009980000000000544
711998,17614,18920,132188,-935,3535,126777,782,19155,3203,1,8625,0.0010000000000000009
712998,12871,-6289,128905,-5267,-3572,131177,626,19155,3203,1,8626,0.0010000000000000009
713998,2127,-426,130985,6543,-1721,131784,858,19145,2564,0,8627,0.0010000000000000009
714999,7076,-3225,129878,369,-2534,132917,858,19153,3514,1,8628,0.0010009999999999186
715998,6892,2588,125562,6389,-1531,125810,871,19165,3567,1,8629,0.0009989999999999721
716998,17025,6230,123430,-7998,6406,124072,628,19135,2572,0,8630,0.0010000000000000009
718000,21395,10760,127178,2812,7892,124417,617,19149,2527,0,8631,0.0010020000000000584
718998,4632,2757,126493,20333,2136,124390,1013,19149,2527,1,8632,0.0009979999999999434
719999,12615,-17185,124490,-15203,-24920,137471,721,19192,4149,0,8633,0.0010010000000000296
721000,-6672,-2223,128289,12398,605,128140,721,19132,2953,0,8634,0.0010010000000000296
721998,7672,-1071,123646,-8682,-11426,133018,698,19137,2859,1,8635,0.0009979999999999434
722998,-6938,7434,128966,-29801,14816,114711,728,19173,2982,1,8636,0.0010000000000000009
723998,11847,7990,131669,16742,-6077,134143,781,19133,3199,0,8637,0.0010000000000000009
725000,-7780,-19151,122948,1208,-15081,114696,775,19133,3174,1,8638,0.0010020000000000584
726000,-2894,2374,128522,-34031,-3567,132211,694,19116,3174,1,8639,0.0010000000000000009
727000,4871,15323,127077,3239,15932,111707,727,19157,2842,0,8640,0.0010000000000000009
727998,3935,26379,129358,4618,21945,128812,727,19153,2978,0,8641,0.0009979999999999434
729007,-632,-3282,126040,-16533,3234,123708,828,19088,3391,1,8642,0.0010090000000000376
729998,-134,2702,127315,-7583,-7963,127847,534,19144,2187,0,8643,0.0009909999999999641
731003,11959,4131,126350,16232,15142,120776,749,19144,3068,0,8644,0.0010050000000000336
731998,15305,18439,131969,-6350,-4379,127950,901,19153,3068,1,8645,0.0009949999999999681
732998,14831,-2876,129977,-3423,4382,127165,696,19191,3690,1,8646,0.0010000000000000009
733998,5217,-1495,129550,15251,-11062,137651,696,19118,2851,0,8647,0.0010000000000000009
734999,11667,-3111,128214,4396,1169,121884,693,19138,2838,1,8648,0.0010010000000000296
735998,4368,6213,126995,-5840,-5539,131575,842,19188,3449,1,8649,0.0009989999999999721
736998,20412,3948,125191,5929,10814,119923,708,19149,2900,0,8650,0.0010000000000000009
737998,14423,9460,127537,8494,5087,126644,728,19149,2900,0,8651,0.0010000000000000009
738998,5930,-5482,126399,-2775,-19613,136063,785,19124,2982,1,8652,0.0010000000000000009
739998,3398,-19023,123142,-8019,-10253,124402,785,19160,3215,0,8653,0.0010000000000000009
740999,3503,4832,128256,10155,1636,133533,850,19163,3481,0,8654,0.0010010000000000296
741998,7098,865,122808,-13891,-502,121345,760,19115,3113,1,8655,0.0009989999999999721
742998,1020,12732,128953,-17164,18536,117614,528,19159,2163,1,8656,0.0010000000000000009
743998,8245,-3199,130117,21142,-28035,149862,986,19159,2163,0,8657,0.0010000000000000009
744998,-8700,-21516,123500,-11894,-6356,117111,845,19163,4038,1,8658,0.0010000000000000009
745998,-7862,-1646,127935,-40763,-7013,133829,845,19136,3461,1,8659,0.0010000000000000009
746998,7356,17681,127623,14216,31923,111757,633,19141,2593,0,8660,0.0010000000000000009
748009,4263,31523,127223,132,14609,122702,623,19140,2552,0,8661,0.0010109999999999841
748998,3031,-1675,125092,-15655,1247,126652,974,19155,3989,1,8662,0.0009890000000000176
749998,1806,5266,127243,2789,-7520,123957,706,19155,3989,0,8663,0.0010000000000000009
751004,11359,235,131806,9368,9866,126983,693,19137,2892,0,8664,0.0010060000000000624
752000,14220,10762,132650,-2390,-5366,128042,693,19137,2838,1,8665,0.0009959999999999969
752998,11296,1277,131923,3113,8070,126517,688,19172,2818,1,8666,0.0009979999999999434
754001,3824,-5160,128494,1291,-8223,137017,766,19138,3137,0,8667,0.0010029999999999761
754998,10639,2811,129522,2857,3731,122075,749,19117,3068,1,8668,0.0009970000000000256
755998,7116,6358,126912,-2690,-2194,131033,565,19117,3068,1,8669,0.0010000000000000009
757001,20069,5626,126544,3485,6557,120711,789,19165,2314,0,8670,0.0010029999999999761
757998,14303,6169,127155,8132,4968,125664,789,19161,3232,0,8671,0.0009970000000000256
759000,6535,-7986,125521,5017,-15995,136859,804,19111,3293,1,8672,0.0010020000000000584
759998,2866,-12628,126209,-15319,-10923,127205,565,19147,2314,0,8673,0.0009979999999999434
760998,4284,-1002,126845,16367,-1220,133096,777,19157,3182,0,8674,0.0010000000000000009
762000,2488,11633,126743,-14284,6112,120071,866,19157,3182,1,8675,0.0010020000000000584
762998,3569,1438,127054,-25338,3051,123570,639,19169,3547,1,8676,0.0009979999999999434
763998,5691,-2050,130629,25890,-11736,140279,639,19129,2617,0,8677,0.0010000000000000009
764998,-2993,-19692,123720,-3276,-16249,126834,807,19140,3305,1,8678,0.0010000000000000009
766000,-11126,5587,127867,-41988,2782,123879,1053,19200,4313,1,8679,0.0010020000000000584
766998,10278,19512,130137,3924,17545,122190,716,19152,2933,0,8680,0.0009979999999999434
768000,-208,17735,127344,12719,14887,122232,734,19152,3006,0,8681,0.0010020000000000584
768998,3054,3013,125527,-21439,5630,124190,1034,19129,3006,1,8682,0.0009979999999999434
770001,2208,8575,122224,-3384,-1093,122392,826,19178,4235,0,8683,0.0010029999999999761
770998,14186,908,125066,15766,5659,125896,826,19171,3383,0,8684,0.0009970000000000256
771998,12515,8848,133592,-3163,338,128487,760,19142,3113,1,8685,0.0010000000000000009
772998,12322,-1426,131004,-4759,2640,127906,583,19152,2388,1,8686,0.0010000000000000009
773999,3799,-3376,129069,11737,-3346,131414,946,19152,3875,0,8687,0.0010010000000000296
774999,8863,2129,130760,-2300,1260,127701,827,19166,3875,1,8688,0.0010000000000000009
775998,10896,1082,124516,1176,-4547,126058,612,19153,3387,1,8689,0.0009989999999999721
776998,17643,9017,127395,3058,10585,122043,612,19146,2507,0,8690,0.0010000000000000009
777998,15619,4871,127156,-650,-4757,126721,682,19150,2793,0,8691,0.0010000000000000009
778998,3209,-3617,125792,11007,-9876,130920,938,19163,3842,1,8692,0.0010000000000000009
780000,7102,-13695,127543,-12513,-18744,136273,689,19163,2822,0,8693,0.0010019999999999474
780998,2357,-4894,126011,12085,2246,124664,630,19115,2822,0,8694,0.0009980000000000544
781998,3245,10231,127384,-20993,-2431,124644,810,19145,2580,1,8695,0.0010000000000000009
783000,1118,-790,126774,-17148,8764,119884,810,19177,3318,1,8696,0.0010019999999999474
783998,8537,6844,131475,26723,-18350,142421,741,19126,3035,0,8697,0.0009980000000000544
784998,-6158,-19333,125029,-20364,-7216,122722,748,19122,3064,1,8698,0.0010000000000000009
785998,-10585,5581,127725,-39359,-882,123873,793,19168,3248,1,8699,0.0010000000000000009
786998,8120,13969,130311,23086,22154,122204,775,19168,3248,0,8700,0.0010000000000000009
787998,2466,19196,128749,-4014,-119,124979,802,19164,3174,0,8701,0.0010000000000000009
788998,2015,231,124610,-20567,10894,118447,802,19100,3285,1,8702,0.0010000000000000009
789998,3503,8554,128942,1216,-7284,128964,672,19150,2752,0,8703,0.0010000000000000009
790998,14877,5542,125646,11429,14284,119167,750,19162,3072,0,8704,0.0010000000000000009
792005,11473,10655,131106,-2435,-3161,132436,849,19179,3477,1,8705,0.0010069999999999801
792998,12047,-6143,131236,2668,-3599,128927,673,19179,3477,1,8706,0.0009930000000000216
794000,2707,-4528,129135,-2317,-6377,132479,786,19128,2756,0,8707,0.0010019999999999474
795004,11470,119,130467,2063,1047,128006,786,19146,3219,1,8708,0.0010040000000000049
796001,9665,4383,125304,3662,-2422,125498,971,19196,3977,1,8709,0.0009970000000000256
796998,18338,8118,127530,2403,12192,122391,678,19144,2777,0,8710,0.0009970000000000256
797998,14841,4302,126538,4426,1309,125975,706,19128,2892,0,8711,0.0010000000000000009
798998,2947,-1956,126394,3156,-11322,131263,862,19128,2892,1,8712,0.0010000000000000009
799998,8495,-16406,126735,-14186,-19320,135305,794,19177,3530,0,8713,0.0010000000000000009
800998,-230,-2963,126902,16302,-1352,128171,794,19151,3252,0,8714,0.0010000000000000009
801998,4558,7077,127695,-16256,67,124628,741,19118,3035,1,8715,0.0010000000000000009
803000,2812,1231,127358,-19204,10267,119772,556,19161,2277,1,8716,0.0010019999999999474
803998,7856,6715,131273,27035,-10272,138870,944,19168,3866,0,8717,0.0009980000000000544
805000,-5352,-19136,124046,-12063,-13049,126114,825,19168,3866,1,8718,0.0010019999999999474
805998,-10953,3870,128062,-43451,-373,123851,566,19107,3379,1,8719,0.0009980000000000544
806998,8189,13089,130683,17553,17220,124045,566,19148,2318,0,8720,0.0010000000000000009
807998,2893,20370,129022,-590,12333,120322,679,19147,2781,0,8721,0.0010000000000000009
808998,305,1660,126262,-17651,5554,124619,916,19136,3752,1,8722,0.0010000000000000009
810001,6380,4062,128005,1104,-6604,126891,677,19125,2773,0,8723,0.0010029999999999761
810998,14771,6484,124994,10648,13185,120755,625,19125,2773,0,8724,0.0009970000000000256
812000,12443,13682,135367,-4765,2696,127790,667,19140,2560,1,8725,0.0010019999999999474
812999,15451,-4821,130910,5485,-2360,129923,667,19169,2732,1,8726,0.0009989999999999721
814000,-485,-5317,130216,3585,-6998,133107,762,19124,3121,0,8727,0.0010010000000000296
815001,12883,-3071,130128,-6693,-3034,131358,734,19124,3006,1,8728,0.0010010000000000296
816002,7803,7684,123286,6331,2599,124314,689,19170,2822,1,8729,0.0010010000000000296
816998,17967,10085,127802,3577,9596,122370,801,19170,3281,0,8730,0.0009959999999999969
818001,15474,2707,126872,-2405,2765,126408,775,19173,3281,0,8731,0.0010029999999999761
818998,3719,-6315,126230,13070,-11444,132560,565,19104,3174,1,8732,0.0009970000000000256
820001,11798,-19277,125338,-5259,-17302,126323,565,19157,2314,0,8733,0.0010029999999999761
820998,-4670,6784,127917,2472,2475,133595,852,19165,3490,0,8734,0.0009970000000000256
822000,8985,-2234,126674,-13931,-3811,116045,817,19158,3346,1,8735,0.0010019999999999474
823000,-1037,14730,133229,-16622,18306,127914,626,19158,2564,1,8736,0.0010000000000000009
823998,9032,-12074,126371,21768,-20201,139451,823,19136,2564,0,8737,0.0009980000000000544
825000,-8689,-12739,126201,-6971,-6360,120145,976,19153,3371,1,8738,0.0010019999999999474
826000,-3122,-1528,127582,-38312,3754,128287,976,19173,3997,1,8739,0.0010000000000000009
826999,8154,27749,132287,9697,34111,110591,688,19149,2818,0,8740,0.0009989999999999721
828000,5767,18591,129559,2506,-10523,134299,711,19131,2912,0,8741,0.0010010000000000296
829000,-1793,-4172,125988,-16383,3550,118450,1147,19193,4698,1,8742,0.0010000000000000009
829998,4722,-1700,125186,11576,-3871,127485,772,19193,4698,0,8743,0.0009980000000000544
830998,14931,14115,129863,4116,14718,121726,735,19147,3162,0,8744,0.0010000000000000009
831998,12397,7034,132797,-3547,-4631,128627,735,19125,3010,1,8745,0.0010000000000000009
832998,15408,-2556,132495,6747,-4184,130603,509,19160,2085,1,8746,0.0010000000000000009
833999,392,-2343,129522,-5632,-4530,132472,894,19164,3662,0,8747,0.0010009999999999186
834998,13373,-1056,127800,6443,-1307,123187,796,19134,3260,1,8748,0.0009989999999999721
835999,6786,8413,126641,-2602,2623,127752,574,19134,3260,1,8749,0.0010010000000000296
836998,18335,6694,129983,-1545,4119,125058,732,19155,2351,0,8750,0.0009989999999999721
838000,13331,3660,128438,17928,-919,126394,732,19152,2998,0,8751,0.0010020000000000584
838998,-1182,-9445,126918,-11405,-24051,136077,881,19151,3608,1,8752,0.0009979999999999434
839998,14294,-22838,122549,-6462,-5020,123383,667,19137,2732,0,8753,0.0010000000000000009
840998,-1505,14226,129766,12414,1367,134185,696,19152,2851,0,8754,0.0010000000000000009
842000,12922,-204,123994,-15825,4925,117318,935,19152,2851,1,8755,0.0010020000000000584
843000,-3132,16467,134004,-17397,7373,123002,702,19188,3829,1,8756,0.0010000000000000009
843998,4989,-17672,127668,21380,-30090,147293,702,19109,2875,0,8757,0.0009979999999999434
844998,-13349,-16890,126061,-22037,-12251,121685,660,19130,2703,1,8758,0.0010000000000000009
845998,-4478,-1014,128294,-30440,4966,127428,859,19176,3518,1,8759,0.0010000000000000009
846999,8218,31579,127846,17964,32652,111269,783,19173,3207,0,8760,0.0010010000000000296
848000,10652,18079,127242,-7731,4914,125283,777,19173,3207,0,8761,0.0010010000000000296
848998,-717,2705,127338,-14989,198,122840,820,19109,3182,1,8762,0.0009979999999999434
850000,8455,-5420,123801,3529,-9709,128493,820,19164,3358,0,8763,0.0010020000000000584
851000,12320,9661,130212,6585,11783,123996,814,19162,3334,0,8764,0.0010000000000000009
851998,12178,3315,133273,-1385,-3388,129746,803,19165,3289,1,8765,0.0009979999999999434
852998,11529,3133,132894,4967,1029,126791,651,19146,2666,1,8766,0.0010000000000000009
854016,3815,-5574,128626,-4394,-6580,133469,798,19146,3268,0,8767,0.0010180000000000744
854998,12561,4416,129186,4975,839,123523,926,19145,3268,1,8768,0.0009819999999999274
855998,9891,4730,123429,-1887,-1685,129380,926,19183,3793,1,8769,0.0010000000000000009
856998,16816,7122,129767,4529,7865,121592,669,19138,2740,0,8770,0.0010000000000000009
857999,8889,3797,127146,9920,2431,126539,671,19138,2748,1,8771,0.0010010000000000296
859001,5339,-11531,125590,-3976,-20141,136088,1013,19189,4149,1,8772,0.0010020000000000584
859998,5804,-11258,127856,-15747,-8529,128247,755,19189,3092,0,8773,0.0009969999999999146
860998,5646,-1576,126309,21037,-3431,131484,726,19143,3092,0,8774,0.0010000000000000009
861998,-751,12204,129109,-16856,10347,117958,683,19119,2973,1,8775,0.0010000000000000009
862998,7880,-1415,129613,-23400,-904,125711,683,19167,2797,1,8776,0.0010000000000000009
863998,997,-5771,128870,27042,-12531,140688,830,19134,3399,0,8777,0.0010000000000000009
865001,-2274,-15686,126192,-9750,-12108,125519,792,19099,3244,1,8778,0.0010029999999999761
865998,-14570,9025,128589,-42016,4412,123620,531,19099,2175,1,8779,0.0009970000000000256
866998,12540,17179,132366,9655,17463,123421,715,19159,2175,0,8780,0.0010000000000000009
867998,2400,12122,127364,9504,8801,124709,867,19151,2928,0,8781,0.0010000000000000009
868998,3086,7092,126433,-21343,8711,116483,867,19094,3551,1,8782,0.0010000000000000009
869998,6345,2918,127952,-2881,-4401,130615,562,19136,2302,0,8783,0.0010000000000000009
870998,17834,9521,127063,13597,8804,122250,679,19149,2781,0,8784,0.0010000000000000009
871998,9559,3855,133909,2492,-3167,132507,824,19149,3375,1,8785,0.0010000000000000009
873000,13152,-1842,126820,-1097,-10332,129208,719,19181,3375,0,8786,0.0010020000000000584
873998,2484,-6366,130142,2128,1888,130052,668,19110,2945,0,8787,0.0009979999999999434
874998,12586,4849,126131,-490,-2338,130122,668,19134,2736,1,8788,0.0010000000000000009
876000,10465,2245,122252,6792,6266,121173,736,19185,3014,1,8789,0.0010020000000000584
876999,14350,14075,128319,-8920,7646,124150,740,19160,3031,0,8790,0.0009989999999999721
877998,15272,81,125617,12607,-5180,124643,744,19115,3047,1,8791,0.0009989999999999721
878998,2255,-4565,127951,-7722,-15103,134500,712,19115,3047,1,8792,0.0010000000000000009
879998,14500,-21610,124858,-2946,-21953,139301,914,19160,2916,0,8793,0.0010000000000000009
880998,-2798,-173,125917,17840,9202,118866,914,19175,3743,0,8794,0.0010000000000000009
881998,2263,9776,124528,-33661,-1431,126341,786,19144,3219,1,8795,0.0010000000000000009
882998,5648,1757,133254,-8653,11301,117095,589,19150,2412,0,8796,0.0010000000000000009
883998,5135,2954,125125,24416,-20049,144255,881,19161,3608,0,8797,0.0010000000000000009
884999,-1734,-19884,125461,-26118,-9286,122986,908,19161,3608,1,8798,0.0010010000000000296
885998,-12853,5624,129602,-28025,883,122768,664,19147,3719,1,8799,0.0009989999999999721
886998,7333,14158,129222,24196,22236,123254,664,19143,2720,0,8800,0.0010000000000000009
887998,4919,14021,122231,-12539,-3800,125349,670,19132,2744,0,8801,0.0010000000000000009
889001,-1373,7126,131782,-22343,16780,117993,1040,19177,4260,1,8802,0.0010029999999999761
889998,10505,-411,120965,10296,-11000,130890,725,19152,2969,0,8803,0.0009970000000000256
890998,15869,15471,131439,9767,18767,114663,711,19152,2969,1,8804,0.0010000000000000009
891998,10290,5367,130549,-7094,-5860,135903,538,19128,2912,1,8805,0.0010000000000000009
892999,16625,-7672,127482,4886,-11588,129005,538,19162,2203,0,8806,0.0010010000000000296
893998,2910,-2784,131609,-7054,-704,133491,849,19142,3477,0,8807,0.0009989999999999721
894998,11084,123,126154,6585,-2528,128860,774,19115,3170,1,8808,0.0010000000000000009
895998,9472,6321,122952,2432,3217,121265,498,19163,2040,1,8809,0.0010000000000000009
896998,16486,10042,127993,-707,11041,125144,731,19163,2040,0,8810,0.0010000000000000009
897999,15282,2000,125233,8735,-3346,123252,836,19159,2994,1,8811,0.0010010000000000296
898998,3648,-5894,127113,-3814,-15800,133655,836,19130,3424,1,8812,0.0009989999999999721
899999,13002,-21469,127158,-5443,-16179,133237,637,19139,2609,0,8813,0.0010010000000000296
901000,-6470,6984,123703,9501,-590,128626,778,19153,3186,0,8814,0.0010009999999999186
901998,5768,193,126549,-23476,544,123367,911,19191,3731,1,8815,0.0009980000000000544
902999,5641,13855,132120,-8037,14047,118213,668,19191,2736,0,8816,0.0010010000000000296
903998,6164,-12663,123159,23325,-24053,144547,716,19120,2736,0,8817,0.0009989999999999721
905000,-4447,-11431,128179,-26841,-7417,119024,1031,19133,2933,1,8818,0.0010019999999999474
905998,-6270,349,127859,-31008,-4394,129090,1031,19184,4223,0,8819,0.0009980000000000544
906998,3928,22659,129288,24273,29157,116269,758,19161,3105,0,8820,0.0010000000000000009
907998,5512,15588,123876,-15953,234,127265,753,19122,3084,1,8821,0.0010000000000000009
908998,-1704,3984,128894,-17651,8189,120678,879,19122,3600,1,8822,0.0010000000000000009
909998,11026,-6231,123192,12361,-10873,129782,885,19165,3600,0,8823,0.0010000000000000009
910998,16923,18393,131785,6347,16627,117661,785,19164,3625,1,8824,0.0010000000000000009
911998,9778,3696,129648,-1798,-3084,129485,785,19150,3215,1,8825,0.0010000000000000009
912998,19635,-1655,128729,4539,-2691,129291,627,19152,2568,0,8826,0.0010000000000000009
914006,-995,-1455,128890,-156,-5126,135294,849,19152,3477,0,8827,0.0010080000000000089
915000,9795,172,125703,-9842,-1989,124375,864,19152,3539,1,8828,0.0009939999999999394
915998,7092,8322,125747,3242,3041,125530,629,19166,3539,1,8829,0.0009980000000000544
916998,13131,8702,126411,14608,7880,128661,622,19136,2576,0,8830,0.0010000000000000009
917998,19541,-9798,122626,-3269,-10925,122818,622,19141,2548,1,8831,0.0010000000000000009
918998,1970,-421,128169,2066,-4297,132202,1016,19191,4161,1,8832,0.0010000000000000009
919998,18804,-5818,122225,5748,-9237,133981,716,19137,2933,0,8833,0.0010000000000000009
920998,-5483,3977,127724,-5962,11094,115966,694,19137,2842,0,8834,0.0010000000000000009
921998,4949,10660,130299,-24005,-7913,135185,726,19142,2842,1,8835,0.0010000000000000009
922998,463,-14223,126989,3720,-14983,130191,790,19173,2973,0,8836,0.0010000000000000009
923998,406,-15076,127088,-16375,-17213,134808,790,19130,3236,0,8837,0.0010000000000000009
924998,-7005,-12142,125633,-31946,-2292,122879,779,19105,3191,1,8838,0.0010000000000000009
925998,5666,23899,128421,10857,36241,109601,695,19165,2847,0,8839,0.0010000000000000009
926998,48,33886,128073,172,11386,127866,726,19158,2973,0,8840,0.0010000000000000009
927998,10070,1252,123064,-19500,-7305,123620,832,19158,2973,1,8841,0.0010000000000000009
928998,-4896,-3519,129323,19,-3641,128720,531,19089,3408,1,8842,0.0010000000000000009
929998,8432,-5552,126442,8400,-3325,127474,531,19150,2175,0,8843,0.0010000000000000009
930999,13920,14719,132373,-7127,14371,120082,764,19151,3129,1,8844,0.0010009999999999186
931999,14162,4474,130480,-1470,-1546,133849,899,19196,3682,1,8845,0.0010000000000000009
932998,15242,6218,125777,14763,-1083,125874,688,19118,2818,0,8846,0.0009990000000000832
933998,5197,-840,130004,-13877,1463,128824,688,19118,2818,0,8847,0.0010000000000000009
934998,10102,1935,125784,10203,-5696,127845,837,19138,2818,1,8848,0.0010000000000000009
935998,12573,2214,124670,2549,-243,127151,837,19185,3428,0,8849,0.0010000000000000009
936998,15879,5631,127602,2828,1538,128532,711,19153,2912,0,8850,0.0010000000000000009
937998,6647,3555,125611,4042,-322,121040,731,19119,2994,1,8851,0.0010000000000000009
938998,6805,-15046,125296,-13253,-18162,136942,782,19167,3203,1,8852,0.0010000000000000009
939998,9768,-7893,127686,5486,-1207,126728,845,19167,3203,0,8853,0.0010000000000000009
940998,1539,11830,125618,9117,5031,124835,763,19160,3461,1,8854,0.0010000000000000009
941998,3850,-575,125654,-24463,-5900,126173,763,19118,3125,1,8855,0.0010000000000000009
942998,5783,3240,132975,-9484,3072,121325,534,19159,2187,0,8856,0.0010000000000000009
944000,1878,-18615,123499,15117,-29535,147893,1011,19175,4141,0,8857,0.0010019999999999474
944998,-3841,-6501,129270,-18433,5841,114054,864,19146,3539,1,8858,0.0009980000000000544
945998,-11414,11697,127210,-33002,-30,127998,642,19146,3539,0,8859,0.0010000000000000009
946998,11859,17771,128733,18357,28550,115011,625,19137,2629,0,8860,0.0010000000000000009
947998,4792,19098,123617,-1781,-1480,125577,625,19146,2560,1,8861,0.0010000000000000009
949000,863,-1188,129453,-22033,5047,122050,986,19153,4038,1,8862,0.0010019999999999474
949998,10049,-3447,125150,5010,-10535,128328,711,19141,2912,0,8863,0.0009980000000000544
950998,14339,13836,132819,9639,11107,125830,687,19134,2814,1,8864,0.0010000000000000009
952002,9628,1809,129983,-2897,-285,128463,680,19134,2785,1,8865,0.0010039999999998939
952999,15322,5949,128759,2846,-3003,126824,779,19168,2785,0,8866,0.0009970000000000256
954000,4654,-4810,128074,-6154,-4549,133540,759,19138,3191,0,8867,0.0010010000000000296
955000,13965,1853,126446,7322,-661,123839,759,19123,3109,1,8868,0.0010000000000000009
955998,10796,4726,126447,4851,-612,129473,561,19163,2298,0,8869,0.0009979999999999434
956998,16787,10464,126296,1155,7603,121757,793,19159,3248,0,8870,0.0010000000000000009
957999,9533,-367,126010,3954,-5811,126697,799,19159,3272,1,8871,0.0010010000000000296
958998,-215,-9423,127619,-2508,-11929,133575,559,19111,3272,1,8872,0.0009989999999999721
959998,16086,-12243,123977,-13612,-15461,132706,777,19147,2289,0,8873,0.0010000000000000009
960999,-4975,5437,128443,20257,2842,125696,777,19153,3182,1,8874,0.0010010000000000296
961998,6076,8253,124842,-17658,2477,123578,868,19161,3555,1,8875,0.0009989999999999721
962998,8461,-1718,131930,-21062,478,129472,650,19129,2662,0,8876,0.0010000000000000009
963998,2755,-6085,126604,25661,-12086,136444,863,19129,3535,0,8877,0.0010000000000000009
964999,-3267,-9354,125435,-16087,-10182,121939,1046,19146,3535,1,8878,0.0010010000000000296
966000,-11486,6737,130575,-39897,14134,122410,724,19194,4284,0,8879,0.0010010000000000296
966998,8062,19820,128066,20277,14127,124550,724,19152,2965,0,8880,0.0009979999999999434
967998,3868,4358,123016,-1417,2253,123426,743,19125,3043,1,8881,0.0010000000000000009
968998,-121,12567,132507,-22674,9485,119353,1050,19175,4300,1,8882,0.0010000000000000009
969998,11844,-2165,122597,399,-2182,128362,816,19164,3342,0,8883,0.0010000000000000009
970998,17307,17507,133075,4481,9659,124096,751,19164,3342,1,8884,0.0010000000000000009
971998,9044,2058,131356,-11661,-2464,132700,581,19134,3076,1,8885,0.0010000000000000009
972998,15989,-2769,127298,13778,-7605,129976,581,19155,2380,0,8886,0.0010000000000000009
973998,4010,-4612,131592,-1513,516,132209,950,19166,3891,0,8887,0.0010000000000000009
975000,10217,3056,125208,1558,-2501,127767,831,19159,3404,1,8888,0.0010020000000000584
975999,11225,3185,125955,5239,10078,120869,610,19147,2498,0,8889,0.0009989999999999721
976998,16530,17807,127098,-4280,5439,126017,682,19147,2498,0,8890,0.0009989999999999721
977999,11018,-1361,124842,10281,-5903,126184,931,19145,2793,1,8891,0.0010010000000000296
978998,2554,-7825,127769,-9926,-15797,135344,931,19164,3813,1,8892,0.0009989999999999721
980000,12872,-16423,126030,9821,-12492,134475,692,19116,2834,0,8893,0.0010020000000000584
980998,-5306,5405,126815,3132,4959,122493,631,19146,2584,1,8894,0.0009979999999999434
981998,6012,4948,127052,-37451,-165,123215,817,19181,3346,1,8895,0.0010000000000000009
983000,7610,8309,130938,7244,7963,123027,730,19181,3346,0,8896,0.0010020000000000584
983999,4563,-9759,124171,16052,-20020,140072,743,19128,2990,0,8897,0.0009989999999999721
984998,-6813,-6769,126950,-35276,-4471,120697,743,19116,3043,1,8898,0.0009989999999999721
985998,-5145,4088,129758,-16100,5094,124386,808,19165,3309,0,8899,0.0010000000000000009
986998,4627,20770,129397,22763,21061,122030,786,19161,3219,0,8900,0.0010000000000000009
987998,5443,4609,124770,-15859,-2676,126643,803,19099,3289,1,8901,0.0010000000000000009
988998,-1107,11309,129277,-20376,12609,117707,675,19099,3289,1,8902,0.0010000000000000009
989998,11471,-3801,124689,16409,-2034,127375,752,19153,2765,0,8903,0.0010000000000000009
990998,16697,21877,132907,3851,12610,121533,752,19155,3080,1,8904,0.0010000000000000009
991999,11117,-825,131434,-8249,-6441,133800,847,19179,3469,1,8905,0.0010010000000000296
992998,13333,-2985,128989,9548,-7887,129569,673,19125,2756,0,8906,0.0009989999999999721
994001,5885,-3422,131264,-7531,-1681,133589,778,19147,3186,0,8907,0.0010029999999999761
995000,8019,4518,125279,11015,-1723,126625,967,19147,3961,1,8908,0.0009990000000000832
995998,11665,5437,126722,-123,4142,123847,676,19198,3961,0,8909,0.0009979999999999434
996998,16816,12862,126335,-4183,6221,124227,707,19144,2769,0,8910,0.0010000000000000009
997998,10409,1140,126986,13439,-1011,123867,707,19131,2896,1,8911,0.0010000000000000009
998998,4441,-10286,125391,-13231,-16905,136131,868,19177,3555,1,8912,0.0010000000000000009
999998,7627,-14661,128442,5536,-9723,128955,792,19145,3244,0,8913,0.0010000000000000009
1000998,-2715,10396,126010,5072,-42,128696,740,19145,3031,1,8914,0.001000000000000112
1001998,6721,-3236,127121,-27073,-4518,124561,555,19114,3031,1,8915,0.0009999999999998899
1002998,8633,16536,131089,-3251,12677,117120,910,19163,2273,0,8916,0.001000000000000112
1003998,2607,-18880,123268,15356,-25782,146300,910,19152,3727,0,8917,0.0009999999999998899
1004998,-8198,-535,129293,-28980,-416,114953,827,19105,3387,1,8918,0.001000000000000112
1006001,-582,3400,129447,-23017,-2388,131068,576,19148,2359,0,8919,0.0010029999999998651
1006998,2931,22084,128841,23814,24658,116825,684,19148,2801,0,8920,0.0009970000000001367
1007998,6597,9039,126549,-17355,-1304,125535,914,19144,2801,1,8921,0.0009999999999998899
1009000,-1664,4412,126677,-16925,5368,123646,677,19142,3743,1,8922,0.0010019999999999474
1010000,13083,-4433,126033,15631,-6618,122240,677,19125,2773,0,8923,0.001000000000000112
1011004,14369,22927,134562,-981,16234,127156,626,19146,2564,1,8924,0.0010040000000000049
1012000,14388,2573,130686,-5005,-2669,128673,714,19175,2924,1,8925,0.0009959999999999969
1013000,9130,-177,129148,14739,-6236,135737,742,19131,3039,0,8926,0.0009999999999998899
1014000,4349,-6642,129269,-16724,-1784,129548,726,19131,3039,0,8927,0.001000000000000112
1014999,8716,3143,126868,4952,1971,124775,694,19131,2973,1,8928,0.0009989999999999721
1015998,13047,9363,128473,12142,7597,125016,694,19173,2842,0,8929,0.0009989999999999721
1016998,20849,9368,127008,-2504,4194,124027,800,19172,3277,0,8930,0.0009999999999998899
1017998,8988,-732,125580,13747,-10477,133921,772,19103,3162,1,8931,0.001000000000000112
1018998,4949,-16150,125468,-1377,-13297,128467,563,19155,2306,1,8932,0.0009999999999998899
1019998,4697,278,126513,-130,-1301,132856,853,19155,2306,0,8933,0.001000000000000112
1020998,-71,411,126716,-11694,-2496,126305,818,19164,3494,1,8934,0.0009999999999998899
1021998,4553,10244,132701,-17933,15886,115119,818,19157,3350,1,8935,0.001000000000000112
1022998,6212,4015,126030,15824,-17827,142926,628,19141,2572,0,8936,0.0009999999999998899
1023998,2026,-19666,127485,-2920,-8689,122639,821,19149,3363,0,8937,0.001000000000000112
1025000,-8723,-3292,126027,-32023,-11141,133100,970,19169,3973,1,8938,0.0010019999999999474
1025998,1560,7605,131321,3341,28702,113473,683,19169,3973,0,8939,0.0009980000000000544
1026998,2217,34613,129814,3462,17276,121958,709,19151,2797,0,8940,0.0009999999999998899
1027998,2872,333,125585,-14841,-5307,131396,709,19135,2904,1,8941,0.001000000000000112
1029000,-2236,1335,126612,-3821,-2009,120418,1143,19197,4681,1,8942,0.0010019999999999474
1029998,11343,-588,129220,9856,6725,127157,772,19147,3162,0,8943,0.0009980000000000544
1030998,18575,22647,132122,-2573,7200,124198,735,19114,3010,1,8944,0.0009999999999998899
1031998,14496,-333,132307,-1033,1982,127908,505,19114,3010,1,8945,0.001000000000000112
1032998,11448,278,128159,9867,-6449,135809,894,19161,2068,0,8946,0.0009999999999998899
1033998,10737,-3595,129527,-2094,1335,125485,894,19162,3662,0,8947,0.001000000000000112
1034998,3793,3521,126482,4427,-1364,129597,796,19137,3260,1,8948,0.0009999999999998899
1035998,15215,7087,129082,-4529,7138,124001,574,19157,2351,0,8949,0.001000000000000112
1036998,18227,10530,126980,1910,1092,127706,730,19154,2990,0,8950,0.0009999999999998899
1037999,3943,-1181,126858,14338,-4872,127153,875,19154,2990,1,8951,0.0010010000000000296
1038998,5755,-15444,122417,-18320,-22793,134550,667,19148,3584,1,8952,0.0009989999999999721
1039998,5536,-5070,129627,17554,3661,128151,667,19122,2732,0,8953,0.001000000000000112
1040998,5351,13569,125636,-2120,1019,127684,701,19145,2871,1,8954,0.0009999999999998899
1041998,2172,4566,132446,-32174,9682,115242,959,19194,3928,1,8955,0.001000000000000112
1042999,9299,8557,127792,9561,-7297,134611,698,19097,2859,0,8956,0.0010010000000000296
1043998,-4473,-29450,124654,8755,-28158,139185,664,19097,2720,0,8957,0.0009989999999999721
1045007,-7970,-2152,128722,-33571,-2606,120755,886,19126,2720,1,8958,0.0010090000000000376
1045999,15,14628,131606,-10870,17515,122052,801,19173,3629,0,8959,0.0009919999999998819
1046998,5535,32936,128067,14406,25934,114783,801,19170,3281,0,8960,0.0009989999999999721
1047998,3769,1690,126821,-10938,-4301,131079,783,19107,3207,1,8961,0.001000000000000112
1048998,-1051,3050,126042,-18209,1540,120078,827,19160,3387,1,8962,0.0009999999999998899
1049998,12666,-4712,130226,16724,-2666,128583,822,19160,3367,0,8963,0.001000000000000112
1050998,16846,21363,133180,186,10414,124599,805,19158,3367,1,8964,0.0009999999999998899
1051998,11991,-2439,132373,-5226,-2275,128125,648,19160,3297,1,8965,0.001000000000000112
1052998,9228,1464,128002,6477,-5553,132123,648,19148,2654,0,8966,0.0009999999999998899
1053998,9076,194,130089,-6663,1734,128511,795,19151,3256,0,8967,0.001000000000000112
1055001,5873,5087,124909,10907,1,125866,919,19186,3764,1,8968,0.0010029999999998651
1055998,16589,5051,129504,-45,1257,127797,663,19144,2715,0,8969,0.0009970000000001367
1056998,17418,11130,128178,830,5994,128644,667,19144,2715,0,8970,0.0009999999999998899
1058000,9695,-4361,125491,8436,-8736,132769,1023,19137,2732,1,8971,0.0010020000000001694
1058999,-2397,-9916,127703,-9427,-11546,130599,1023,19189,4190,1,8972,0.0009989999999999721
1060000,12648,-10741,125899,-6016,-14997,132217,750,19144,3072,0,8973,0.0010010000000000296
1060998,-7422,11800,129978,19805,10795,119523,723,19130,2961,1,8974,0.0009979999999998324
1061998,8190,6012,127538,-31147,-1687,124649,689,19166,2822,1,8975,0.001000000000000112
1062998,9300,1947,130952,-11377,-3296,133490,836,19166,2822,0,8976,0.0009999999999998899
1063998,1496,-11841,126174,22944,-16267,132621,800,19131,3424,0,8977,0.001000000000000112
1064998,-5654,-4290,127226,-19590,748,122502,800,19099,3277,1,8978,0.0009999999999998899
1065998,-3952,9255,132992,-6148,15359,122465,516,19160,2113,0,8979,0.001000000000000112
1066998,6840,21790,128512,17632,15006,123147,715,19150,2928,0,8980,0.0009999999999998899
1067998,1956,657,125866,-16349,6953,123114,870,19089,3563,1,8981,0.001000000000000112
1068998,-1464,15254,129270,-10503,-1038,124306,575,19089,3563,1,8982,0.0009999999999998899
1069998,11685,-5867,126017,13213,6132,125104,675,19135,2355,0,8983,0.001000000000000112
1070999,19740,20372,134373,4432,4638,126019,675,19147,2765,1,8984,0.0010010000000000296
1071998,9130,1902,131745,-2831,-711,131568,805,19182,3297,1,8985,0.0009989999999999721
1072998,9428,-6038,128198,7067,-9153,130851,722,19118,2957,0,8986,0.0009999999999998899
1073998,5465,-1477,131131,-2526,1258,131364,678,19133,2777,0,8987,0.001000000000000112
1074998,10340,3810,125021,7381,-54,127339,738,19133,2777,1,8988,0.0009999999999998899
1076001,12789,10477,129268,-1155,12195,119351,760,19171,3023,0,8989,0.0010030000000000872
1077000,18064,12216,127198,-5929,1367,129105,760,19157,3113,0,8990,0.0009989999999999721
1077998,6210,-4066,126393,15735,-5226,127492,747,19115,3059,1,8991,0.0009980000000000544
1078998,3236,-10114,126857,-10324,-20616,137868,690,19164,2826,1,8992,0.0009999999999998899
1079998,9942,-17237,127307,9732,-5258,130294,922,19176,3776,0,8993,0.001000000000000112
1081000,-5267,16632,128514,-1275,7006,122583,792,19176,3776,1,8994,0.0010019999999999474
1081998,9106,366,127934,-36925,652,123656,596,19141,3244,1,8995,0.0009980000000000544
1082998,8015,14502,130492,18160,5715,125750,596,19150,2441,0,8996,0.0009999999999998899
1083998,915,-17361,124275,7651,-22824,140016,967,19159,3961,0,8997,0.001000000000000112
1084998,-10816,-4892,128620,-39469,-927,120175,907,19154,3715,1,8998,0.0009999999999998899
1085998,2310,9830,133929,-7315,11733,124873,681,19145,2789,0,8999,0.001000000000000112
1086998,3044,22745,128162,16235,19638,120963,686,19145,2810,0,9000,0.0009999999999998899
1087998,5018,1813,127152,-15576,1849,125576,1061,19142,2810,1,9001,0.001000000000000112
1088998,-462,13467,126439,-12099,4480,123514,732,19177,4346,0,9002,0.0009999999999998899
1089999,12723,-4708,126903,19967,2037,123731,732,19152,2998,0,9003,0.0010010000000000296
1090998,19514,24808,134681,453,11301,123596,712,19124,2916,1,9004,0.0009989999999999721
1091998,8194,-2633,130078,-8610,-6668,133960,582,19169,2384,1,9005,0.001000000000000112
1092999,11202,-7339,131178,17089,-4702,127708,835,19169,3420,0,9006,0.0010010000000000296
1093998,1266,2165,130405,-11929,-1094,136655,775,19147,3420,1,9007,0.0009989999999999721
1094998,15780,-638,126336,2272,565,123747,504,19114,3174,1,9008,0.0009999999999998899
1095999,7481,15761,129598,17801,9073,124349,504,19162,2064,0,9009,0.0010010000000000296
1096998,19544,3401,123727,-21787,-5670,129706,727,19155,2978,0,9010,0.0009989999999999721
1097998,6729,-3824,127141,18106,-2425,120226,834,19136,3416,1,9011,0.001000000000000112
1098998,8608,-2935,127227,2585,-7612,134564,637,19136,2609,1,9012,0.0009999999999998899
1099998,5717,-8126,124814,3599,-11457,132972,775,19145,2609,0,9013,0.001000000000000112
1101010,-1241,9782,132450,-11329,6080,121684,924,19149,3174,1,9014,0.0010120000000000129
1101998,2659,247,129721,-21824,-4636,129638,924,19189,3784,1,9015,0.0009879999999999889
1103003,2589,-4682,127869,14342,-7528,131868,673,19113,2756,0,9016,0.0010049999999999226
1104000,-668,-10071,127420,-2601,-12951,131090,701,19139,2871,0,9017,0.0009969999999999146
1104999,-8764,-7697,126100,-31434,-9343,115247,1025,19180,4198,1,9018,0.0009989999999999721
1106000,7567,32286,134854,670,33038,118249,758,19180,4198,0,9019,0.0010010000000000296
1107000,773,23281,126725,5663,13626,129566,757,19161,3105,0,9020,0.001000000000000112
1107998,5040,-7313,126386,-15530,-6839,121488,757,19116,3100,1,9021,0.0009980000000000544
1108998,-5500,4766,127887,-7792,-7719,134486,865,19165,3543,0,9022,0.0009999999999998899
1109998,15964,-1660,129601,10188,14591,115185,877,19170,3592,0,9023,0.001000000000000112
1110998,15944,22143,133013,1450,-1557,132400,781,19163,3199,1,9024,0.0009999999999998899
1111998,13466,-3107,131638,-5554,3250,127294,629,19163,3199,1,9025,0.001000000000000112
1112998,6143,-1439,127698,705,-2511,129028,855,19147,2576,0,9026,0.0009999999999998899
1113999,10672,3204,129933,3622,743,130273,855,19163,3502,1,9027,0.0010010000000000296
1115001,4714,2164,125835,-2319,-1110,123296,869,19167,3559,1,9028,0.0010019999999999474
1115999,19926,8243,129070,-886,1888,128455,626,19138,2564,0,9029,0.0009980000000000544
1116998,15686,2990,129399,16916,3146,126503,618,19146,2531,0,9030,0.0009989999999999721
1117998,4754,600,123902,-3762,-14427,131064,1012,19146,2531,1,9031,0.001000000000000112
1118998,3249,-17778,125647,-14833,-15687,133229,721,19198,4145,0,9032,0.0009999999999998899
1119998,7730,2883,129273,18839,10807,122825,721,19129,2953,0,9033,0.001000000000000112
1120998,881,13407,124911,-14931,-5041,130795,696,19126,2851,1,9034,0.0009999999999998899
1121998,3050,-1616,133542,-23181,9412,116776,726,19179,2973,1,9035,0.001000000000000112
1122998,6926,8469,125566,21398,-20278,145497,768,19128,3146,0,9036,0.0009999999999998899
1123998,-3626,-28956,124501,-2037,-16547,127479,775,19128,3146,0,9037,0.001000000000000112
1124998,-9550,9793,130296,-37331,6743,121540,676,19108,3174,1,9038,0.0009999999999998899
1125998,3686,12632,130448,-127,16052,124902,676,19165,2769,0,9039,0.001000000000000112
1126998,5859,28688,128621,11875,23481,113597,714,19156,2924,0,9040,0.0009999999999998899
1127998,1631,3089,127686,-16048,574,130750,831,19085,3404,1,9041,0.001000000000000112
1128998,-1105,6145,124113,-6370,-8064,123494,521,19152,2134,0,9042,0.0009999999999998899
1129998,12378,-6328,132325,11377,8907,125405,781,19152,2134,0,9043,0.001000000000000112
1130998,17721,18176,131376,298,-1408,131312,897,19159,3199,1,9044,0.0009999999999998899
1131998,12145,-2110,132686,1876,6538,123697,897,19189,3674,1,9045,0.001000000000000112
1132998,6744,-1990,129520,2951,-5061,134664,696,19123,2851,0,9046,0.0009999999999998899
1133999,7988,177,128516,1684,1678,127579,698,19141,2859,1,9047,0.0010010000000000296
1134998,12545,3437,124935,3230,1682,126661,851,19179,3485,1,9048,0.0009989999999999721
1135999,11878,9087,130043,577,8672,123219,723,19179,2961,0,9049,0.0010010000000000296
1136998,17300,6283,126657,-3883,-24,126126,731,19152,2961,0,9050,0.0009989999999999721
1137998,4693,-6028,127706,14127,-7480,131980,788,19122,2994,1,9051,0.0009999999999998899
1138998,-626,-8174,126368,-10435,-14209,132563,788,19164,3227,0,9052,0.001000000000000112
1139998,12972,-13836,126341,4570,-9798,133251,855,19147,3502,0,9053,0.0009999999999998899
1140998,-8273,20503,129334,3194,15133,118187,765,19121,3133,1,9054,0.001000000000000112
1141998,11602,976,128260,-33904,-4365,126124,528,19121,2163,1,9055,0.0009999999999998899
1142998,5317,6025,129539,13477,4022,127024,997,19160,2163,0,9056,0.001000000000000112
1143998,-1257,-16605,124909,9163,-22148,139439,863,19182,4083,1,9057,0.0009999999999998899
1144998,-10671,-5383,128275,-37271,-1610,121335,863,19137,3535,1,9058,0.001000000000000112
1145998,4016,20235,134953,-12380,16928,120915,625,19143,2560,0,9059,0.0009999999999998899
1146998,4789,19266,124741,19299,15262,125322,618,19147,2531,0,9060,0.001000000000000112
1147998,5219,-1638,128341,-14813,3970,122176,970,19138,3973,1,9061,0.0009999999999998899
1149000,-279,19765,125574,-12577,6126,122512,713,19138,3973,0,9062,0.0010020000000001694
1149998,13945,-6159,127660,15629,-973,126154,685,19134,2920,0,9063,0.0009979999999998324
1150999,16901,20259,133620,3491,9037,123845,685,19137,2806,1,9064,0.0010010000000000296
1151998,8718,-4563,130814,-10069,-4550,128492,686,19169,2810,1,9065,0.0009989999999999721
1153000,6405,-7009,129863,12577,-6180,131384,789,19142,3232,0,9066,0.0010020000000001694
1153998,5194,-143,130159,-3042,-973,130830,756,19116,3096,1,9067,0.0009979999999998324
1154998,13324,2605,123138,5002,295,122520,578,19116,3096,1,9068,0.001000000000000112
1155999,16142,11958,129572,3348,13976,121790,789,19164,2367,0,9069,0.0010010000000000296
1157000,16557,10171,126818,-5475,-1736,125760,789,19161,3232,0,9070,0.0010010000000000296
1158000,5702,-4514,126208,12925,-12210,131594,799,19111,3272,1,9071,0.0009999999999998899
1159000,2243,-14132,126500,-8771,-22264,138508,566,19151,2318,0,9072,0.001000000000000112
1160000,4907,-10637,126903,15648,1435,125322,781,19163,3199,0,9073,0.0009999999999998899
1160998,-912,12882,126664,-16436,2190,123849,864,19163,3199,1,9074,0.0009980000000000544
1161998,4871,1665,132130,-20025,10288,120626,642,19170,3539,1,9075,0.0009999999999998899
1162998,8968,11176,126684,26857,-13069,139160,642,19128,2629,0,9076,0.001000000000000112
1163998,-2186,-20848,125027,-13096,-13679,127239,803,19145,3289,1,9077,0.0009999999999998899
1165001,-9893,1149,130262,-39735,118,122665,1048,19195,4292,1,9078,0.0010030000000000872
1165998,5394,11676,132636,16259,17217,124297,729,19150,2986,0,9079,0.0009969999999999146
1166998,-936,23651,127258,-4261,8578,122318,740,19150,2986,0,9080,0.001000000000000112
1167999,4438,-1955,128787,-18948,7548,122616,1033,19129,3031,1,9081,0.0010010000000000296
1168998,1183,13383,122941,4287,-5714,127041,1033,19179,4231,0,9082,0.0009989999999999721
1169998,14929,1128,129124,10825,13634,118073,814,19161,3334,0,9083,0.0009999999999998899
1170998,15479,17199,132533,-4034,83,129477,757,19144,3100,1,9084,0.001000000000000112
1171998,12469,-4893,131271,3066,-2832,131143,584,19153,2392,1,9085,0.0009999999999998899
1172998,4564,-6138,131119,3872,-5910,132994,946,19153,2392,0,9086,0.001000000000000112
1173998,7030,-416,128869,-2529,-2371,130161,823,19166,3875,1,9087,0.0009999999999998899
1174998,8533,2385,123591,1349,-800,124155,823,19162,3371,1,9088,0.001000000000000112
1176000,19031,9860,128384,3851,9400,123052,604,19148,2474,0,9089,0.0010019999999999474
1177000,17286,7512,126582,4637,3305,126559,682,19151,2793,0,9090,0.001000000000000112
1178000,3722,-1581,126887,4003,-8794,129626,940,19171,3850,1,9091,0.0009999999999998899
1178998,9942,-18996,126920,-6222,-18406,133894,693,19171,2838,0,9092,0.0009980000000000544
1179998,-3909,2323,126390,8347,2184,129611,627,19117,2838,0,9093,0.0009999999999998899
1180998,7332,-1337,124749,-17616,-7507,126530,813,19139,2568,1,9094,0.001000000000000112
1181998,-2070,10262,136218,-16912,21411,116534,813,19180,3330,1,9095,0.0009999999999998899
1183001,10748,2230,122599,26615,-21126,143870,733,19134,3002,0,9096,0.0010030000000000872
1183998,-7579,-19847,128784,-14626,-7765,121284,749,19123,3068,1,9097,0.0009969999999999146
1184998,-5856,295,129193,-38810,-6852,130291,806,19123,3301,1,9098,0.001000000000000112
1185998,6475,16064,131311,16750,24409,118035,786,19169,3301,0,9099,0.0009999999999998899
1186998,1886,28632,126958,-3913,16615,121167,796,19161,3219,0,9100,0.001000000000000112
1187998,919,-1983,127799,-16725,87,128552,796,19097,3260,1,9101,0.0009999999999998899
1188998,1495,3466,122848,5159,-5441,123937,673,19155,2756,0,9102,0.001000000000000112
1189998,14174,4824,131757,7835,11942,123249,751,19155,3076,0,9103,0.0009999999999998899
1191000,12797,14201,130011,-986,840,126746,852,19184,3490,1,9104,0.0010019999999999474
1191998,17968,-3713,132128,-1994,2209,128445,671,19184,3490,1,9105,0.0009980000000000544
1192998,-1483,595,130259,11110,-2677,134282,782,19137,2748,0,9106,0.001000000000000112
1193998,11809,-3930,126670,-10408,-5373,131646,782,19145,3203,1,9107,0.0009999999999998899
1195000,6912,5437,126803,6585,3962,123562,967,19197,3961,1,9108,0.0010019999999999474
1195999,13288,6619,126268,5677,1701,128575,678,19152,2777,0,9109,0.0009990000000001942
1197000,23516,-1615,126225,-8841,1110,124309,707,19129,2896,0,9110,0.0010009999999998076
1197998,-1242,3893,128077,20077,-252,125259,863,19129,2896,1,9111,0.0009980000000000544
1198998,18127,-12765,124856,-5848,-12501,128331,791,19173,3535,0,9112,0.001000000000000112
1199998,-5436,490,127396,-116,-2095,130897,791,19149,3240,0,9113,0.0009999999999998899
1200999,8184,2919,128812,-12004,708,121171,740,19116,3031,1,9114,0.0010010000000000296
1201998,-3530,4057,130754,-18913,2950,132004,555,19160,2273,1,9115,0.0009989999999999721
1202998,6328,-11446,126743,22613,-14798,135805,907,19148,3715,0,9116,0.001000000000000112
1203998,-9983,-11350,125218,-15227,-14089,126106,828,19148,3715,1,9117,0.0009999999999998899
1204998,1757,-765,129878,-31190,25733,112993,576,19118,3391,1,9118,0.001000000000000112
1205998,5135,43274,131020,11164,21257,121836,576,19149,2359,0,9119,0.0009999999999998899
1207000,6605,6701,124188,-3118,-6996,126114,683,19150,2797,0,9120,0.0010019999999999474
1207999,83,-2228,128727,-11122,-663,124042,919,19140,3764,1,9121,0.0009990000000001942
1208998,-330,520,125450,6124,-5905,131804,681,19120,2789,0,9122,0.0009989999999999721
1209998,14020,5014,130714,4958,12113,118060,624,19120,2789,0,9123,0.0009999999999998899
1211004,14071,11433,130326,-4040,-1225,131521,704,19140,2556,1,9124,0.0010060000000000624
1212000,11451,1363,129301,7414,1744,125842,704,19177,2883,1,9125,0.0009959999999999969
1212999,6349,-1666,129167,-3161,-378,129116,741,19129,3035,0,9126,0.0009989999999999721
1213998,8803,3483,127174,2571,-3208,128445,732,19121,2998,1,9127,0.0009989999999999721
1214998,7132,1985,123490,-4491,-6038,128569,688,19175,2818,1,9128,0.001000000000000112
1216000,20137,3539,128311,11285,7059,125996,808,19175,2818,0,9129,0.0010019999999999474
1216998,9055,3101,129001,10282,1621,122398,770,19168,3309,0,9130,0.0009980000000000544
1217998,10056,-6053,123133,-13989,-21676,137162,770,19104,3154,1,9131,0.0009999999999998899
1218998,288,-15741,127555,-4367,-5001,126713,541,19159,2216,0,9132,0.001000000000000112
1219998,9120,11233,127370,13435,4243,125578,832,19164,3408,0,9133,0.0009999999999998899
1220998,1772,1646,123831,-18588,-2200,126896,826,19159,3383,1,9134,0.001000000000000112
1221998,626,5539,136401,-18226,9570,118254,634,19159,3383,1,9135,0.0009999999999998899
1222998,7459,-8874,122750,19158,-29283,150491,868,19142,2597,0,9136,0.001000000000000112
1224000,-7263,-20799,128791,-5658,-589,116305,978,19143,3555,1,9137,0.0010019999999999474
1224998,-7613,9799,129325,-42459,-1059,127985,978,19172,4006,1,9138,0.0009980000000000544
1225998,9120,14517,129550,9056,26159,115928,698,19151,2859,0,9139,0.0009999999999998899
1226999,4617,29530,126840,10385,13286,121679,723,19133,2961,0,9140,0.0010010000000000296
1227998,1086,-5291,126933,-19776,-1674,127550,1160,19133,4751,1,9141,0.0009989999999999721
1228998,1823,3991,124023,-6165,-8318,124686,776,19195,4751,0,9142,0.001000000000000112
1229998,12035,2680,132116,13441,10406,126920,735,19153,3178,0,9143,0.0009999999999998899
1230998,13388,5750,128515,1902,-3343,130073,735,19120,3010,1,9144,0.001000000000000112
1232000,12858,4837,131645,287,6089,125013,511,19160,2093,1,9145,0.0010019999999999474
1232998,4047,-5511,127499,-250,-6418,134377,902,19164,3694,0,9146,0.0009980000000000544
1233998,12423,3874,127043,4903,2831,122935,801,19164,3281,1,9147,0.0009999999999998899
1234998,10670,5252,123743,-1877,-3029,131210,583,19144,3281,1,9148,0.001000000000000112
1235998,14803,6080,127168,4812,7226,121234,732,19153,2388,0,9149,0.0009999999999998899
1236998,13880,1894,126801,1191,-1061,127458,732,19157,2998,0,9150,0.001000000000000112
1237998,1838,-7742,128195,8734,-12096,134094,883,19153,3617,1,9151,0.0009999999999998899
1238998,8513,-9882,125520,-18078,-12285,130059,667,19125,2732,0,9152,0.001000000000000112
1239998,5286,-5409,127362,14530,-2623,131639,684,19125,2801,0,9153,0.0009999999999998899
1241000,-441,14270,124928,-6444,9891,118010,942,19141,2801,1,9154,0.0010019999999999474
1241998,7368,-2924,130618,-30458,-3701,127212,704,19191,3858,1,9155,0.0009980000000000544
1242998,1759,782,128006,25718,-5033,135109,704,19098,2883,0,9156,0.001000000000000112
1243998,-4332,-16943,124948,-1423,-16169,130648,653,19126,2674,1,9157,0.0009999999999998899
1244998,-13144,2452,131701,-47722,2748,118400,861,19176,3526,1,9158,0.001000000000000112
1246001,12277,22789,130634,5547,19996,126831,806,19170,3301,0,9159,0.0010029999999998651
1246998,3000,8738,121239,16756,5287,124681,779,19170,3301,0,9160,0.0009970000000001367
1247998,3758,4282,131696,-20569,9883,113491,810,19103,3191,1,9161,0.0009999999999998899
1248998,5552,9508,122114,-6186,-2296,132760,810,19162,3318,0,9162,0.001000000000000112
1249998,15535,4246,129690,16061,8795,119223,806,19168,3301,0,9163,0.0009999999999998899
1250998,10159,9036,131878,993,-3718,134128,808,19168,3309,1,9164,0.001000000000000112
1251998,11598,-3462,127316,-7870,-10820,129047,650,19142,2662,1,9165,0.0009999999999998899
1252998,3394,-4400,130227,12333,1781,129298,798,19142,2662,0,9166,0.0009999999999998899
1254000,11441,4027,127205,-316,-4081,130038,926,19152,3268,1,9167,0.0010020000000001694
1254998,12464,33,121315,6702,1649,122828,926,19191,3793,1,9168,0.0009979999999998324
1255998,16848,11261,129286,-586,10702,124014,655,19148,2683,0,9169,0.001000000000000112
1256998,14860,2120,125010,6937,-6594,127284,676,19139,2769,1,9170,0.0009999999999998899
1258000,1165,-5211,128374,-10724,-9702,129751,1002,19183,4104,1,9171,0.0010020000000001694
1258999,11799,-16250,125940,-1056,-17816,137534,756,19183,4104,0,9172,0.0009989999999999721
1259998,-3430,-1323,125399,13979,4010,123313,726,19144,3096,0,9173,0.0009989999999999721
1261004,6230,4549,124367,-27644,-3137,124516,726,19129,2973,1,9174,0.0010060000000000624
1261998,1095,2699,133639,-8207,10205,120028,667,19168,2732,1,9175,0.0009939999999999394
1263000,8620,3425,123998,24392,-19377,141521,842,19136,3449,0,9176,0.0010019999999999474
1264000,-7904,-18202,127407,-30343,-5861,121986,799,19100,3272,1,9177,0.001000000000000112
1264999,-9498,4956,129332,-28649,-1973,125867,541,19100,3272,1,9178,0.0009989999999999721
1265998,9241,14004,129385,27600,22357,120483,727,19155,2216,0,9179,0.0009989999999999721
1266998,2177,17768,123393,-14285,-2003,125267,727,19150,2978,0,9180,0.0009999999999998899
1267998,774,2745,130226,-20577,10373,118118,877,19114,3592,1,9181,0.001000000000000112
1268998,6910,3289,121643,10473,-7979,130421,621,19133,2543,0,9182,0.0009999999999998899
1270000,14772,11275,131322,6519,16771,118086,666,19154,2728,0,9183,0.0010020000000001694
1270998,12497,8807,130217,-4644,-3611,132382,803,19154,3289,1,9184,0.0009979999999998324
1272000,13935,-5562,128331,10371,-7091,128811,719,19180,3289,0,9185,0.0010020000000001694
1273000,2483,-4772,129809,-9896,-5976,132563,677,19118,2945,0,9186,0.0009999999999998899
1273998,12838,633,126638,2924,-1374,127876,677,19130,2773,1,9187,0.0009980000000000544
1274998,7740,5198,122685,6799,95,124862,721,19180,2953,1,9188,0.0009999999999998899
1276000,16566,8185,126996,-1892,8744,124029,748,19162,3064,0,9189,0.0010020000000001694
1276998,14520,1060,126898,7137,2010,124025,745,19162,3051,1,9190,0.0009979999999998324
1277998,4275,-1479,127136,-500,-13863,133094,696,19110,3051,1,9191,0.001000000000000112
1278998,11248,-19983,126341,-9932,-17055,132573,919,19156,2851,0,9192,0.0009999999999998899
1279998,-1194,3615,125262,13430,-137,128131,919,19178,3764,0,9193,0.001000000000000112
1280998,4255,-1329,123891,-19802,-1963,126354,791,19142,3240,1,9194,0.0009999999999998899
1281998,2056,6872,134658,-14043,14952,116180,607,19149,2486,1,9195,0.001000000000000112
1282998,5609,-866,123839,21334,-19052,144122,873,19149,3576,0,9196,0.0009999999999998899
1283998,-4811,-16265,126596,-18207,-8717,120924,913,19157,3576,1,9197,0.001000000000000112
1284998,-8532,5309,129305,-35817,-2271,126396,671,19147,3739,1,9198,0.0009999999999998899
1285998,7877,15731,128471,20520,20792,121183,671,19144,2748,0,9199,0.001000000000000112
1286998,5554,17854,124116,-6479,7408,122034,680,19136,2785,0,9200,0.0009999999999998899
1287998,-2241,3180,129853,-17278,6584,124297,1064,19181,4358,1,9201,0.001000000000000112
1289000,8258,-542,122376,2870,-7854,127315,740,19146,3031,0,9202,0.0010019999999999474
1289998,14548,13471,131248,7216,15742,119353,728,19146,3031,0,9203,0.0009980000000000544
1290998,10856,6220,129652,2166,-1874,129751,582,19131,2982,1,9204,0.0009999999999998899
1291998,17411,-3384,128814,489,-2656,127906,582,19161,2384,0,9205,0.001000000000000112
1292998,1217,-3141,129765,-3507,-5752,134738,835,19151,3420,0,9206,0.0009999999999998899
1293998,11260,164,125832,4502,-1311,125624,778,19109,3186,1,9207,0.001000000000000112
1294998,5007,2920,122491,1973,-2342,124713,514,19165,2105,1,9208,0.0009999999999998899
1296001,16007,7804,128033,-4841,10214,123930,730,19165,2105,0,9209,0.0010030000000000872
1296998,17901,4045,125285,9676,2958,123934,838,19158,2990,1,9210,0.0009969999999999146
1297998,4896,-1154,126184,7165,-19065,135429,838,19144,3432,1,9211,0.001000000000000112
1298998,15450,-20573,127595,-10862,-4557,126969,639,19141,2617,0,9212,0.0009999999999998899
1300000,-5036,3328,124028,7529,-8761,134726,782,19153,3203,0,9213,0.0010020000000001694
1300998,5843,-10222,126973,-12611,4745,118000,933,19190,3821,1,9214,0.0009979999999998324
1301998,-1205,16922,133473,-20186,3065,126142,676,19190,3821,0,9215,0.001000000000000112
1302998,6875,-13335,122864,9166,-19643,138786,773,19111,2769,0,9216,0.0009999999999998899
1303998,-9099,-6861,127859,-30839,-5122,119670,773,19137,3166,1,9217,0.001000000000000112
1304998,518,-1537,126781,-10039,7511,126858,1003,19183,4108,1,9218,0.0009999999999998899
1305998,4998,26804,128924,15092,29022,112350,742,19168,3039,0,9219,0.001000000000000112
1306998,8315,13349,124748,-16593,-6217,131902,757,19114,3100,0,9220,0.0009999999999998899
1307998,-3625,194,128231,-15868,1276,121239,861,19114,3100,1,9221,0.001000000000000112
1308998,8128,-6026,124775,14560,-4339,129785,875,19170,3526,0,9222,0.0009999999999998899
1309998,13622,16985,131165,925,14641,120407,875,19172,3584,1,9223,0.001000000000000112
1310998,14323,2708,129264,-1870,-3706,128012,784,19158,3211,1,9224,0.0009999999999998899
1311999,13321,4123,128079,8391,-4693,130400,629,19144,2576,0,9225,0.0010010000000000296
1313000,5184,-6993,128048,-12252,-3565,131860,849,19158,3477,0,9226,0.0010010000000000296
1314000,10968,3246,127006,14499,980,124722,872,19158,3571,1,9227,0.0009999999999998899
1315000,6003,5526,123333,-6173,-512,129474,657,19162,3571,1,9228,0.001000000000000112
1316000,16627,7029,127495,-430,6637,122385,622,19139,2691,0,9229,0.0009999999999998899
1316998,10386,3155,127267,15466,-4270,126968,622,19147,2548,1,9230,0.0009980000000000544
1318001,6918,-18061,124733,-13218,-20704,132881,1014,19196,4153,1,9231,0.0010030000000000872
1318998,11556,-15339,127446,-221,-4995,127648,731,19116,2994,0,9232,0.0009969999999999146
1319998,844,9124,123977,12998,-276,130326,672,19116,2752,0,9233,0.001000000000000112
1321002,4242,9158,126401,-29851,6437,117482,727,19138,2752,1,9234,0.0010040000000000049
1321998,4234,5220,133528,-8197,4026,126305,780,19178,2978,0,9235,0.0009959999999999969
1322999,1994,-19280,123816,20919,-28162,144675,780,19129,3195,0,9236,0.0010010000000000296
1323999,-4985,-15820,127434,-25459,-8979,120697,774,19109,3170,1,9237,0.0009999999999998899
1324998,-5832,2168,129735,-26176,5301,125620,670,19163,2744,0,9238,0.0009989999999999721
1325998,11517,29876,127605,21314,32546,112167,712,19163,2916,0,9239,0.001000000000000112
1327001,6683,2894,123916,-12209,1688,127231,827,19154,2916,1,9240,0.0010029999999998651
1328000,-1327,3302,128668,-18432,3650,121451,596,19086,3387,1,9241,0.0009989999999999721
1328998,5999,-9814,123673,7089,-14314,132725,596,19140,2441,0,9242,0.0009980000000000544
1329998,13854,14799,132812,9605,14858,120168,750,19150,3072,1,9243,0.001000000000000112
1330998,11904,957,129257,-2699,-3996,130313,917,19192,3756,1,9244,0.0009999999999998899
1332001,14858,-3002,127640,5286,-1409,126950,697,19122,2855,0,9245,0.0010030000000000872
1332998,4174,-4913,128541,-6659,-4478,132401,689,19122,2855,0,9246,0.0009969999999999146
1333998,11506,4458,125417,6774,93,126071,842,19142,2822,1,9247,0.001000000000000112
1334998,9268,4299,123784,-47,-1185,126867,842,19183,3449,1,9248,0.0009999999999998899
1335998,14823,11911,127785,728,10189,120599,712,19156,2916,0,9249,0.001000000000000112
1336998,13325,-1514,126210,8225,-3797,128116,724,19129,2965,1,9250,0.0009999999999998899
1337998,3154,-10059,127610,375,-14861,132450,780,19168,3195,1,9251,0.001000000000000112
1338999,10474,-15625,124698,-19739,-18181,136176,855,19168,3195,0,9252,0.0010010000000000296
1339998,2420,-494,126182,22467,1647,124824,767,19159,3502,0,9253,0.0009989999999999721
1340998,-1182,16167,124782,-14259,10162,125253,767,19118,3141,1,9254,0.0009999999999998899
1341998,10909,-3606,131255,-26895,-1778,123875,534,19161,2187,0,9255,0.001000000000000112
1342999,1570,-129,126464,25479,-10428,141258,964,19165,3948,0,9256,0.0010009999999998076
1343998,961,-17782,124974,-5941,-16827,122789,861,19133,3526,1,9257,0.0009990000000001942
1344998,-17952,6687,130178,-44894,2250,120283,650,19133,3526,0,9258,0.0009999999999998899
1345998,9200,16327,129234,9801,17568,126578,625,19134,2662,0,9259,0.001000000000000112
1346998,3827,10571,121503,6550,1540,122885,625,19143,2560,1,9260,0.0009999999999998899
1347999,579,21441,132770,-18706,13502,118025,983,19153,4026,1,9261,0.0010010000000000296
1349000,12419,-8252,122074,-4503,-7384,129362,706,19143,2892,0,9262,0.0010010000000000296
1349998,17068,18624,131032,7514,11517,121799,688,19139,2818,1,9263,0.0009980000000000544
1350998,8299,-3083,131741,-11709,-4993,135327,683,19139,2818,1,9264,0.0009999999999998899
1351998,14365,-1800,126981,8561,-7951,128597,785,19173,2797,0,9265,0.001000000000000112
1352998,1750,-4495,130838,-5965,914,133172,785,19144,3215,0,9266,0.0009999999999998899
1354001,12039,2655,126121,7230,-778,126604,754,19126,3088,1,9267,0.0010030000000000872
1354998,10250,9921,122427,6190,6821,121511,557,19165,2281,0,9268,0.0009969999999999146
1356000,16946,9468,128337,-7756,5703,125786,785,19161,3215,0,9269,0.0010019999999999474
1356998,15733,-3320,125188,13363,-4780,125435,799,19161,3215,1,9270,0.0009980000000000544
1357998,1192,-9510,127914,-9604,-13826,134636,565,19114,3272,1,9271,0.001000000000000112
1358998,13111,-11656,126337,3179,-14289,134633,565,19146,2314,0,9272,0.0009999999999998899
1359998,-8188,12670,125431,5459,5643,123017,778,19156,3186,1,9273,0.001000000000000112
1360999,6507,-204,125524,-33175,-2743,124340,867,19171,3551,1,9274,0.0010009999999998076
1362000,7046,12463,132688,5897,9439,120029,649,19136,2658,0,9275,0.0010010000000000296
1362998,6305,-18923,124340,13465,-21496,141650,806,19136,3301,0,9276,0.0009980000000000544
1364000,-3233,-394,127374,-32473,-5521,121324,1052,19140,3301,1,9277,0.0010019999999999474
