t_us,ax,ay,az,ax1,ay1,az1,shunt_raw,bus_raw,curr_raw,pg_rpm,seq,dt
0,4972,-2147,130308,-12485,-8009,130883,668,19095,3354,1,45479,
1002,-13612,-5137,127038,-2451,-6744,126672,668,19157,2736,1,45480,0.0010019999999999999
1999,3675,7471,130376,-11561,6367,131669,745,19140,3051,0,45481,0.000997
3002,-4154,27957,128248,-3454,21350,114831,657,19132,2691,1,45482,0.001003
3999,-6392,6169,123793,2290,-1005,127742,606,19132,2482,1,45483,0.000997
5001,7494,-4653,130167,-12689,-7760,134569,733,19160,2482,1,45484,0.0010019999999999994
6001,2524,-3171,133423,-5483,-3691,132556,733,19109,3002,0,45485,0.001
6999,304,-1134,133144,7040,-2668,135921,795,19139,3256,0,45486,0.0009980000000000006
7999,-7490,4486,133230,-6951,173,132889,806,19152,3301,1,45487,0.0009999999999999992
9000,3578,7065,130125,-17214,228,135627,558,19141,2285,1,45488,0.0010010000000000002
9999,3845,3386,127485,15096,-48,127425,640,19141,2621,0,45489,0.0009989999999999999
10999,6606,1690,132395,5639,-1422,131250,808,19138,2621,0,45490,0.0010000000000000009
12001,5237,-12519,131936,-16098,-19098,140340,713,19104,3309,1,45491,0.0010019999999999994
12999,2236,-14399,129340,24221,-15655,128817,713,19154,2920,1,45492,0.0009980000000000006
13999,817,10229,127949,10887,6212,121911,747,19145,3059,0,45493,0.0009999999999999992
15000,7848,12999,123587,-42834,20990,113462,669,19135,2740,1,45494,0.0010010000000000002
16002,-2311,21550,130665,41829,-9786,134808,659,19135,2699,1,45495,0.0010019999999999994
16999,8386,-34280,116935,15130,-30541,127210,735,19163,2699,1,45496,0.0009970000000000014
18000,-3455,-2073,129334,-14717,8394,118417,783,19105,3010,0,45497,0.0010009999999999984
19000,713,-3007,127819,21573,-8087,129398,783,19138,3207,0,45498,0.0010000000000000009
19999,5866,14369,121310,-4716,26807,101660,803,19143,3289,1,45499,0.0009989999999999999
20999,-5377,26982,126726,-16587,3363,130187,545,19153,2232,0,45500,0.0010000000000000009
21999,6867,-3466,116127,4995,-212,113367,689,19145,2822,0,45501,0.0009999999999999974
22999,-4136,9228,125725,6668,960,120199,798,19145,2822,0,45502,0.0010000000000000009
23999,1668,-7364,130662,-21032,-10389,133338,729,19095,3268,1,45503,0.0010000000000000009
24999,-10909,-1165,127551,5030,-2410,125852,729,19158,2986,1,45504,0.0010000000000000009
25999,420,4469,129335,-14247,7335,129597,706,19142,2892,0,45505,0.0009999999999999974
26999,416,25710,127549,-11146,23475,114724,637,19136,2609,1,45506,0.0010000000000000009
27999,-5982,12215,124509,10218,-772,129614,644,19165,2638,1,45507,0.0010000000000000009
28999,8178,-131,130614,-13424,-3077,131111,716,19165,2638,1,45508,0.0009999999999999974
29999,1172,-10055,133098,-12664,-15114,141615,820,19111,2933,0,45509,0.0010000000000000009
31001,-3372,-5644,134022,15073,335,134067,820,19140,3358,0,45510,0.0010019999999999994
31999,-4280,6136,132541,-16206,-1176,131968,777,19142,3182,1,45511,0.0009980000000000024
32999,2026,7307,129635,-13101,7072,133468,526,19149,2154,0,45512,0.0010000000000000009
33999,8050,11745,129191,16662,2717,129298,689,19149,2822,0,45513,0.0010000000000000009
35007,6331,-3898,130108,196,-7251,129511,793,19149,2822,0,45514,0.001007999999999995
36024,6459,-7397,133604,-12885,-14582,136161,733,19105,3248,1,45515,0.001017000000000004
36999,-3876,-17576,129592,35722,-17746,139192,733,19161,3002,1,45516,0.0009749999999999967
37999,2572,3375,127168,-21773,3027,124790,710,19144,2908,0,45517,0.0010000000000000009
38999,9929,15756,126588,-18327,15649,119404,640,19141,2621,1,45518,0.0010000000000000009
40002,-5352,20791,127877,52105,9063,120820,732,19169,2998,1,45519,0.001002999999999997
40999,11133,-24061,117000,-22709,-29369,129548,700,19169,2998,1,45520,0.0009970000000000048
41999,-3527,-8177,128755,-18659,-3953,124520,823,19108,2867,0,45521,0.000999999999999994
42999,3528,-4502,125862,28471,-5724,127167,823,19144,3371,0,45522,0.0010000000000000009
43999,-842,20651,123686,-6610,23786,104936,789,19125,3232,1,45523,0.0010000000000000009
44999,-4490,22228,127528,-17481,5422,126854,506,19155,2072,1,45524,0.0010000000000000009
45999,7267,-6770,114858,8351,-7325,120034,767,19158,3141,0,45525,0.0010000000000000009
46999,-4077,12270,126932,6039,11157,111757,778,19158,3141,0,45526,0.0010000000000000009
47999,3782,-782,131025,-18529,-6238,129312,831,19102,3186,1,45527,0.0010000000000000009
49002,-12946,-7667,126184,2131,-9375,128827,831,19166,3404,1,45528,0.001002999999999997
49999,4245,4510,129745,-5323,3644,131909,697,19130,2855,0,45529,0.0009969999999999979
50999,-3388,29049,127967,-11133,23089,113908,612,19142,2507,1,45530,0.0010000000000000009
51999,-6579,12572,124647,-137,5785,124235,749,19180,3068,1,45531,0.0010000000000000009
52999,10784,-4475,130300,-6253,-8710,136225,697,19180,2855,1,45532,0.0010000000000000009
53999,-498,-7678,132558,-968,-8953,134668,916,19114,2855,0,45533,0.0010000000000000009
55000,-1489,-3428,132941,-2671,-4237,135324,765,19153,3752,0,45534,0.0010010000000000019
55999,-5744,5869,133359,-5496,1758,132230,765,19123,3133,1,45535,0.0009989999999999999
56999,6644,11626,131589,-9459,4633,135873,484,19154,1982,1,45536,0.000999999999999994
57999,4417,1376,126610,10467,-3508,128871,763,19158,3125,0,45537,0.0010000000000000009
58999,1071,-1713,131820,7060,-3510,129214,777,19158,3182,0,45538,0.0010000000000000009
59999,9902,-11402,130935,-16134,-13908,139904,878,19103,3182,1,45539,0.0010000000000000009
60999,-2400,-10989,130368,26224,-826,130220,699,19165,3596,1,45540,0.0010000000000000009
62000,5391,7979,127011,2413,8361,119727,699,19124,2863,0,45541,0.0010010000000000019
62999,4373,17331,126120,-34334,19257,116930,595,19147,2437,1,45542,0.0009989999999999999
63999,-2254,11148,128560,42816,-17967,136623,816,19185,3342,1,45543,0.0010000000000000009
64999,7732,-35580,116857,-24952,-26674,126195,698,19185,2859,1,45544,0.0010000000000000009
65999,-2742,724,128691,-10337,12568,116594,954,19119,2859,0,45545,0.0010000000000000009
66999,3619,7118,128487,20691,1128,123295,777,19157,3907,0,45546,0.0010000000000000009
67999,1743,12042,121548,-7106,14208,111106,777,19106,3182,1,45547,0.000999999999999987
68999,-1887,15226,124990,-13102,861,129308,443,19157,1814,1,45548,0.0010000000000000009
69999,2847,1104,116700,3836,4894,111052,744,19160,3047,0,45549,0.0010000000000000009
71001,-1026,12801,128583,5512,2280,120867,759,19110,3109,0,45550,0.0010020000000000029
71999,2036,-8262,130060,-15164,-14953,135405,978,19110,3109,1,45551,0.0009979999999999989
72999,-13753,-5837,126485,-2420,-2909,125656,674,19180,4006,1,45552,0.0010000000000000009
73999,2863,12339,130531,-13017,14860,124517,674,19115,2761,0,45553,0.0010000000000000009
75002,-2401,25285,128030,-3153,15899,120400,548,19146,2244,1,45554,0.0010030000000000039
75999,-4608,6017,123417,2105,-1209,128848,798,19184,3268,1,45555,0.0009969999999999979
76999,5450,2731,132296,-16295,-2464,131752,658,19118,2695,1,45556,0.0010000000000000009
77999,3155,-10505,132072,-4232,-12517,139686,1010,19118,2695,0,45557,0.0010000000000000009
79001,-3616,-3110,133819,13037,-686,132928,752,19169,4137,0,45558,0.0010020000000000029
80001,-4728,4062,131917,-22947,-1125,133222,752,19110,3080,1,45559,0.0010000000000000009
81001,4732,9639,129706,-6234,8306,132218,438,19156,1794,0,45560,0.000999999999999987
81999,5623,10232,128816,16371,1710,130127,730,19158,2990,0,45561,0.0009980000000000128
82999,8034,-4405,130924,-4479,-8212,130188,755,19106,3092,0,45562,0.000999999999999987
83999,2617,-11056,132581,-10699,-18326,138042,995,19106,3092,1,45563,0.0010000000000000009
84999,-1296,-15230,129622,34787,-12340,135792,664,19184,4075,1,45564,0.0010000000000000009
86001,2650,7948,127872,-17163,4078,125208,664,19118,2720,0,45565,0.0010020000000000029
86999,9822,12627,125052,-21478,12697,119419,547,19147,2240,1,45566,0.0009979999999999989
88001,-4895,23724,128695,49890,11045,119651,794,19178,3252,1,45567,0.0010020000000000029
88999,9494,-26820,117934,-17458,-32595,133239,661,19122,2707,1,45568,0.0009979999999999989
90007,-4641,-8229,129229,-19261,-4311,123523,991,19122,2707,0,45569,0.001007999999999995
91001,712,-7921,125199,22277,-8054,129259,759,19173,4059,0,45570,0.0009940000000000088
92002,1060,23184,124088,-3258,27305,102597,759,19110,3109,1,45571,0.0010010000000000019
93001,-4325,22800,126393,-14411,5894,126124,515,19156,2109,1,45572,0.0009989999999999999
93999,7193,-7016,114796,5939,-6774,120122,712,19151,2916,0,45573,0.0009979999999999989
94999,-3127,12779,127217,5366,11243,111722,741,19109,3035,0,45574,0.0010000000000000009
95999,1345,-3098,130240,-18180,-6692,129953,1018,19109,4169,1,45575,0.0010000000000000009
96999,-9867,-4755,127411,-990,-6462,127272,660,19194,4169,1,45576,0.0010000000000000009
97999,2825,899,129133,2352,-1015,135332,599,19124,2703,0,45577,0.000999999999999987
98999,-3988,27452,126844,-13913,23002,111569,599,19144,2453,1,45578,0.0010000000000000009
100001,-6176,14990,125166,-7596,7871,123369,768,19170,3146,1,45579,0.0010020000000000029
101000,11491,-16,131744,-384,-3966,135973,648,19125,2654,1,45580,0.0009989999999999999
101999,-1681,-10362,132159,2071,-12072,135778,955,19125,3911,0,45581,0.0009989999999999999
103001,-5248,-6256,132757,-10179,-7024,134097,745,19153,3911,0,45582,0.0010020000000000029
103999,-3321,4191,133417,-3419,-541,132480,534,19114,3051,1,45583,0.0009979999999999989
104999,7223,13177,131324,-3458,7010,131709,534,19166,2187,1,45584,0.0010000000000000009
105999,6242,7233,128293,7262,1769,130394,697,19147,2855,0,45585,0.0010000000000000009
106999,2542,-5650,130829,5608,-7592,130236,732,19108,2998,0,45586,0.0010000000000000009
107999,8344,-12489,131341,-11859,-14874,140355,986,19108,4038,1,45587,0.0010000000000000009
109000,-7921,-10790,130219,25448,-4321,132227,668,19186,4038,1,45588,0.0010010000000000019
109999,7347,5643,126960,-5847,9331,119179,621,19125,2736,0,45589,0.0009989999999999999
110999,6787,19750,127490,-25126,19440,117802,621,19145,2543,1,45590,0.0010000000000000009
112004,457,9897,126843,31251,-15989,132650,777,19157,3182,1,45591,0.001004999999999992
112999,8643,-29121,117882,-27922,-24210,125417,653,19125,2674,1,45592,0.0009949999999999959
113999,-3316,-2840,129720,-4405,5169,122187,939,19156,3846,0,45593,0.0010000000000000009
115000,3900,6789,127548,19300,5755,118809,730,19156,3846,0,45594,0.0010010000000000019
115999,-2371,17037,124111,-10018,12869,113633,610,19118,2990,1,45595,0.0009989999999999999
116999,-1354,9771,123694,-12139,-4874,130506,610,19169,2498,1,45596,0.0010000000000000009
117999,3459,-2074,115909,9498,3789,110824,690,19145,2826,0,45597,0.0010000000000000009
118999,1040,16029,128674,2574,9263,116869,720,19115,2949,0,45598,0.0010000000000000009
120001,3278,-2102,129817,-15115,-12457,133061,972,19172,3981,1,45599,0.0010020000000000029
121001,-15079,-9579,125532,-2857,-6656,129299,634,19172,3981,1,45600,0.0010000000000000009
122001,3531,12450,131445,-12512,15407,124131,657,19133,2597,0,45601,0.0010000000000000009
123001,-5779,23508,127037,-1401,13238,121159,657,19156,2691,1,45602,0.0010000000000000009
124001,-2382,5528,123829,-1147,-1699,128546,749,19160,3068,1,45603,0.0010000000000000009
125001,6360,481,131710,-14104,-3529,132723,625,19135,2560,1,45604,0.0010000000000000009
126001,4828,-5713,133091,-2955,-7198,136575,916,19132,3752,0,45605,0.0010000000000000009
126999,-3771,-2102,132991,11468,-2230,133677,732,19132,3752,0,45606,0.0009979999999999989
127999,-6142,3381,132446,-23679,-468,133803,613,19116,2998,1,45607,0.0010000000000000009
129002,4397,8919,129611,-4174,5945,133200,613,19165,2511,1,45608,0.0010030000000000039
129999,4255,10222,129047,15588,3572,128567,665,19147,2724,0,45609,0.0009969999999999979
131030,9509,-4268,131638,-4879,-9918,132073,705,19121,2887,0,45610,0.0010310000000000041
131999,2764,-13520,132099,-7853,-19546,138194,961,19167,3936,1,45611,0.0009689999999999976
133002,-967,-11433,130077,32991,-7393,133221,639,19167,3936,1,45612,0.0010029999999999761
133999,3664,9820,128475,-17807,4583,126176,666,19134,2617,0,45613,0.0009970000000000256
134999,8815,11338,124370,-18465,10990,119969,666,19151,2728,1,45614,0.0009999999999999731
135999,-3573,19669,128543,46392,7677,121644,746,19153,3055,1,45615,0.0010000000000000009
137001,9389,-27674,118802,-14313,-32514,133188,605,19142,2478,1,45616,0.0010020000000000029
137999,-3910,-6808,129529,-17471,-3697,122867,894,19142,3662,0,45617,0.0009979999999999989
138999,908,-7532,124394,19600,-7042,129581,739,19142,3662,0,45618,0.0010000000000000009
139999,890,26651,124206,-2419,30143,100924,649,19130,3027,1,45619,0.0010000000000000009
140999,-4547,22754,125951,-14576,5990,125198,649,19170,2658,1,45620,0.0010000000000000009
141999,8031,-7994,115145,6545,-7982,121126,658,19147,2695,0,45621,0.0010000000000000009
142999,-2587,8732,127462,12631,6429,115418,686,19118,2810,0,45622,0.0010000000000000009
144001,-293,-6474,129359,-22862,-8455,129209,935,19147,3829,1,45623,0.0010020000000000029
145001,-10316,1498,129238,-10869,-309,124066,629,19147,2576,1,45624,0.0010000000000000009
145999,5612,2865,130173,10626,-760,137837,666,19135,2576,0,45625,0.0009979999999999989
147001,-8050,22924,125547,-7505,18258,112480,732,19153,2728,1,45626,0.0010020000000000029
148001,-6824,11578,123392,-17690,5898,122649,732,19158,2998,1,45627,0.0010000000000000009
149001,11273,5651,132156,5957,2889,131609,598,19136,2449,1,45628,0.0010000000000000009
149999,3396,-4950,132656,-1157,-8025,140010,874,19137,3580,0,45629,0.0009979999999999989
150999,-3719,-9587,134055,-9218,-10956,136766,708,19137,2900,0,45630,0.0010000000000000009
151999,-7126,-1211,133037,2534,-6146,134064,646,19118,2900,1,45631,0.0010000000000000009
152999,4416,6850,129550,-12138,1134,130870,645,19174,2646,1,45632,0.0010000000000000009
153999,4435,13559,129774,8056,3421,129426,645,19148,2642,0,45633,0.0010000000000000009
154999,8503,-1623,130693,4877,-8599,129563,678,19119,2777,0,45634,0.0010000000000000009
156001,4373,-9516,130117,-3619,-13711,135626,927,19140,3797,1,45635,0.0010020000000000029
156999,-2923,-10810,130395,19599,-6982,134036,642,19140,2629,1,45636,0.0009979999999999989
157999,4403,1586,126082,2157,1831,124002,677,19136,2629,0,45637,0.0010000000000000009
159002,7086,12048,125710,7038,19406,116993,732,19157,2773,1,45638,0.0010030000000000039
160001,-1186,18726,128599,32917,-6161,128944,732,19149,2998,1,45639,0.0009989999999999999
161001,8690,-28117,118051,-23848,-26549,126878,581,19140,2380,1,45640,0.0010000000000000009
161999,-3368,-4590,128923,-8690,1424,123278,865,19136,3543,0,45641,0.0009979999999999989
162999,2613,-1234,126256,17875,-592,122549,724,19126,2965,0,45642,0.0010000000000000009
163999,939,23713,124481,-5036,27728,104058,742,19126,2965,1,45643,0.0010000000000000009
165001,-3990,17711,125987,-15218,-8640,135164,633,19173,3039,1,45644,0.0010019999999999751
165999,5378,-11116,114102,9239,-2741,113740,633,19135,2593,0,45645,0.0009979999999999989
166999,-2862,16418,129045,3505,10511,115835,637,19125,2609,0,45646,0.0010000000000000009
168001,3264,-1894,129729,-17018,-9116,131719,902,19137,3694,1,45647,0.0010020000000000029
168999,-13861,-3379,127628,-498,-4941,128233,604,19140,2474,1,45648,0.0009979999999999989
169999,3689,4209,130414,-13706,7193,130001,725,19140,2474,0,45649,0.0010000000000000009
170999,-4815,26304,128037,-1533,20435,115498,712,19155,2969,1,45650,0.0010000000000000009
171999,-4216,5880,123988,78,-5935,131680,712,19139,2916,1,45651,0.0010000000000000009
172999,7240,-3469,130345,-14289,-3195,131489,542,19138,2220,1,45652,0.0010000000000000009
173999,2476,-553,133359,-5075,-2684,134695,828,19122,3391,0,45653,0.0010000000000000009
174999,-1927,-1830,132433,9539,-2534,134862,691,19126,2830,0,45654,0.0010000000000000009
175999,-6310,5873,133170,-15265,1668,131185,758,19126,2830,1,45655,0.0010000000000000009
176999,4050,5093,129470,-12644,-499,138377,622,19180,3105,1,45656,0.0010000000000000009
178001,6572,5575,128338,20327,3538,126942,622,19132,2548,0,45657,0.0010020000000000029
178999,7521,-575,132795,-3129,-7947,131095,622,19123,2548,0,45658,0.0009979999999999989
179999,1415,-14183,131890,-16624,-19322,139698,889,19130,3641,1,45659,0.0010000000000000009
180999,1765,-12431,130486,33381,-8022,133198,591,19142,2421,1,45660,0.0010000000000000009
181999,844,14638,129868,-3205,10170,124297,732,19142,2421,0,45661,0.0010000000000000009
182999,8624,9378,122062,-38900,5108,119435,714,19153,2998,1,45662,0.0010000000000000009
183999,-1276,23973,131637,50439,14791,120018,714,19121,2924,1,45663,0.0010000000000000009
184999,8917,-31417,119237,1130,-40001,138315,492,19142,2015,1,45664,0.0010000000000000009
185999,-5014,-5882,128918,-30358,882,115641,821,19122,3363,0,45665,0.0010000000000000009
186999,-2901,-4785,127866,16494,-9905,135288,691,19130,2830,0,45666,0.0010000000000000009
187999,5288,14948,120636,6773,21433,104821,871,19130,3567,1,45667,0.0010000000000000009
188999,-9232,34407,128345,-14344,18946,115786,615,19189,3567,1,45668,0.0010000000000000009
189999,10737,-10456,115235,-4133,-13166,127042,571,19126,2519,0,45669,0.0010000000000000009
190999,118,7581,125087,24436,6935,111091,571,19126,2339,0,45670,0.0010000000000000009
191999,-2892,-10081,128163,-21391,-12419,133784,868,19118,3555,1,45671,0.0010000000000000009
192999,-6160,7626,129427,-20398,7710,117980,551,19145,2257,1,45672,0.0010000000000000009
193999,-341,2363,129710,22723,-4006,140224,807,19145,3305,0,45673,0.0010000000000000009
195000,-3747,17983,124434,-18947,14259,115967,698,19169,3305,1,45674,0.0010009999999999741
195999,-6825,17967,125537,-15522,11979,133506,469,19114,2859,1,45675,0.0009989999999999999
196999,11983,2847,132031,17714,545,130659,469,19143,1921,1,45676,0.0010000000000000009
197999,4899,-9341,131421,-12486,-12595,141662,799,19093,3272,0,45677,0.0010000000000000009
198999,-6994,-10534,135289,-6971,-11313,135988,621,19138,2543,0,45678,0.0010000000000000009
199999,-3318,6917,133368,4364,1921,131233,875,19138,3584,1,45679,0.0010000000000000009
200999,-2616,6776,128546,-14393,12312,131192,608,19187,3584,1,45680,0.0010000000000000009
202001,8067,15320,131638,6345,40,131525,578,19133,2490,0,45681,0.0010020000000000029
203000,5947,-7084,129040,10525,-11459,129032,578,19128,2367,0,45682,0.0009989999999999999
203999,6721,-7517,132616,-10206,-10771,135837,859,19107,3518,1,45683,0.0009989999999999999
204999,-2417,-13104,131314,28293,-13299,137492,541,19148,2216,1,45684,0.0010000000000000009
205999,1600,1648,126854,-28111,4642,122337,828,19175,3391,0,45685,0.0010000000000000009
206999,7928,15894,126727,-7668,18550,118729,706,19175,3391,1,45686,0.0010000000000000009
207999,-3425,17779,127886,47166,-2428,127033,516,19130,2892,1,45687,0.0010000000000000009
208999,10827,-25019,117257,-22259,-25582,125065,516,19145,2113,1,45688,0.0010000000000000009
209999,-3602,-7539,128402,-19595,-1035,124907,799,19086,3272,0,45689,0.0010000000000000009
210999,3801,-3525,126171,26550,-1829,124543,597,19133,2445,0,45690,0.0010000000000000009
211999,2244,20832,123861,-4498,27076,104297,871,19189,3567,1,45691,0.0010000000000000009
212999,-8019,21376,126436,-22341,-787,130998,595,19189,3567,1,45692,0.0010000000000000009
213999,7280,-7748,115628,11243,-5426,116748,617,19139,2437,0,45693,0.0010000000000000009
214999,-3224,10616,126856,5800,7386,116081,617,19139,2527,0,45694,0.0010000000000000009
215999,4768,-1515,130702,-17872,-9370,130902,853,19089,3494,1,45695,0.0010000000000000009
216999,-14286,-4546,126848,1144,-5457,128107,485,19149,1986,1,45696,0.0010000000000000009
217999,3728,5994,130383,-14057,9555,129141,791,19162,3240,0,45697,0.0010000000000000009
218999,-4484,27738,128164,-3862,21815,116503,680,19162,3240,1,45698,0.0010000000000000009
219999,-5147,8680,124214,2362,-3242,129172,499,19126,2785,1,45699,0.0010000000000000009
220999,8666,-5266,129992,-12851,-6216,132246,499,19141,2044,1,45700,0.0010000000000000009
221999,2538,-2597,134079,-8272,-5103,135659,771,19089,3158,0,45701,0.0010000000000000009
223002,1996,-4169,133063,13232,-5315,136882,586,19133,2400,0,45702,0.0010029999999999761
223999,-7625,5427,133506,-14374,3343,129679,853,19182,3494,1,45703,0.0009970000000000256
224999,-172,7429,130167,-16435,392,138226,585,19182,3494,1,45704,0.0009999999999999731
225999,6735,4949,127835,17706,2503,128751,617,19139,2396,0,45705,0.0010000000000000009
226999,5574,1389,132818,3169,-3892,128285,617,19134,2527,0,45706,0.0010000000000000009
227999,4911,-12494,131288,-18061,-19879,137969,836,19094,3424,1,45707,0.0010000000000000009
228999,226,-13541,130534,33266,-9894,133731,487,19149,1995,1,45708,0.0010000000000000009
229999,3035,9642,129434,-2529,4216,128480,786,19164,3219,0,45709,0.0010000000000000009
230999,6395,10066,122560,-35486,8355,117655,688,19164,3219,1,45710,0.0010000000000000009
231999,-4219,27958,131814,45027,17594,118810,575,19130,2818,1,45711,0.0010000000000000009
232999,10341,-33175,117970,104,-41375,139744,575,19150,2355,1,45712,0.0010000000000000009
233999,-5122,-7153,128409,-24972,-1253,116227,757,19093,3100,0,45713,0.0010000000000000009
234999,416,-5661,127119,17243,-9304,134374,655,19134,2683,0,45714,0.0010000000000000009
235999,3761,18884,121327,4818,24053,102322,843,19171,3453,1,45715,0.0010000000000000009
237001,-8605,32268,128529,-15311,16844,118410,580,19171,2376,1,45716,0.0010020000000000029
237999,8823,-9925,114987,-1604,-11906,127189,668,19143,2376,0,45717,0.0009979999999999989
238999,-2405,10342,125748,19395,9530,109030,831,19141,2736,0,45718,0.0010000000000000009
240000,-438,-8882,128760,-19697,-11636,133170,831,19093,3404,1,45719,0.0010010000000000019
241001,-6593,2702,128587,-15256,1823,120218,590,19153,2416,1,45720,0.0010010000000000019
241999,2510,2025,130074,17190,-2747,138710,763,19152,3125,0,45721,0.0009979999999999989
243001,-4931,22260,125468,-18136,17794,109074,668,19152,2736,1,45722,0.0010020000000000029
243999,-7001,15961,124629,-10704,9825,133202,581,19132,2736,1,45723,0.0009979999999999989
245000,9107,3464,132210,12035,2008,129596,748,19155,2380,1,45724,0.0010010000000000019
246000,4234,-7847,131379,-13457,-10595,141055,748,19100,3064,0,45725,0.0010000000000000009
246999,-3285,-10681,135171,632,-1330,135802,676,19135,2769,0,45726,0.0009989999999999999
247999,-4150,3336,133520,1465,-4967,132456,826,19159,3383,1,45727,0.0010000000000000009
249001,-827,6012,128922,-16564,13475,130997,568,19143,2326,1,45728,0.0010020000000000029
249999,5708,17234,131638,10872,1638,131553,648,19143,2326,0,45729,0.0009979999999999989
250999,6074,-6585,129396,3803,-9963,129229,834,19144,2654,0,45730,0.0009999999999999731
251999,4053,-6372,132626,-5065,-12878,135584,834,19092,3416,1,45731,0.0010000000000000009
253001,-370,-14477,131110,29200,-15241,138167,645,19147,2642,1,45732,0.0010020000000000029
254000,1430,1752,128146,-23813,3893,123209,768,19145,3146,0,45733,0.0009990000000000276
255001,7159,12803,126083,-13148,17070,119674,680,19130,2785,0,45734,0.0010009999999999741
256001,-3775,22675,128683,45434,4939,123315,628,19130,2785,1,45735,0.0010000000000000009
257000,8238,-21500,119395,-19027,-27400,127916,744,19155,2572,1,45736,0.0009990000000000276
257999,-3528,-10890,127749,-18064,-5024,125662,744,19098,3047,0,45737,0.0009989999999999721
259001,1303,-7609,125726,22788,-5334,125892,748,19139,3064,0,45738,0.0010020000000000029
259999,4642,20705,124263,-3098,29292,102992,822,19149,3367,1,45739,0.0009979999999999989
260999,-8834,23620,126996,-17773,-377,130748,564,19145,2310,1,45740,0.0010000000000000009
261999,7166,-8324,114966,5808,-4331,116572,664,19145,2310,0,45741,0.0010000000000000009
262999,-4372,12527,126596,3891,10165,114560,799,19149,2720,0,45742,0.0010000000000000009
263999,4587,-654,129658,-15578,-7595,130270,799,19098,3272,1,45743,0.0010000000000000009
264999,-12204,-4464,126952,2710,-7160,128138,705,19155,2887,1,45744,0.0010000000000000009
266001,4105,1051,129467,-14238,3806,131792,729,19146,2986,0,45745,0.0010020000000000029
267001,-3285,28445,128506,-4567,23963,114033,656,19140,2687,0,45746,0.0010000000000000009
267999,-5771,10386,124812,2334,-2550,129607,601,19140,2687,1,45747,0.0009979999999999989
269001,8461,-5327,129810,-13199,-5721,132754,726,19158,2462,1,45748,0.0010020000000000029
270001,618,-1354,133761,-7377,-3879,134057,726,19106,2973,0,45749,0.0010000000000000009
270999,1183,-3245,132553,9760,-4970,136510,782,19150,3203,0,45750,0.0009979999999999989
272001,-6011,5031,134055,-7777,1876,130606,797,19156,3264,1,45751,0.0010020000000000029
272999,83,6257,130545,-18156,-2043,139158,553,19149,2265,1,45752,0.0009979999999999989
273999,7093,2151,127043,19338,517,129087,658,19149,2265,0,45753,0.0010000000000000009
274999,3760,4682,133104,1808,321,125880,803,19147,2695,0,45754,0.0010000000000000009
275999,4525,-10344,131094,-19543,-15592,138117,803,19098,3289,1,45755,0.0010000000000000009
277001,4054,-14913,129737,30931,-16037,138381,707,19157,2896,1,45756,0.0010020000000000029
277999,1325,6650,129444,8584,5050,125032,718,19147,2941,0,45757,0.0009979999999999989
278999,5790,11640,122524,-44806,5336,118610,654,19137,2679,0,45758,0.0010000000000000009
279999,67,23454,131572,44944,17114,120518,666,19137,2728,1,45759,0.0010000000000000009
281002,7146,-29918,118631,13021,-37906,139265,717,19171,2728,1,45760,0.0010029999999999761
282000,-2384,-4005,126597,-38232,4119,112221,717,19112,2937,0,45761,0.0009979999999999989
282999,-2463,2423,129840,16603,-3832,131390,776,19145,3178,0,45762,0.0009990000000000276
283999,9263,4311,119249,12215,7262,113665,799,19140,3272,1,45763,0.0010000000000000009
285000,-9416,31600,128446,-12393,20470,112379,538,19149,2203,1,45764,0.0010009999999999741
285999,8087,-3501,118200,-7721,-7910,127743,702,19149,2875,0,45765,0.0009990000000000276
286999,-2751,7851,124136,17924,8053,108684,796,19151,2875,0,45766,0.0010000000000000009
287999,-1364,-6490,130235,-15908,-9498,134370,746,19105,3260,1,45767,0.0010000000000000009
288999,-8102,2078,128111,-11034,1176,121562,746,19164,3055,1,45768,0.0010000000000000009
289999,-1748,4827,129685,9062,-169,132702,714,19144,2924,0,45769,0.0010000000000000009
290999,-598,19522,126084,-21058,14219,113116,638,19138,2613,0,45770,0.0010000000000000009
291999,-4914,17337,125991,3079,11509,130610,667,19138,2732,1,45771,0.0010000000000000009
293001,7548,-343,130754,8982,-1778,132010,711,19161,2732,1,45772,0.0010020000000000029
293999,1091,-8827,131965,-22672,-14800,140507,835,19112,2912,0,45773,0.0009979999999999989
294999,-3379,-8224,134150,2230,646,135872,835,19149,3420,0,45774,0.0010000000000000009
295999,-233,8705,133769,7870,1077,128967,779,19145,3191,1,45775,0.0010000000000000009
296999,-4607,6602,129345,-20338,6056,134235,526,19158,2154,1,45776,0.0010000000000000009
298000,10401,8198,129655,6344,-638,132255,714,19151,2924,0,45777,0.0010009999999999741
298999,5357,-3336,130348,6133,-5172,127956,789,19151,2924,0,45778,0.0009989999999999721
299999,3489,-5255,132449,-17943,-13281,135427,769,19104,3232,1,45779,0.0010000000000000009
300999,-609,-13121,130974,34285,-13036,137068,769,19161,3150,1,45780,0.0010000000000000009
301999,556,721,128137,-20182,203,126202,709,19138,2904,0,45781,0.0010000000000000009
302999,9696,11938,125033,-17197,19056,116639,638,19140,2613,0,45782,0.0010000000000000009
303999,-4823,24036,129764,49521,4161,124673,792,19180,3244,1,45783,0.0010000000000000009
305000,11376,-26060,118172,-19104,-29368,128516,715,19180,3244,1,45784,0.0010010000000000296
306001,-4475,-8314,127589,-21005,-1449,123862,855,19113,2928,0,45785,0.0010009999999999741
306999,1926,-5440,126731,26163,-5382,127677,855,19147,3502,0,45786,0.0009979999999999989
307999,3817,19181,122771,-3748,27008,101453,778,19122,3186,1,45787,0.0010000000000000009
308999,-10186,23727,127063,-19103,1600,130736,485,19154,1986,1,45788,0.0010000000000000009
310001,10205,-6348,116293,8591,-4697,117757,775,19166,3174,0,45789,0.0010020000000000029
310999,-5321,10352,125758,4668,7482,114151,779,19166,3174,0,45790,0.0009979999999999989
311999,4312,-942,130576,-17479,-6932,131120,880,19107,3191,1,45791,0.0010000000000000009
312999,-13071,-4565,127064,2824,-7639,127496,880,19175,3604,1,45792,0.0010000000000000009
313999,4079,2799,129419,-11750,6216,130797,685,19122,2806,0,45793,0.0010000000000000009
314999,-2659,28734,128472,-6356,22130,115227,592,19137,2425,0,45794,0.0010000000000000009
316000,-6344,9483,123766,1838,-1081,127538,777,19173,3182,1,45795,0.0010010000000000296
316999,9525,-2819,130718,-11437,-5164,132672,691,19173,3182,1,45796,0.0009989999999999721
317999,-540,-4403,132853,-6533,-6228,135500,1007,19118,2830,0,45797,0.0010000000000000009
318999,1078,-2015,132966,6231,-3395,135835,1007,19156,4124,0,45798,0.0010000000000000009
319999,-5733,5236,134480,-6347,2155,131055,765,19120,3133,1,45799,0.0010000000000000009
320999,-662,7816,131013,-15052,-1731,138754,468,19156,1917,1,45800,0.0010000000000000009
321999,7894,-1539,126630,16062,-3464,130792,749,19159,3068,0,45801,0.0010000000000000009
322999,3271,4960,133421,5215,2299,125183,769,19159,3068,0,45802,0.0010000000000000009
323999,6263,-9051,130650,-21516,-15499,138177,899,19101,3150,1,45803,0.0010000000000000009
324999,129,-13624,130209,30636,-11405,134885,899,19173,3682,1,45804,0.0010000000000000009
325999,3059,10552,130727,5483,5400,126914,683,19127,2797,0,45805,0.0010000000000000009
327000,6170,6684,122423,-42221,1601,119643,582,19145,2384,0,45806,0.0010010000000000296
328001,-2358,25300,132865,45197,17384,119307,822,19182,3367,1,45807,0.0010009999999999741
329001,9769,-32759,118686,9242,-39360,140778,680,19182,2785,1,45808,0.0010000000000000009
329999,-7592,638,128586,-34266,7413,109219,962,19120,2785,0,45809,0.0009979999999999989
331001,105,53,129313,13034,-6630,134975,763,19162,3940,0,45810,0.0010020000000000029
332005,5884,6067,119000,14761,9291,111122,763,19108,3125,1,45811,0.0010040000000000049
332999,-10569,30830,128946,-14532,19753,112584,444,19163,1818,1,45812,0.0009939999999999949
333999,8647,-7069,116892,-6797,-11405,129229,739,19161,3027,0,45813,0.0010000000000000009
334999,-2906,7548,124648,18784,8115,107956,762,19161,3121,0,45814,0.0010000000000000009
335999,1747,-4785,129228,-16141,-7358,133362,1019,19109,3121,1,45815,0.0010000000000000009
336999,-10087,3994,127483,-9525,2309,123951,668,19179,4174,1,45816,0.0010000000000000009
337999,1035,2250,128516,6025,-1871,132396,668,19125,2736,0,45817,0.0010000000000000009
338999,-2534,20797,126707,-20505,14814,114126,546,19142,2236,0,45818,0.0010000000000000009
340001,-3631,14047,125155,5120,8362,131000,787,19179,3223,1,45819,0.0010020000000000029
340999,7326,15,131813,6988,-3949,131353,679,19179,2781,1,45820,0.0009979999999999989
341999,-652,-10902,131203,-23153,-15470,141487,997,19122,2781,0,45821,0.0010000000000000009
343001,-2052,-4393,134352,2211,4772,132817,755,19166,4083,0,45822,0.0010020000000000029
344001,-2776,9990,133759,7834,-835,129967,755,19107,3092,1,45823,0.0010000000000000009
345001,-2472,5561,128895,-13317,6193,133362,459,19161,1880,1,45824,0.0010000000000000009
345999,8198,9288,130587,13252,-2776,134101,710,19157,2908,0,45825,0.0009979999999999989
346999,6950,-7432,130735,3331,-7160,128716,750,19109,3072,0,45826,0.0010000000000000009
347999,1183,-2322,133723,-13284,-9401,134002,1022,19109,3072,1,45827,0.0010000000000000009
349003,-311,-14685,130229,28650,-17593,140101,683,19187,4186,1,45828,0.0010040000000000049
350001,63,2156,128467,-15902,4900,122558,683,19121,2797,0,45829,0.0009979999999999989
351001,9928,13909,125130,-20198,14298,119828,573,19140,2347,0,45830,0.0010000000000000009
352002,-2457,21989,129047,51821,7020,122326,790,19165,3236,1,45831,0.0010009999999999741
352999,8919,-23859,119759,-19786,-31505,130509,664,19126,2720,1,45832,0.0009970000000000256
353999,-3172,-11532,126834,-21552,-1945,124176,974,19126,2720,0,45833,0.0010000000000000009
355000,-825,-1628,127262,24853,-2347,126061,754,19164,3989,0,45834,0.0010009999999999741
356008,5335,18077,122682,-3939,25301,103547,754,19108,3088,1,45835,0.0010080000000000089
357001,-10699,24601,126650,-15929,2917,127562,547,19167,2240,1,45836,0.0009929999999999661
357999,11268,-7541,116573,6321,-6530,119379,704,19144,2883,0,45837,0.0009979999999999989
359000,-4174,9467,126067,7032,7859,114491,733,19117,3002,0,45838,0.0010010000000000296
359999,3327,-2267,130303,-18281,-8177,131527,995,19117,3002,1,45839,0.0009989999999999721
360999,-12952,-3390,126973,988,-3613,126924,649,19179,4075,1,45840,0.0010000000000000009
361999,2424,4364,129568,-9155,5368,130713,649,19129,2658,0,45841,0.0010000000000000009
363000,-1771,27953,127770,-7652,22943,114411,615,19155,2519,0,45842,0.0010010000000000296
363999,-5653,10155,124347,2780,-1475,127010,762,19177,3121,1,45843,0.0009989999999999721
365001,10903,-4788,130167,-9259,-5706,132392,643,19130,2634,1,45844,0.0010020000000000029
366001,449,-3861,133309,-5245,-7291,136419,940,19130,2634,0,45845,0.0010000000000000009
367001,-751,-4705,132474,2996,-4250,136682,736,19152,3850,0,45846,0.0010000000000000009
368001,-5803,9436,135507,-7695,5177,130589,736,19115,3014,1,45847,0.0010000000000000009
369000,-1358,5290,130133,-11585,-1990,138436,561,19164,2298,1,45848,0.0009990000000000276
369999,9324,67,126703,17413,-2884,129452,683,19153,2797,0,45849,0.0009989999999999721
371000,3428,1467,132416,1602,-1676,127455,726,19118,2973,0,45850,0.0010010000000000296
371999,6632,-8475,130990,-15763,-12495,135343,986,19118,4038,1,45851,0.0009989999999999721
372999,2612,-10478,130371,27420,-11772,137280,648,19175,4038,1,45852,0.0010000000000000009
373999,-54,9352,130381,8285,6507,125170,628,19130,2654,0,45853,0.0010000000000000009
375001,4641,8519,122713,-43962,1150,120581,628,19143,2572,0,45854,0.0010020000000000029
376000,937,17281,131205,44880,11583,122519,744,19155,3047,1,45855,0.0009990000000000276
377001,8602,-30501,119176,18875,-36183,138349,623,19135,2552,1,45856,0.0010009999999999741
377999,-3664,125,127289,-41218,5741,110395,921,19135,3772,0,45857,0.0009979999999999989
378999,-1317,5398,130146,13064,-452,130534,746,19152,3772,0,45858,0.0010000000000000009
380010,7612,4738,118993,16691,5725,115547,639,19116,3055,1,45859,0.0010109999999999841
380999,-12205,28520,127247,-13819,18946,111403,639,19166,2617,1,45860,0.0009890000000000176
381999,8758,-5033,118369,-8875,-9825,128496,677,19147,2773,0,45861,0.0010000000000000009
383002,-2036,5766,124321,18921,6669,120801,703,19113,2879,0,45862,0.0010030000000000316
384001,2132,-3972,130180,-12171,-6871,131724,955,19113,3911,1,45863,0.0009989999999999721
384999,-10175,1500,127158,-10997,-706,123363,641,19162,3911,1,45864,0.0009979999999999989
385999,-1811,5406,129013,3350,1775,130574,684,19143,2625,0,45865,0.0010000000000000009
386999,-1342,22136,126812,-20265,15481,115296,684,19149,2801,0,45866,0.0010000000000000009
388001,-3746,14728,125508,8823,-1521,130357,746,19153,3055,1,45867,0.0010020000000000029
389000,7933,-3880,130593,5930,-6595,132321,612,19136,2507,1,45868,0.0009989999999999721
389999,727,-9887,131738,-24003,-14128,140606,889,19129,3641,0,45869,0.0009990000000000276
390999,-2136,-4848,133769,5472,3989,133310,726,19129,3641,0,45870,0.0010000000000000009
391999,-2748,11713,133569,-16150,3037,128622,637,19132,2973,1,45871,0.0010000000000000009
393000,-4742,7270,129368,-16617,4125,134811,637,19169,2609,1,45872,0.0010009999999999741
393999,11089,7504,130278,18300,-2457,132863,661,19147,2707,0,45873,0.0009990000000000276
395001,5718,-6493,131076,4201,-8299,129395,698,19122,2859,0,45874,0.0010020000000000029
396001,2557,-6489,133158,-18200,-13652,135446,946,19158,3875,1,45875,0.0010000000000000009
396999,-1411,-13846,130695,33055,-14564,138148,644,19158,3875,1,45876,0.0009979999999999989
397999,541,5388,128983,-15902,5557,123902,671,19135,2638,0,45877,0.0010000000000000009
398999,8658,14462,124339,-23301,15745,117879,671,19154,2748,0,45878,0.0010000000000000009
400001,-2890,24846,129978,52065,7756,122532,741,19145,3035,1,45879,0.0010020000000000029
401001,10035,-28324,119247,-15903,-36645,132727,610,19135,2498,1,45880,0.0010000000000000009
401999,-4012,-11821,127958,-22992,-1333,122814,889,19130,3641,0,45881,0.0009979999999999989
402999,132,-3269,127588,25468,-5151,129248,732,19130,3641,0,45882,0.0010000000000000009
403999,3153,17921,121861,-4352,27357,101285,680,19127,2998,1,45883,0.0010000000000000009
404999,-11490,28112,127473,-17764,5844,127196,680,19173,2785,1,45884,0.0010000000000000009
405999,11319,-7168,115908,7604,-6354,119262,638,19139,2613,0,45885,0.0010000000000000009
407002,-3928,9859,125717,6926,8370,112754,670,19117,2744,0,45886,0.0010029999999999761
408028,3940,-4080,130257,-18538,-10161,133250,932,19144,3817,1,45887,0.0010260000000000269
408999,-12618,-5140,126991,1823,-4839,126701,620,19144,3817,1,45888,0.0009709999999999996
409999,2483,3798,129034,-9770,4693,132160,692,19140,2539,0,45889,0.0010000000000000009
411001,-3262,29418,128043,-9203,24819,113516,692,19156,2834,0,45890,0.0010020000000000029
412001,-5889,12878,124516,1542,1693,125517,722,19151,2957,1,45891,0.0010000000000000009
412999,12005,-5697,130345,-6061,-7535,134060,574,19130,2351,1,45892,0.0009979999999999989
413999,-510,-5916,132398,-2172,-9657,135963,850,19125,3481,0,45893,0.0010000000000000009
414999,-826,-4279,133087,-3014,-3757,136064,708,19125,3481,0,45894,0.0010000000000000009
415999,-5933,8574,135788,-6032,4126,132718,689,19120,2900,1,45895,0.0010000000000000009
416999,-1483,7865,130693,-8212,1061,136026,689,19181,2822,1,45896,0.0010000000000000009
417999,6208,2475,126635,13033,-2550,130476,639,19137,2617,0,45897,0.0009999999999999454
418999,3354,-2831,132218,-1194,-6116,128503,656,19122,2687,0,45898,0.0010000000000000009
420001,6369,-9440,130404,-8016,-11032,134572,906,19146,3711,1,45899,0.0010020000000000029
420999,5389,-8162,130621,23273,-10798,137658,605,19146,2478,1,45900,0.0009979999999999989
421999,-2141,8804,129577,8332,6204,123587,690,19138,2478,0,45901,0.0010000000000000009
422999,3431,9609,123052,-44092,597,122437,731,19158,2826,0,45902,0.0010000000000000009
423999,469,13661,129595,45262,9115,123391,731,19130,2994,1,45903,0.0010000000000000009
424999,6201,-27643,119463,19154,-32592,136441,548,19141,2244,1,45904,0.0010000000000000009
425999,-1226,-3802,125123,-42187,1325,113401,840,19126,3440,0,45905,0.0010000000000000009
426999,-719,8974,131103,14088,4768,126709,712,19126,2916,0,45906,0.0010000000000000009
427999,10385,4420,119110,16389,3549,118073,783,19122,2916,1,45907,0.0010000000000000009
429000,-13686,26656,126898,-12716,18135,111039,655,19181,3207,1,45908,0.0010010000000000296
429999,9104,-3586,118668,-11302,-9059,116806,655,19131,2683,0,45909,0.0009989999999999721
430999,-3145,6915,125263,17382,8397,118498,624,19122,2556,0,45910,0.0010000000000000009
432000,2138,-2561,130679,-8734,-5628,134144,901,19130,3690,1,45911,0.0010010000000000296
433001,-12305,-2801,126834,-10796,-5384,123898,592,19130,2425,1,45912,0.0010009999999999741
433999,-1812,6480,129469,-4118,3328,128378,748,19145,2425,0,45913,0.0009979999999999989
434999,92,26274,128383,-16109,22806,116986,705,19159,3064,0,45914,0.0010000000000000009
435999,-5504,13333,125375,16231,-3377,129677,705,19138,2887,1,45915,0.0010000000000000009
436999,7898,-5867,129912,-5079,-7793,132925,527,19139,2158,1,45916,0.0010000000000000009
437999,839,-9028,132753,-20814,-12229,140959,829,19113,3395,0,45917,0.0010000000000000009
438999,36,-4698,133184,17913,2626,133047,684,19128,2801,0,45918,0.0010000000000000009
440001,-4288,10202,133061,-21941,4521,128497,791,19128,2801,1,45919,0.0010020000000000029
441001,-4106,8364,129327,-16443,4303,136019,614,19180,3240,1,45920,0.0010000000000000009
441999,12081,6960,129396,24788,-521,131090,614,19127,2515,0,45921,0.0009979999999999989
442999,5563,-3582,131715,-1586,-7645,129076,591,19126,2421,0,45922,0.0010000000000000009
443999,4949,-10346,132750,-15067,-19684,139196,884,19119,3621,1,45923,0.0010000000000000009
444999,-5222,-14730,130333,36307,-10347,134787,598,19139,2449,1,45924,0.0010000000000000009
445999,3191,6210,128645,-23346,5052,126159,783,19139,2449,0,45925,0.0010000000000000009
446999,6619,16060,124898,-15073,19174,115997,714,19162,3207,0,45926,0.0010000000000000009
447999,-3012,24761,129456,50348,5334,122632,714,19116,2924,1,45927,0.0010000000000000009
448999,10928,-29903,118120,-21582,-35753,133103,491,19142,2011,1,45928,0.0010000000000000009
449999,-4293,-11496,129111,-14029,-5147,124615,818,19103,3350,0,45929,0.0010000000000000009
450999,2282,-5842,126017,24348,-5563,128452,677,19134,2773,0,45930,0.0010000000000000009
451999,563,22340,123273,-9158,31432,99727,898,19134,2773,1,45931,0.0010000000000000009
453001,-9996,27469,127609,-14806,4768,129275,611,19191,3678,1,45932,0.0010020000000000029
454001,9822,-8769,114670,10483,-7429,118635,611,19132,2502,0,45933,0.0010000000000000009
454999,-3830,11458,126199,3409,10903,111202,584,19126,2392,0,45934,0.0009979999999999989
455999,3694,-3670,130748,-17844,-12190,133496,863,19104,3535,1,45935,0.0010000000000000009
457002,-9166,-8454,125876,3711,-7638,127230,522,19142,2138,1,45936,0.0010029999999999761
458001,2857,5545,130584,-3590,5620,132681,818,19142,3350,0,45937,0.0009990000000000276
459001,-6596,28379,126654,-15438,24202,111664,692,19181,3350,0,45938,0.0010000000000000009
459999,-5075,16705,124757,-2519,6917,123524,692,19123,2834,1,45939,0.0009979999999999989
460999,11141,-3812,131300,-939,-7761,136966,458,19153,1876,1,45940,0.0010000000000000009
461999,-186,-9431,131878,-2395,-11950,134732,795,19084,3256,0,45941,0.0010000000000000009
462999,-3302,-6893,132950,-6190,-6885,138025,591,19136,2421,0,45942,0.0010000000000000009
463999,-3152,4761,134420,-4250,410,134425,864,19136,3539,1,45943,0.0010000000000000009
464999,-981,13621,130458,-3249,8395,130125,592,19189,3539,1,45944,0.0010000000000000009
465999,8466,9122,128094,4652,2999,130054,589,19132,2425,0,45945,0.0010000000000000009
466999,4737,-5141,131097,4750,-7972,129421,589,19130,2412,0,45946,0.0010000000000000009
467999,8506,-11107,131396,-5340,-14431,135021,858,19092,3514,1,45947,0.0010000000000000009
468999,-3894,-12927,130436,24000,-14102,139515,508,19145,2081,1,45948,0.0010000000000000009
469999,3219,4191,129031,-7897,1282,127962,813,19145,3330,0,45949,0.0010000000000000009
470999,3936,16612,125308,-24172,11650,117023,695,19169,3330,0,45950,0.0010000000000000009
471999,-2089,17863,127520,46506,10596,121984,511,19121,2847,1,45951,0.0010000000000000009
472999,11305,-28448,118079,-4185,-30917,133598,511,19161,2093,1,45952,0.0010000000000000009
474000,-2724,-4762,128059,-21764,-2820,118967,774,19090,3170,0,45953,0.0010009999999999741
475000,4558,2736,127561,18122,1016,126484,593,19133,2429,0,45954,0.0010000000000000009
475999,-185,15592,124213,3845,13616,111827,869,19133,3559,1,45955,0.0009990000000000276
477000,-10507,13718,125601,-18535,4296,132467,596,19179,3559,1,45956,0.0010009999999999741
478001,6888,-3025,116449,2428,-6498,108773,631,19133,2441,0,45957,0.0010009999999999741
478999,-2536,16935,128007,12778,18384,117428,631,19129,2584,0,45958,0.0009979999999999989
479999,5932,-1719,129530,-12169,-4851,132812,840,19088,3440,1,45959,0.0010000000000000009
481002,-14306,-11099,125319,-6021,-7981,129996,497,19149,2036,1,45960,0.0010030000000000316
481999,4032,8050,131441,-6510,17045,124779,786,19159,3219,0,45961,0.0009969999999999701
482999,-8370,28321,128600,-11886,17505,119497,684,19159,3219,0,45962,0.0010000000000000009
483999,-4172,6596,123779,8974,-4459,131021,526,19128,2801,1,45963,0.0010000000000000009
484999,6690,-1608,131288,-8599,-2445,130956,526,19157,2154,1,45964,0.0010000000000000009
486002,4195,-4719,132300,-248,-8032,137334,766,19090,3137,0,45965,0.0010030000000000316
487001,821,-3579,132477,11706,-2315,132894,665,19135,2724,0,45966,0.0009989999999999721
487999,-6728,3150,133649,-26361,-1711,134890,833,19176,3412,1,45967,0.0009979999999999989
489000,-1227,6063,129255,-4293,6695,134881,581,19176,3412,1,45968,0.0010010000000000296
490001,5065,13379,130251,15461,6131,127043,641,19138,2380,0,45969,0.0010009999999999741
490999,6938,-4276,131634,-7465,-10652,132174,641,19129,2625,0,45970,0.0009979999999999989
491999,3057,-10709,131658,-6637,-19217,137183,840,19087,3440,1,45971,0.0010000000000000009
493001,515,-16501,129791,33606,-12452,135380,550,19152,2253,1,45972,0.0010020000000000029
493999,3751,10167,131352,-16754,8228,123633,784,19156,3211,0,45973,0.0009979999999999989
494999,5293,13772,124913,-22529,9974,121486,684,19156,3211,0,45974,0.0010000000000000009
495999,-2619,23579,130134,47314,10249,120338,614,19132,2801,1,45975,0.0010000000000000009
496999,5526,-23362,121631,-14690,-35386,134982,614,19154,2515,1,45976,0.0010000000000000009
498001,-3805,-14369,127583,-16517,-6245,123092,764,19094,3129,0,45977,0.0010020000000000029
498999,-35,-5551,126509,21200,-7925,128526,691,19137,2830,0,45978,0.0009979999999999989
499999,5927,18001,122415,-3724,28663,102386,839,19167,3436,1,45979,0.0010000000000000009
500999,-11282,32334,127858,-13884,10874,122844,575,19167,3436,1,45980,0.0010000000000000009
502000,10184,-7752,115815,4781,-9227,122551,653,19142,2355,0,45981,0.0010010000000000296
502999,-4224,6872,124849,9281,7199,113435,653,19140,2674,0,45982,0.0009989999999999721
503999,2411,-3805,128914,-21202,-8227,129881,819,19093,3354,1,45983,0.0010000000000000009
504999,-6239,-2648,127456,273,-3924,125830,627,19161,2568,1,45984,0.0010000000000000009
506001,3549,845,129214,3288,-983,135082,750,19143,3072,0,45985,0.0010019999999999474
506999,-6922,25170,126756,-24575,22157,112790,666,19143,2728,0,45986,0.0009980000000000544
507999,-5422,19076,125861,3816,8805,123750,587,19126,2728,1,45987,0.0010000000000000009
509001,6646,-4282,129301,5942,-7265,135204,737,19157,2404,1,45988,0.0010019999999999474
509999,2557,-5878,130398,-16352,-8280,132179,737,19103,3019,0,45989,0.0009980000000000544
510999,-2482,1266,136213,8,2049,135279,773,19138,3166,0,45990,0.0010000000000000009
512001,5074,851,134143,-724,-8441,139927,807,19156,3305,1,45991,0.0010019999999999474
512999,-6829,1468,130253,616,-1460,131369,562,19156,2302,1,45992,0.0009980000000000544
513999,2469,9692,130308,-2306,2572,131313,638,19148,2302,0,45993,0.0010000000000000009
514999,5335,-7971,129369,790,-7913,132817,815,19143,2613,0,45994,0.0010000000000000009
516000,3130,6046,134466,3683,5323,124373,815,19093,3338,1,45995,0.0010010000000000296
516999,5537,-11549,128475,277,-19529,144256,645,19157,2642,1,45996,0.0009989999999999721
518001,-1816,1638,131618,25767,4249,119589,736,19146,3014,0,45997,0.0010019999999999474
519000,6380,8453,125518,-38033,-3173,128008,666,19146,2728,0,45998,0.0009990000000000832
520002,4928,6763,125518,24205,7850,121521,603,19136,2728,1,45999,0.0010019999999999474
521000,3253,4492,129032,33506,-607,122450,735,19160,2470,1,46000,0.0009980000000000544
521999,1733,-20935,120783,-45648,-20443,127851,735,19100,3010,0,46001,0.0009989999999999721
522999,-8689,9073,132715,10865,6808,118608,785,19139,3215,0,46002,0.0010000000000000009
523999,13742,-6383,119988,19398,-10309,115440,810,19153,3318,1,46003,0.0010000000000000009
524999,-14593,27183,123365,-10591,22135,109359,549,19153,2249,1,46004,0.0010000000000000009
525999,8371,10077,123894,-10271,3811,128893,702,19155,2249,0,46005,0.0010000000000000009
526999,-144,-1863,121029,12857,-94,112038,806,19148,2875,0,46006,0.0010000000000000009
527999,-933,4103,128591,-1635,-5490,131036,806,19095,3301,1,46007,0.0010000000000000009
528999,-8973,-5930,127266,-15433,-4405,127823,731,19158,2994,1,46008,0.0010000000000000009
529999,490,3905,127869,-2433,4750,125820,728,19144,2982,0,46009,0.0010000000000000009
530999,1860,19518,129157,-12608,19842,124345,648,19142,2654,0,46010,0.0010000000000000009
532004,-4972,14993,126533,2381,-802,124601,620,19142,2654,1,46011,0.0010049999999999226
533001,6884,-5366,128501,-13652,-5439,132462,719,19161,2539,1,46012,0.0009970000000000256
534001,-1543,-1552,133642,-9696,-4421,137427,719,19115,2945,0,46013,0.0010000000000000009
534999,-690,-2685,132852,9988,-4212,135590,787,19140,3223,0,46014,0.0009980000000000544
535999,-1628,5362,133747,-7863,3541,129660,793,19156,3248,1,46015,0.0010000000000000009
536999,-7820,8362,130928,-16269,209,135779,542,19155,2220,1,46016,0.0010000000000000009
538002,12485,1297,128055,15024,-1962,131965,678,19155,2220,0,46017,0.0010029999999999761
538999,2015,1526,134199,4259,-1813,128608,794,19145,2777,0,46018,0.0009970000000000256
539999,3578,-8744,131120,-18536,-18300,138286,794,19100,3252,1,46019,0.0010000000000000009
540999,-1805,-11745,129998,32961,-6639,131595,739,19164,3027,1,46020,0.0010000000000000009
541999,1860,5284,129795,-12833,-1251,130378,724,19137,2965,0,46021,0.0010000000000000009
542999,9357,5711,121817,-21410,9647,118321,653,19130,2674,0,46022,0.0010000000000000009
544001,-2440,27680,131487,48367,14589,118524,725,19130,2674,1,46023,0.0010019999999999474
544999,10689,-25697,119035,-14756,-35432,135530,726,19166,2969,1,46024,0.0009980000000000544
545999,-5386,-10074,125957,-19171,409,118708,726,19110,2973,0,46025,0.0010000000000000009
546999,289,-1908,127595,21056,-7190,131930,799,19147,3272,0,46026,0.0010000000000000009
547999,4251,14292,121123,-3136,23377,102194,789,19135,3232,1,46027,0.0010000000000000009
549000,-11320,28633,128470,-13034,8011,124523,521,19153,2134,1,46028,0.0010009999999999186
549999,13621,-8825,117430,6104,-9952,124356,740,19153,2134,0,46029,0.0009990000000000832
550999,-4511,8794,124747,13054,9419,110760,787,19153,3031,0,46030,0.0010000000000000009
551999,-1232,-1807,130225,-23485,-7473,131213,787,19104,3223,1,46031,0.0010000000000000009
552999,-8425,-1181,127385,-10096,-1874,123612,796,19160,3260,1,46032,0.0010000000000000009
553999,3115,5001,130974,13806,2037,135197,699,19136,2863,0,46033,0.0010000000000000009
554999,-7843,21179,126184,-15249,16125,115298,618,19142,2531,0,46034,0.0010000000000000009
555999,-6366,12510,123807,-13978,4976,121897,708,19142,2900,1,46035,0.0010000000000000009
556999,10868,3854,132603,10150,2484,133506,698,19176,2900,1,46036,0.0010000000000000009
557999,2935,-4830,131594,-6301,-9987,135134,809,19112,2859,0,46037,0.0010000000000000009
558999,-1728,-8316,133777,-5820,-7563,138088,809,19143,3313,0,46038,0.0010000000000000009
560001,-3702,614,134611,60,-5255,136856,781,19133,3199,1,46039,0.0010019999999999474
560999,-2838,5226,128785,-7705,1731,130810,506,19154,2072,1,46040,0.0009980000000000544
561999,7809,14482,131470,5079,8183,130053,745,19154,3051,0,46041,0.0010000000000000009
562999,4036,-3642,130436,4907,-5586,131105,773,19159,3051,0,46042,0.0010000000000000009
563999,4656,-5304,130298,-6819,-8235,128780,817,19114,3166,1,46043,0.0010000000000000009
564999,540,-11951,130960,17300,-15128,140187,817,19170,3346,1,46044,0.0010000000000000009
565999,3269,2467,128997,8535,-822,127284,696,19136,2851,0,46045,0.0010000000000000009
566999,5741,8130,124484,-33941,554,122936,621,19143,2543,0,46046,0.0009999999999998899
567999,-2537,21659,131029,38523,17114,119238,819,19143,3354,1,46047,0.0010000000000000009
568999,8056,-22662,120294,10996,-25460,133123,687,19180,3354,1,46048,0.0010000000000000009
569999,-5825,-7793,126487,-30277,-7428,122296,900,19114,2814,0,46049,0.0010000000000000009
570999,1443,-1469,126881,10847,-4310,124875,900,19145,3686,0,46050,0.0010000000000000009
571999,5533,16355,122700,13774,15596,103527,776,19111,3178,1,46051,0.0010000000000000009
572999,-11946,24539,127695,-14964,16198,132565,459,19157,1880,1,46052,0.0010000000000000009
573999,10319,-10738,116268,-4587,-15725,115834,765,19166,3133,0,46053,0.0010000000000000009
574999,-5755,11759,126249,15806,9539,116143,768,19166,3133,0,46054,0.0010000000000000009
575999,4456,1639,129820,-11656,-7737,131024,925,19108,3146,1,46055,0.0010000000000000009
576999,-13494,-4416,126632,-8680,-7015,128163,925,19177,3789,1,46056,0.0010000000000000009
577999,3249,1381,129208,-5688,6687,129390,684,19118,2801,0,46057,0.0010000000000000009
578999,-3756,26316,128156,-410,22006,115540,576,19137,2359,0,46058,0.0010000000000000009
580000,-3439,11178,125094,1755,-4548,130776,810,19183,3318,1,46059,0.0010010000000000296
581001,7792,-5559,129545,-14625,-3898,131287,688,19183,3318,1,46060,0.0010010000000000296
582001,-495,-919,132015,-6907,-2609,134770,1007,19117,2818,0,46061,0.0010000000000000009
582999,1991,-817,133029,9758,-3437,135624,1007,19159,4124,0,46062,0.0009979999999999434
583999,-6023,4737,133931,-12645,2487,130173,756,19118,3096,1,46063,0.0010000000000000009
584999,-2877,4477,129931,-14855,-3580,139692,447,19158,1831,1,46064,0.0010000000000000009
585999,9376,321,128049,19180,145,128626,744,19164,3047,0,46065,0.0010000000000000009
586999,3401,3559,133927,-1223,-2429,128236,771,19164,3047,0,46066,0.0010000000000000009
587999,3254,-8575,130802,-17560,-15173,138298,970,19114,3158,1,46067,0.0010000000000000009
588999,2092,-12269,129808,34805,-9415,134016,970,19182,3973,1,46068,0.0010000000000000009
589999,-47,7424,129627,-6630,4485,125833,690,19118,2826,0,46069,0.0010000000000000009
590999,5863,9012,122339,-33762,6791,118052,558,19138,2285,0,46070,0.0010000000000000009
592001,251,22386,132091,53558,9708,124537,804,19178,3293,1,46071,0.0010020000000000584
592999,7094,-30882,118973,-6672,-37833,135840,685,19178,3293,1,46072,0.0009979999999999434
594000,-3925,-2687,126880,-29216,9547,113100,1016,19118,2806,0,46073,0.0010010000000000296
595008,-605,722,129353,20340,-8469,134736,1016,19177,4161,0,46074,0.0010080000000000089
595999,8815,7882,119543,5402,17835,105124,764,19113,3129,1,46075,0.0009909999999999641
596999,-12491,29337,128434,-11975,11670,121595,482,19162,1974,1,46076,0.0010000000000000009
597999,11958,-6954,118123,-3250,-8973,122394,727,19152,2978,0,46077,0.0010000000000000009
598999,-5318,7807,124375,15325,7548,112169,749,19152,2978,0,46078,0.0010000000000000009
599999,-234,-4166,129855,-19312,-8515,133783,1024,19110,3068,1,46079,0.0010000000000000009
601001,-10777,3069,127882,-6455,2509,120739,658,19186,4194,1,46080,0.0010020000000000584
601999,-1059,3571,129341,2273,-1019,135606,658,19129,2695,0,46081,0.0009979999999999434
602999,-1339,22190,126756,-16036,19488,114711,574,19142,2351,0,46082,0.0010000000000000009
603999,-3239,13385,125499,8749,3836,123309,782,19175,3203,1,46083,0.0010000000000000009
604999,8314,-2498,131298,-2347,-2949,133340,662,19175,2711,1,46084,0.0010000000000000009
605999,408,-8327,131835,-18795,-12842,137822,969,19126,2711,0,46085,0.0010000000000000009
607001,-2198,-5851,133945,7788,-4376,138389,741,19157,3969,0,46086,0.0010020000000000584
607999,-3749,9848,133028,-1159,3942,130200,741,19113,3035,1,46087,0.0009979999999999434
608999,-5973,6721,128943,-19616,1699,130925,495,19159,2027,1,46088,0.0010000000000000009
609999,13893,9129,130646,14672,2613,132594,708,19151,2900,0,46089,0.0010000000000000009
610999,5305,-6758,130463,11530,-7004,132058,746,19151,3055,0,46090,0.0010000000000000009
612001,3680,-6363,132019,-13618,-9765,129359,1014,19111,3055,1,46091,0.0010020000000000584
613000,-3516,-12218,131667,14520,-14847,138728,652,19189,4153,1,46092,0.0009989999999999721
614001,2874,5384,129508,10337,2331,129379,652,19123,2670,0,46093,0.0010010000000000296
615000,5897,11125,124599,-36242,3873,120672,584,19151,2392,0,46094,0.0009989999999999721
615999,-909,23424,130083,38748,18157,115927,775,19162,3174,1,46095,0.0009989999999999721
616999,9483,-24632,120293,15273,-26883,128704,645,19162,2642,1,46096,0.0010000000000000009
618001,-4583,-12668,127421,-30883,-13160,125595,958,19126,2642,0,46097,0.0010020000000000584
618999,828,-3315,126226,13215,-6279,123405,755,19164,3924,0,46098,0.0009979999999999434
620001,1459,22930,122864,10372,21793,99339,755,19112,3092,1,46099,0.0010020000000000584
620999,-11863,26951,127600,-21506,-4849,134376,581,19167,2380,1,46100,0.0009979999999999434
621999,11968,-13451,115786,4821,-7917,116892,688,19152,2818,0,46101,0.0010000000000000009
622999,-3243,8049,125267,14910,7899,115175,722,19119,2957,0,46102,0.0010000000000000009
623999,4052,803,130485,-13301,-7792,131321,988,19119,2957,1,46103,0.0010000000000000009
624999,-10305,-4508,126588,-8070,-7028,129393,652,19176,4047,1,46104,0.0010000000000000009
625999,1533,1631,128723,-13002,8517,129773,652,19127,2670,0,46105,0.0010000000000000009
626999,-6541,29614,127450,-10129,26135,111944,642,19146,2629,0,46106,0.0010000000000000009
628001,-3539,15977,125636,1468,-1796,128824,755,19164,3092,1,46107,0.0010019999999999474
629001,10685,-8174,129822,-4877,-9769,134918,628,19124,2572,1,46108,0.0010000000000000009
629999,528,-5906,132249,-5435,-9217,136444,924,19124,2572,0,46109,0.0009980000000000544
631002,-354,-4269,132702,444,-2129,134905,737,19140,3784,0,46110,0.0010029999999999761
632001,-5545,8764,135325,-9000,6651,130901,737,19112,3019,1,46111,0.0009989999999999721
632999,-3246,10421,131076,-12124,1562,138536,597,19166,2445,1,46112,0.0009980000000000544
633999,8983,1842,128617,16995,-3084,128845,678,19146,2777,0,46113,0.0010000000000000009
634999,-450,-4314,131515,-905,-9050,129031,738,19113,3023,0,46114,0.0010000000000000009
636002,9023,-10644,130233,-12741,-13979,137161,966,19113,3023,1,46115,0.0010029999999999761
637001,-482,-7046,131887,31809,-5262,134627,649,19165,3956,1,46116,0.0009989999999999721
638001,4049,8921,129377,-10049,6679,124053,649,19131,2658,0,46117,0.0010000000000000009
638999,-800,15541,124501,-25335,9261,118397,668,19146,2736,0,46118,0.0009980000000000544
640002,1533,12049,129842,44105,-1710,129012,756,19149,3096,1,46119,0.0010029999999999761
641001,5540,-33340,118941,238,-36866,134836,636,19132,2605,1,46120,0.0009989999999999721
641999,-1766,-3787,127023,-27232,7920,114462,912,19132,2605,0,46121,0.0009980000000000544
642999,1887,9680,129513,16513,3707,125632,740,19141,3735,0,46122,0.0010000000000000009
643999,4780,10322,121218,6178,12015,112724,740,19117,3031,1,46123,0.0010000000000000009
644999,-10494,19332,125340,-11645,6643,122361,643,19170,2634,1,46124,0.0010000000000000009
645999,6070,-1492,118738,-2979,-3102,118421,657,19149,2691,0,46125,0.0010000000000000009
647001,-1344,9345,125747,11291,8495,112445,690,19117,2826,0,46126,0.0010019999999999474
647999,2587,-4899,129890,-10423,-10185,133845,947,19117,3879,1,46127,0.0009980000000000544
649001,-11103,-5900,126115,-7835,-5581,125680,632,19152,3879,1,46128,0.0010019999999999474
650001,47,11074,130050,-6061,9144,127520,661,19136,2588,0,46129,0.0010000000000000009
650999,-4172,24830,127535,-8680,18715,117650,661,19152,2707,0,46130,0.0009980000000000544
652001,-1409,10766,125092,7492,2818,124486,725,19152,2969,1,46131,0.0010019999999999474
652999,5476,-1774,131016,-8244,-3330,132443,593,19130,2429,1,46132,0.0009980000000000544
653999,3202,-9326,131913,-11479,-11771,137485,879,19130,3600,0,46133,0.0010000000000000009
654999,-1823,-5451,133366,10467,-6544,137694,723,19141,3600,0,46134,0.0010000000000000009
655999,-3621,6975,132739,-8947,2405,132337,633,19125,2961,1,46135,0.0010000000000000009
656999,-5473,10926,129344,-15902,5032,129670,633,19173,2593,1,46136,0.0010000000000000009
658000,11397,12014,130513,14528,5282,130754,648,19149,2654,0,46137,0.0010009999999999186
659018,6535,-7367,131231,9364,-8207,133327,679,19119,2781,0,46138,0.0010180000000000744
660003,2386,-11221,132189,-10464,-14690,132475,925,19119,3789,1,46139,0.0009850000000000136
661004,-1725,-16042,130617,12106,-18383,139962,622,19151,3789,1,46140,0.0010009999999999186
661999,2199,9884,131343,13081,7797,125874,663,19142,2548,0,46141,0.0009950000000000792
662999,5543,14101,124591,-40381,5998,120639,663,19153,2715,0,46142,0.0010000000000000009
663999,-783,25972,129878,35400,21647,122209,733,19143,3002,1,46143,0.0010000000000000009
665001,7633,-20302,122532,17886,-21993,133166,574,19134,2351,1,46144,0.0010019999999999474
665999,-3214,-19271,126785,-29689,-20686,125187,862,19126,3530,0,46145,0.0009980000000000544
666999,-2161,-4538,128607,11886,-7543,126673,722,19126,3530,0,46146,0.0010000000000000009
667999,3148,17839,122634,8431,31840,101388,724,19122,2957,1,46147,0.0010000000000000009
668999,-14199,31463,127671,-19294,5267,128498,724,19179,2965,1,46148,0.0010000000000000009
670001,10553,-7524,116703,2814,-6903,118424,640,19135,2621,0,46149,0.0010019999999999474
671001,-2323,6326,123337,12625,7792,113050,653,19126,2674,0,46150,0.0010000000000000009
672002,3558,194,130232,-8252,-8703,132083,915,19142,3748,1,46151,0.0010010000000000296
673001,-6345,-8696,126645,4346,-10242,130944,616,19142,3748,1,46152,0.0009989999999999721
674000,1818,-329,128023,-8064,7212,129816,715,19140,2523,0,46153,0.0009989999999999721
674999,-6705,28744,127139,-14678,26923,112304,715,19155,2928,0,46154,0.0009990000000000832
675999,-3431,19564,125145,-758,5172,124716,703,19138,2879,1,46155,0.0010000000000000009
676999,9436,-3029,130795,-3605,-8343,135474,554,19138,2269,1,46156,0.0010000000000000009
677999,1264,-10150,132052,-5002,-14586,138479,839,19137,3436,0,46157,0.0010000000000000009
678999,-3363,-6795,133932,-1001,-4178,135806,709,19137,3436,0,46158,0.0010000000000000009
680000,-3560,2946,134585,-6445,-1543,135929,744,19124,2904,1,46159,0.0010009999999999186
680999,-6406,11356,130379,-6117,9600,129954,744,19176,3047,1,46160,0.0009990000000000832
681999,10060,13710,130138,5463,4729,128045,626,19134,2564,0,46161,0.0010000000000000009
683001,4219,-5028,131228,4638,-9326,130542,627,19122,2568,0,46162,0.0010019999999999474
683999,5890,-8617,131984,-7087,-13845,135203,888,19137,3637,1,46163,0.0009980000000000544
685001,-816,-17952,130380,23874,-20000,142541,612,19137,3637,1,46164,0.0010019999999999474
685999,-1758,4912,131602,-8239,5271,123414,740,19140,2507,0,46165,0.0009979999999999434
686999,5177,16002,124950,-27696,9610,120324,740,19162,3031,0,46166,0.0010000000000000009
687999,-114,20436,128044,50533,13787,119647,722,19121,2957,1,46167,0.0010000000000000009
689001,8781,-19588,120300,-7072,-29566,131017,525,19148,2150,1,46168,0.0010020000000000584
689999,-421,-12589,125065,-22826,-4342,120579,831,19110,3404,0,46169,0.0009979999999999434
690999,1988,3113,129988,20743,-785,126813,696,19110,2851,0,46170,0.0010000000000000009
692000,5240,6305,121985,3171,8115,116382,860,19123,2851,1,46171,0.0010010000000000296
692999,-16212,21863,126451,-15422,11016,118111,619,19188,3522,1,46172,0.0009989999999999721
693999,9853,337,119335,-1473,-4106,122660,619,19131,2535,0,46173,0.0010000000000000009
695000,-3553,10262,123299,15531,12768,108774,573,19125,2347,0,46174,0.0010010000000000296
695999,6999,2479,129319,-11935,-3845,127391,879,19114,3600,1,46175,0.0009989999999999721
696999,-11154,-8813,125951,-6853,-10536,129831,557,19114,2281,1,46176,0.0010000000000000009
697999,1656,4313,130041,-4776,3143,129604,795,19139,2281,0,46177,0.0010000000000000009
698999,-6067,25218,129010,-10048,19960,119236,695,19165,3256,0,46178,0.0010000000000000009
699999,-5208,10525,125033,5961,2170,124996,695,19126,2847,1,46179,0.0010000000000000009
700999,6951,-1734,129879,-8797,-1521,130489,479,19138,1962,1,46180,0.0010000000000000009
701999,3684,-3357,132785,-10269,-6658,135184,807,19119,3305,0,46181,0.0010000000000000009
702999,4250,-4990,132958,13888,-6606,137336,678,19119,2777,0,46182,0.0010000000000000009
703999,-6742,4492,134421,-6360,513,132525,861,19126,2777,1,46183,0.0010000000000000009
705001,-6060,5085,129510,-22649,-1274,134793,604,19187,3526,1,46184,0.0010020000000000584
706001,7020,10723,130945,18165,6023,130580,604,19127,2474,0,46185,0.0010000000000000009
706999,3595,-946,131739,5445,-1498,129654,569,19125,2330,0,46186,0.0009979999999999434
707999,4656,-7866,131992,-12336,-11039,130692,866,19109,3547,1,46187,0.0010000000000000009
708999,1946,-16878,129541,17092,-21065,142098,543,19145,2224,1,46188,0.0010000000000000009
709999,2798,3656,130736,15469,2455,125364,823,19145,2224,0,46189,0.0010000000000000009
710999,5258,17260,126064,-45869,8857,119336,707,19165,3371,0,46190,0.0010000000000000009
712000,-1036,22636,130616,39502,18748,126262,707,19118,2896,1,46191,0.0010010000000000296
712999,3877,-23680,120511,18947,-24089,130277,480,19147,1966,1,46192,0.0009989999999999721
713999,-1922,-14583,126124,-37907,-16538,122016,785,19098,3215,0,46193,0.0010000000000000009
714999,-406,133,127925,19959,-5150,125671,616,19137,2523,0,46194,0.0010000000000000009
715999,7469,12321,121387,8900,26640,103259,886,19137,2523,1,46195,0.0010000000000000009
717000,-13853,30984,128289,-19150,7760,128489,607,19192,3629,1,46196,0.0010010000000000296
717999,9961,-5807,117607,1825,-5648,117816,607,19136,2486,0,46197,0.0009989999999999721
718999,-5393,6323,123738,10201,5875,115318,610,19140,2498,0,46198,0.0010000000000000009
719999,1408,-4091,129921,-18362,-13295,134039,854,19088,3498,1,46199,0.0010000000000000009
720999,-6403,-6396,125741,2404,-2144,124408,485,19147,1986,1,46200,0.0010000000000000009
721999,2888,5872,129503,-1014,5082,132006,803,19147,1986,0,46201,0.0010000000000000009
722999,-3804,21877,125181,-16527,22159,113116,690,19174,3289,0,46202,0.0010000000000000009
723999,-4857,21210,126132,-3502,8313,122979,690,19130,2826,1,46203,0.0010000000000000009
724999,8033,-1087,130989,324,-5812,136513,502,19144,2056,1,46204,0.0010000000000000009
726001,555,-7508,131888,-7210,-13354,136697,786,19089,3219,0,46205,0.0010020000000000584
726999,-4095,-10835,133827,-5378,-9347,139360,612,19135,2507,0,46206,0.0009979999999999434
727999,-434,3160,134815,570,-1245,134251,852,19135,2507,1,46207,0.0010000000000000009
729001,-7131,10637,130239,-4392,8079,129566,597,19188,3490,1,46208,0.0010020000000000584
730000,12035,12020,130079,-1320,4062,129150,597,19137,2445,0,46209,0.0009989999999999721
730999,2215,-1670,131370,9473,-5085,130181,607,19136,2486,0,46210,0.0009989999999999721
731999,4976,-6840,131196,-10392,-12433,133347,852,19088,3490,1,46211,0.0010000000000000009
732999,-985,-15450,131177,22844,-17583,141018,522,19145,2138,1,46212,0.0010000000000000009
733999,-991,-1513,129972,-3273,-2821,129305,809,19145,2138,0,46213,0.0010000000000000009
735002,6381,11779,123470,-29031,9835,117022,695,19166,3313,0,46214,0.0010029999999999761
736001,498,27817,130874,46478,18900,118068,695,19126,2847,1,46215,0.0009990000000000832
736999,10760,-21104,119644,231,-31327,133644,573,19145,2347,1,46216,0.0009979999999999434
737999,-4417,-13229,124679,-26732,-4790,119511,786,19091,3219,0,46217,0.0010000000000000009
739002,2588,1663,129949,16137,-2860,129900,631,19138,2584,0,46218,0.0010029999999999761
740001,5188,9262,122395,10229,11937,112586,850,19138,3481,1,46219,0.0009990000000000832
741000,-15227,20728,126760,-15884,7786,120146,581,19171,3481,1,46220,0.0009989999999999721
741999,10667,-2793,118619,-3876,-5776,123275,649,19135,2380,0,46221,0.0009989999999999721
742999,-5375,13501,123474,16419,16252,106424,649,19136,2658,0,46222,0.0010000000000000009
743999,6761,4767,130003,-11595,-1335,127668,834,19097,3416,1,46223,0.0010000000000000009
744999,-11704,-9308,125835,-8544,-12661,130330,560,19149,2294,1,46224,0.0010000000000000009
745999,2216,1390,130070,-3715,1020,131119,771,19149,3158,0,46225,0.0010000000000000009
746999,-6309,25868,130245,-9804,19829,118663,672,19154,3158,0,46226,0.0010000000000000009
747999,-4004,8366,124987,5548,562,125862,553,19124,2752,1,46227,0.0010000000000000009
749000,5651,-1348,130056,-6016,-383,130661,553,19150,2265,1,46228,0.0010010000000000296
750002,2147,-1117,132084,-13577,-4048,133372,748,19094,3064,0,46229,0.0010019999999999474
751000,4225,-1504,132797,11287,-3866,135571,720,19139,2949,0,46230,0.0009980000000000544
751999,-6908,3470,133600,-3301,-740,132577,823,19139,3371,1,46231,0.0009989999999999721
752999,-4110,2400,129460,-25431,-4667,136914,571,19174,3371,1,46232,0.0010000000000000009
753999,8114,9802,131603,20817,5471,131053,655,19141,2339,0,46233,0.0010000000000000009
754999,3246,-1522,131756,6895,-1494,129888,655,19135,2683,0,46234,0.0010000000000000009
755999,4340,-7641,131142,-15365,-11104,131139,824,19088,3375,1,46235,0.0010000000000000009
757002,-145,-14374,130454,15297,-17321,134460,577,19151,2363,1,46236,0.0010029999999999761
757999,5156,6861,130970,16184,4727,123563,753,19152,3084,0,46237,0.0009970000000000256
758999,4541,12227,125623,-42817,3491,120147,677,19152,3084,0,46238,0.0010000000000000009
759999,-1054,22671,131202,34968,19037,124604,616,19131,2773,1,46239,0.0010000000000000009
760999,3396,-21794,121355,18446,-21045,130940,616,19156,2523,1,46240,0.0010000000000000009
762006,-3568,-12585,126888,-32019,-887,122796,744,19106,3047,0,46241,0.0010069999999999801
763001,554,-3934,126691,13030,-5770,126823,736,19133,3014,0,46242,0.0009949999999999681
764001,5622,15217,121314,9951,30875,99902,822,19143,3367,1,46243,0.0010000000000000009
765001,-13257,31996,129004,-18690,5004,129438,564,19143,3367,1,46244,0.0010000000000000009
766001,11508,-9454,117907,8674,-9788,120816,647,19153,2310,0,46245,0.0010000000000000009
766999,-5361,5045,123659,4295,6561,115002,647,19142,2650,0,46246,0.0009980000000000544
768005,2398,-1893,128777,-20513,-7465,130237,815,19101,3338,1,46247,0.0010059999999999514
769001,-6407,-2550,126257,2652,-2784,124803,682,19154,2793,1,46248,0.0009959999999999969
769999,2638,3372,129060,-3352,3191,133021,744,19141,3047,0,46249,0.0009980000000000544
771001,-6410,22234,126660,-19150,21597,113529,658,19141,3047,0,46250,0.0010019999999999474
772000,-4813,18704,126410,5655,5242,125185,602,19131,2695,1,46251,0.0009990000000000832
772999,5264,-4146,129356,-1465,-7724,135394,602,19157,2466,1,46252,0.0009989999999999721
774002,3066,-6403,130129,-11469,-8150,133666,727,19104,2978,0,46253,0.0010029999999999761
774999,-858,2258,136411,-2043,2746,134782,798,19142,3268,0,46254,0.0009970000000000256
776002,4256,-272,134361,43,-10309,139834,804,19147,3293,1,46255,0.0010029999999999761
777000,-10296,998,129863,1799,1038,130473,560,19147,3293,1,46256,0.0009979999999999434
777999,5179,8503,131069,-9077,-822,132665,652,19143,2294,0,46257,0.0009990000000000832
778999,2180,-5930,129153,7630,-3744,129920,652,19142,2670,0,46258,0.0010000000000000009
779999,4871,7870,133370,-1103,5381,125320,803,19102,3289,1,46259,0.0010000000000000009
781005,4104,-9227,130163,601,-22749,145285,716,19164,2933,1,46260,0.0010059999999999514
782000,-611,-6770,129556,28472,2925,120106,741,19144,3035,0,46261,0.0009949999999999681
782999,589,10198,124955,-40690,-5834,129088,667,19144,3035,0,46262,0.0009990000000000832
783999,10830,3010,125243,25115,13081,117833,672,19137,2732,1,46263,0.0010000000000000009
784999,2418,12584,131105,32893,-3650,125211,736,19162,2752,1,46264,0.0010000000000000009
786001,4273,-28219,117039,-44320,-21646,127463,736,19106,3014,0,46265,0.0010019999999999474
786999,-11063,14510,134234,9752,11830,116296,779,19142,3191,0,46266,0.0009980000000000544
787999,14042,-9853,120447,17333,-15794,136072,798,19149,3268,1,46267,0.0010000000000000009
788999,-13376,23457,121549,-4194,26123,97802,543,19149,2224,1,46268,0.0010000000000000009
789999,6345,17383,126967,-14799,3642,126483,700,19151,2224,0,46269,0.0010000000000000009
791001,726,-5225,118779,12424,-723,117115,797,19144,2867,0,46270,0.0010019999999999474
791999,-2294,8021,129617,-30,3008,120845,797,19099,3264,1,46271,0.0009980000000000544
792999,-6182,-8966,127752,-16533,-11883,136368,733,19164,3002,1,46272,0.0010000000000000009
794000,-2234,7026,128074,-959,4373,120552,710,19148,2908,0,46273,0.0010009999999999186
794999,72,14462,129635,-11759,8743,129175,620,19148,2539,0,46274,0.0009990000000000832
795999,-2744,14656,127526,8243,8267,121805,658,19131,2539,1,46275,0.0010000000000000009
796999,3387,-2404,127430,-2788,-2226,128484,720,19165,2695,1,46276,0.0010000000000000009
797999,392,6,132917,-17315,-2289,135209,720,19109,2949,0,46277,0.0010000000000000009
799001,426,-1738,132853,3959,-5073,136446,761,19150,3117,0,46278,0.0010019999999999474
799999,-104,4107,133829,6008,1671,132963,788,19138,3227,1,46279,0.0009980000000000544
801001,-11522,7581,130999,-18288,-15,129884,530,19153,2171,1,46280,0.0010019999999999474
802003,14367,-226,129833,2125,-5746,137791,701,19153,2171,0,46281,0.0010019999999999474
802999,1709,-2109,133034,19059,-266,130729,785,19147,2871,0,46282,0.000996000000000108
803999,3150,-3222,131648,-12699,-6860,136152,785,19099,3215,1,46283,0.0009999999999998899
804999,-236,-9952,129797,4352,-12859,130287,743,19166,3043,1,46284,0.0010000000000000009
805999,1097,5375,130535,21242,2723,131364,705,19136,2887,0,46285,0.0010000000000000009
807000,10089,-26,120873,-41630,-9218,117116,639,19137,2617,0,46286,0.0010010000000000296
808005,-2084,30486,133607,36184,11861,119870,769,19137,2617,1,46287,0.0010050000000000336
809001,7805,-21345,120543,19627,-34848,133545,702,19172,3150,1,46288,0.0009959999999999969
809999,-4876,-14454,125118,-33325,-34,121272,702,19110,2875,0,46289,0.0009979999999999434
810999,-580,-2138,128473,12221,-5975,130640,835,19145,3420,0,46290,0.0010000000000000009
811999,4524,14949,120328,9508,29612,97513,811,19117,3322,1,46291,0.0010000000000000009
812999,-14433,30920,129124,-14486,2438,130075,497,19156,2036,1,46292,0.0010000000000000009
813999,15831,-12173,119077,10873,-11295,123532,782,19156,2036,0,46293,0.0010000000000000009
814999,-5294,5756,122486,9600,8153,112301,785,19169,3203,0,46294,0.0010000000000000009
816000,-375,812,129694,-27929,-5239,129767,785,19101,3215,1,46295,0.0010010000000000296
816999,-6707,262,126807,-3083,-1018,124015,865,19170,3543,1,46296,0.0009989999999999721
817999,2622,4286,129607,12974,3248,134988,690,19126,2826,0,46297,0.0010000000000000009
819000,-7965,19941,126724,-21882,15601,114639,599,19133,2453,0,46298,0.0010010000000000296
820016,-5053,11592,124448,-8931,3324,124279,773,19133,2453,1,46299,0.0010160000000000169
820999,8543,3141,132388,11126,1982,132950,694,19178,3166,1,46300,0.0009829999999999561
821999,4348,-4816,131382,-11603,-12979,137609,694,19124,2842,0,46301,0.0010000000000000009
822999,-2511,-7613,134164,-3923,-4296,136112,958,19153,3924,0,46302,0.0010000000000000009
823999,-3739,2477,133535,268,-4865,136536,768,19115,3146,1,46303,0.0010000000000000009
825000,-5244,5310,128324,-9306,6605,128960,472,19156,1933,1,46304,0.0010010000000000296
825999,10450,15084,133273,5847,5248,130985,755,19156,1933,0,46305,0.0009989999999999721
826999,1241,-6216,129543,5355,-9445,132385,772,19158,3092,0,46306,0.0010000000000000009
827999,3965,-6243,130036,-7043,-9087,129416,772,19108,3162,1,46307,0.0010000000000000009
828999,519,-9632,132392,15186,-11805,138750,912,19170,3735,1,46308,0.0010000000000000009
829999,3878,1794,128789,7501,-1586,128663,694,19119,2842,0,46309,0.0010000000000000009
830999,3082,9688,125264,-27497,4304,120624,590,19137,2416,0,46310,0.0010000000000000009
831999,2338,20318,131061,32395,12737,118911,823,19137,3371,1,46311,0.0010000000000000009
833001,2769,-19726,121812,12801,-27138,134370,695,19190,3371,1,46312,0.0010020000000000584
833999,-2258,-14397,124800,-28356,-8842,122198,978,19118,2847,0,46313,0.0009979999999999434
835002,-1504,1594,128146,8917,-387,126639,978,19163,4006,0,46314,0.0010029999999999761
836000,6223,18776,122654,11591,21260,107966,765,19110,3133,1,46315,0.0009980000000000544
836999,-11073,23415,126834,-11640,9484,118187,444,19156,1818,1,46316,0.0009989999999999721
837999,10358,-11689,117985,-1211,-16130,128274,738,19156,3023,0,46317,0.0010000000000000009
838999,-4650,7591,123748,12398,11747,109866,764,19155,3023,0,46318,0.0010000000000000009
839999,2803,5126,130150,-12103,850,125859,1010,19108,3129,1,46319,0.0010000000000000009
841002,-9268,-3411,127686,-9254,-7727,128889,1010,19184,4137,1,46320,0.0010029999999999761
842001,-597,-92,127225,-3769,-1781,132167,665,19120,2724,0,46321,0.0009990000000000832
843001,-3502,25622,128620,-12604,21139,115631,545,19145,2232,0,46322,0.0010000000000000009
844006,-1110,13375,126240,9662,5187,123573,789,19185,3232,1,46323,0.0010049999999999226
844999,6299,-7260,128650,-2645,-5942,133868,670,19185,3232,1,46324,0.0009930000000000216
845999,2030,-1975,132095,-13140,-4517,133035,989,19123,2744,0,46325,0.0010000000000000009
847002,351,-1465,133726,3485,-4853,138227,989,19161,4051,0,46326,0.0010029999999999761
848000,-4840,5933,134235,2209,4019,129177,757,19110,3100,1,46327,0.0009980000000000544
849001,-7926,6268,130687,-25086,-2409,136508,457,19161,1872,1,46328,0.0010010000000000296
849999,12208,1307,129445,11965,-3327,135093,712,19157,2916,0,46329,0.0009979999999999434
851002,1092,1093,132967,16182,2572,129477,748,19157,2916,0,46330,0.0010029999999999761
852001,5004,-8875,130789,-13603,-12743,138713,1031,19115,3064,1,46331,0.0009990000000000832
853000,2458,-12305,130184,2273,-15565,132876,1031,19194,4223,1,46332,0.0009989999999999721
853999,-802,10319,131478,30553,8479,124496,670,19120,2744,0,46333,0.0009989999999999721
854999,3721,9593,122887,-48541,8209,118633,565,19145,2314,0,46334,0.0010000000000000009
856002,3451,22781,133083,22981,6012,126549,786,19170,3219,1,46335,0.0010029999999999761
856999,4234,-26765,120932,39326,-39588,134518,646,19170,3219,1,46336,0.0009970000000000256
857999,-750,-10091,125286,-35960,9764,113358,970,19131,2646,0,46337,0.0010000000000000009
859002,-2946,4717,131402,-35,-8983,134630,970,19164,3973,0,46338,0.0010029999999999761
860001,9240,4306,118409,2966,21803,103584,758,19114,3105,1,46339,0.0009990000000000832
861001,-15905,33732,127978,-13872,11382,122822,553,19163,2265,1,46340,0.0010000000000000009
862001,10978,-5689,119932,-850,-7668,121022,707,19147,2896,0,46341,0.0009999999999998899
863001,-3695,5966,121919,14679,4801,113486,734,19147,2896,0,46342,0.0010000000000000009
864001,506,-5989,129204,-20131,-10723,134686,1000,19121,3006,1,46343,0.0010000000000000009
864999,-5805,1879,128035,-5601,4389,119681,1000,19184,4096,1,46344,0.0009980000000000544
865999,-2124,4027,128270,5498,-1881,137019,654,19125,2679,0,46345,0.0010000000000000009
867002,-3269,17863,126644,-19095,19999,113916,619,19149,2535,0,46346,0.0010029999999999761
867999,-2291,19057,127336,1537,6422,122762,765,19172,3133,1,46347,0.0009970000000000256
868999,6154,-1048,130029,4201,-2513,133323,639,19172,3133,1,46348,0.0010000000000000009
869999,3339,-6825,131324,-17463,-15384,137850,936,19125,2617,0,46349,0.0010000000000000009
870999,-2086,-10837,134309,3672,-4802,138766,936,19158,3834,0,46350,0.0010000000000000009
872001,-2788,10727,134397,933,2815,131707,739,19118,3027,1,46351,0.0010019999999999474
872999,-9861,5465,128767,-16913,3499,130464,563,19163,2306,1,46352,0.0009980000000000544
874001,12793,12516,132992,10898,4588,131111,701,19152,2871,0,46353,0.0010019999999999474
875001,2616,-7477,129309,8684,-10701,133341,723,19152,2961,0,46354,0.0010000000000000009
875999,4833,-6273,131549,-10065,-8483,128747,984,19119,2961,1,46355,0.0009980000000000544
876999,6,-10444,132792,14088,-15227,140379,662,19175,4030,1,46356,0.0010000000000000009
877999,172,936,129528,10245,-809,128723,662,19126,2711,0,46357,0.0010000000000000009
879002,4872,12601,125733,-37101,6825,119579,641,19144,2625,0,46358,0.0010029999999999761
880003,3012,23927,131082,39238,16968,117805,761,19160,3117,1,46359,0.0010010000000000296
881007,2929,-17369,121193,16102,-26975,132551,644,19160,2638,1,46360,0.0010040000000000049
882001,-340,-18301,125547,-34431,-13364,123779,940,19128,2638,0,46361,0.0009939999999999394
883001,-2323,-1822,128939,16409,-4961,130768,748,19149,3850,0,46362,0.0010000000000000009
883999,6030,15943,121587,10898,19545,108264,748,19113,3064,1,46363,0.0009980000000000544
885001,-16219,27633,127204,-18869,15765,115049,633,19164,2593,1,46364,0.0010019999999999474
885999,12218,-8288,119394,529,-13606,129510,676,19148,2769,0,46365,0.0009980000000000544
887002,-3715,6705,122078,16099,10829,107932,707,19148,2896,0,46366,0.0010029999999999761
887999,5088,2170,129677,-12234,-1945,127433,962,19117,2896,1,46367,0.0009970000000000256
888999,-6195,-5207,126082,-9070,-8161,128197,625,19164,3940,1,46368,0.0010000000000000009
889999,-2080,536,127707,-555,-1455,131613,625,19138,2560,0,46369,0.0010000000000000009
891000,-3065,24918,128062,-18461,20282,118038,682,19154,2793,0,46370,0.0010010000000000296
892002,-4463,18567,127223,7504,11433,119956,727,19152,2978,1,46371,0.0010019999999999474
893001,7729,-7516,128424,-1760,-7023,135620,612,19134,2507,1,46372,0.0009989999999999721
894001,3177,-5375,132354,-6937,-8328,133588,895,19134,2507,0,46373,0.0010000000000000009
894999,-898,-4677,133504,2359,-7914,138008,726,19133,3666,0,46374,0.0009980000000000544
896000,-1834,7246,133392,-6363,4852,130146,726,19125,2973,1,46375,0.0010009999999999186
896999,-8588,12472,132505,-20510,4132,134412,630,19174,2580,1,46376,0.0009990000000000832
897999,11743,1976,130683,11515,-2340,129426,662,19149,2711,0,46377,0.0010000000000000009
899012,-6841,-3981,130793,15964,-2318,128150,701,19118,2871,0,46378,0.0010129999999999306
900001,12016,-11531,130433,-18492,-15665,140196,944,19118,2871,1,46379,0.0009890000000000176
900999,-420,-9332,131561,12563,-11840,132277,628,19157,3866,1,46380,0.0009980000000000544
901999,5025,10820,130817,19472,7758,122896,628,19133,2572,0,46381,0.0010000000000000009
903001,561,17454,126770,-45538,12252,118411,670,19151,2744,0,46382,0.0010019999999999474
904002,219,13961,131056,46705,-6694,131378,743,19146,3043,1,46383,0.0010010000000000296
905000,3366,-31408,119803,29831,-35303,133235,598,19137,2449,1,46384,0.0009979999999999434
906001,-893,-8379,126169,-27444,8834,114985,888,19137,2449,0,46385,0.0010010000000000296
907000,1149,11709,130842,22502,4548,124879,732,19128,3637,0,46386,0.0009989999999999721
907999,4553,9256,120226,-300,12184,112012,732,19120,2998,1,46387,0.0009990000000000832
908999,-10834,19265,125802,-12426,5466,124707,668,19175,2736,1,46388,0.0010000000000000009
909999,5769,147,120277,1350,-847,116211,648,19147,2654,0,46389,0.0010000000000000009
911000,-3227,7170,122480,4593,6325,113921,676,19119,2769,0,46390,0.0010009999999999186
912001,3846,-3798,129939,-9578,-11038,134366,930,19119,2769,1,46391,0.0010010000000000296
912999,-8544,-8728,125342,-4980,-5909,125990,629,19142,3809,1,46392,0.0009980000000000544
914000,266,10068,127659,-9440,11501,126266,629,19142,2576,0,46393,0.0010009999999999186
914999,-3311,25989,128407,-7671,19877,117066,688,19157,2818,0,46394,0.0009990000000000832
916002,538,12179,124931,8288,2837,124519,724,19146,2965,1,46395,0.0010029999999999761
916999,3122,-592,130373,-10959,-4159,132737,579,19136,2371,1,46396,0.0009970000000000256
917999,4653,-10323,131613,-10056,-14904,138924,858,19136,2371,0,46397,0.0010000000000000009
918999,-739,-6883,134254,12821,-4568,136042,717,19128,3514,0,46398,0.0010000000000000009
919999,-4737,6784,133357,-12561,713,134170,717,19129,2937,1,46399,0.0010000000000000009
920999,-9197,10096,130005,-13278,6936,128765,679,19170,2781,1,46400,0.0010000000000000009
922000,10576,13285,131883,13135,4744,131126,637,19144,2609,0,46401,0.0010009999999999186
923001,4006,-5266,130645,7081,-7525,132553,655,19119,2683,0,46402,0.0010010000000000296
924001,3849,-7983,132395,-8993,-14131,131187,903,19119,3698,1,46403,0.0010000000000000009
925001,223,-18418,130703,18376,-19951,141520,632,19140,3698,1,46404,0.0010000000000000009
925999,193,4939,130577,2841,3533,127351,706,19136,2588,0,46405,0.0009979999999999434
926999,6195,14999,125952,-34263,9510,119432,706,19156,2892,0,46406,0.0010000000000000009
928002,-471,26587,130298,43379,19475,115667,728,19133,2982,1,46407,0.0010030000000000872
929001,4543,-17573,121480,4365,-27045,133438,561,19142,2298,1,46408,0.0009989999999999721
929999,-895,-20783,125767,-25594,-16758,125740,853,19142,3494,0,46409,0.0009979999999999434
930999,659,-4375,128454,19513,-6846,130665,714,19121,3494,0,46410,0.0010000000000000009
931999,4189,15889,122452,4681,19334,107581,790,19121,2924,1,46411,0.0010000000000000009
932999,-14001,29675,128090,-20206,18677,114421,790,19179,3236,1,46412,0.0010000000000000009
933999,11690,-7018,117684,6672,-11905,129583,624,19128,2556,0,46413,0.0010000000000000009
934999,-5702,9108,122372,12122,13247,106449,615,19126,2519,0,46414,0.0010000000000000009
935999,5159,1669,129841,-14578,-3405,127208,895,19126,3666,1,46415,0.0010000000000000009
936999,-5736,-10091,126302,-5662,-13240,131470,591,19126,3666,1,46416,0.0010000000000000009
937999,2171,-1132,127868,3671,-2637,131980,752,19145,2421,0,46417,0.0010000000000000009
938999,-5328,26011,128359,-19665,21279,117731,752,19159,3080,0,46418,0.0010000000000000009
939999,-4127,19518,126212,1766,13512,118297,701,19134,2871,1,46419,0.0010000000000000009
940999,6587,-1901,129473,-344,-1036,133411,515,19134,2109,1,46420,0.0010000000000000009
941999,2516,-6664,131806,-3958,-10485,136069,820,19117,3358,0,46421,0.0010000000000000009
942999,-1819,-7880,133650,-2777,-10751,137669,702,19117,3358,0,46422,0.0010000000000000009
943999,-3576,2759,135031,-4473,103,135188,806,19130,2875,1,46423,0.0010000000000000009
945001,-6898,8307,131119,-12983,726,132591,806,19179,3301,1,46424,0.0010020000000000584
946000,10848,11442,130798,8570,7841,127420,611,19128,2502,0,46425,0.0009989999999999721
946999,-668,-1632,130260,4372,-451,128690,583,19122,2388,0,46426,0.0009989999999999721
947999,8217,-7646,131103,-2965,-11094,137371,876,19122,3588,1,46427,0.0010000000000000009
948999,1625,-16474,130332,7735,-15907,139074,577,19122,3588,1,46428,0.0010000000000000009
949999,-1300,1483,130404,15749,4423,124147,778,19146,2363,0,46429,0.0010000000000000009
950999,3233,13568,125423,-45251,12418,119233,778,19164,3186,0,46430,0.0010000000000000009
952002,392,21840,130650,32681,9152,122896,714,19120,2924,1,46431,0.0010029999999999761
952999,4835,-20949,118915,-18025,-31142,130835,469,19141,1921,1,46432,0.0009970000000000256
953999,1181,-11203,124056,-17079,3397,117710,802,19097,3285,0,46433,0.0010000000000000009
954999,2412,5044,129876,21171,-1907,126227,663,19097,3285,0,46434,0.0010000000000000009
955999,6030,5882,121619,343,10696,113709,906,19123,2715,1,46435,0.0010000000000000009
956999,-16123,18902,127113,-14578,3785,125326,906,19190,3711,1,46436,0.0010000000000000009
958001,9537,-977,120719,-950,-1060,117818,613,19129,2511,0,46437,0.0010020000000000584
958999,-6958,14291,123135,12091,14530,110059,589,19133,2412,0,46438,0.0009979999999999434
959999,7754,1779,129274,-11347,-9445,131389,869,19099,3559,1,46439,0.0010000000000000009
960999,-10239,-10589,124995,-4962,-10138,127675,523,19099,3559,1,46440,0.0010000000000000009
961999,1577,4615,129136,-7563,5678,129850,822,19142,2142,0,46441,0.0010000000000000009
962999,-3924,24749,129871,-4509,19647,117231,822,19173,3367,0,46442,0.0010000000000000009
963999,-5537,11643,126342,2462,46,126488,697,19129,2855,1,46443,0.0010000000000000009
964999,2932,-2370,128710,-12855,-1507,131847,469,19147,1921,1,46444,0.0010000000000000009
965999,3739,-1658,132455,-6541,-5641,134206,795,19096,3256,0,46445,0.0010000000000000009
966999,5439,-5097,132643,12196,-5570,135728,593,19096,2429,0,46446,0.0010000000000000009
967999,-5427,4811,133111,-9909,-1081,133270,869,19130,2429,1,46447,0.0010000000000000009
968999,-6021,2703,129813,-17826,-1600,135160,604,19188,3559,1,46448,0.0010000000000000009
970001,8394,10202,132258,19490,6751,129466,604,19133,2474,0,46449,0.0010020000000000584
971002,295,1890,130851,1262,-2778,130826,594,19130,2433,0,46450,0.0010009999999999186
971999,5260,-8201,131165,-14189,-11986,131676,856,19096,3506,1,46451,0.0009970000000000256
973002,969,-15577,130465,21849,-17877,139436,535,19096,2191,1,46452,0.0010029999999999761
974001,3584,4080,130586,10131,3953,126251,828,19148,2191,0,46453,0.0009990000000000832
974999,4393,11349,126206,-42180,4688,119730,696,19168,3391,0,46454,0.0009979999999999434
975999,3812,25101,133068,40890,20249,117589,696,19122,2851,1,46455,0.0010000000000000009
976999,619,-17431,121887,14114,-26393,134329,538,19150,2203,1,46456,0.0010000000000000009
977999,-2875,-17132,126311,-32881,-12745,122165,796,19094,3260,0,46457,0.0010000000000000009
978999,-1486,-3047,128820,15599,-8669,132256,593,19094,2429,0,46458,0.0010000000000000009
979999,7479,10655,120281,10656,15238,108784,862,19132,2429,1,46459,0.0010000000000000009
980999,-11864,34965,128798,-17092,24513,110261,595,19182,3530,1,46460,0.0010000000000000009
981999,11809,-7421,118913,1015,-13221,131606,595,19139,2437,0,46461,0.0010000000000000009
982999,-5481,6078,121482,17196,9764,108132,634,19129,2597,0,46462,0.0010000000000000009
983999,2877,-3513,128052,-12172,-8154,131303,843,19097,3453,1,46463,0.0010000000000000009
985001,-5492,-2732,126628,-14532,-4655,124598,507,19156,2077,1,46464,0.0010019999999999474
985999,1654,3509,129076,4175,406,131373,778,19156,2077,0,46465,0.0009980000000000544
986999,-4252,17328,126651,-18639,11726,123536,681,19161,3186,0,46466,0.0010000000000000009
987999,-5104,19171,126580,1708,14401,116889,681,19127,2789,1,46467,0.0010000000000000009
988999,2728,-2531,128183,2794,-1107,133503,549,19147,2249,1,46468,0.0010000000000000009
989999,4997,-1778,130261,-8335,-5279,131970,778,19094,3186,0,46469,0.0010000000000000009
991001,-1551,-339,136526,-4017,-3011,137648,664,19141,2720,0,46470,0.0010019999999999474
992001,4211,-965,134054,-7136,-4829,137646,830,19141,2720,1,46471,0.0010000000000000009
993001,-12150,-798,130210,2239,-8316,131923,581,19175,3399,1,46472,0.0010000000000000009
994000,8457,9236,132097,-2622,6350,132104,581,19140,2380,0,46473,0.0009990000000000832
994999,389,-3423,129849,-4305,-119,128018,638,19132,2613,0,46474,0.0009989999999999721
996001,6167,5485,132792,13680,354,129016,838,19094,3432,1,46475,0.0010019999999999474
996999,4590,-9439,130031,-13067,-21327,141613,541,19154,2216,1,46476,0.0009980000000000544
997999,-2719,-4713,130870,29409,2161,123346,774,19154,2216,0,46477,0.0010000000000000009
998999,3184,3611,125247,-27518,-9265,130023,671,19149,3170,0,46478,0.0010000000000000009
999999,9811,12937,129097,40046,25927,111847,671,19130,2748,1,46479,0.0010000000000000009
1000999,931,9296,129893,12370,-20300,132410,598,19153,2449,1,46480,0.0010000000000000009
1001999,3891,-26580,117897,-38126,-13124,121981,754,19098,3088,0,46481,0.0009999999999998899
1002999,-10443,5684,133352,17255,-560,126575,692,19139,2834,0,46482,0.001000000000000112
1003999,12657,-3523,120396,11187,524,121973,835,19139,2834,1,46483,0.0009999999999998899
1004999,-14475,27326,123311,-7459,25565,104225,574,19159,3420,1,46484,0.001000000000000112
1005999,8347,10604,126410,-13351,-5165,129487,574,19145,2351,0,46485,0.0009999999999998899
1006999,-2013,-3788,117661,16572,1630,113238,649,19138,2658,0,46486,0.001000000000000112
1007999,1188,5874,128165,-7437,1637,124512,821,19090,3363,1,46487,0.0009999999999998899
1009001,-5162,-4104,128416,-12685,-7545,130344,637,19152,2609,1,46488,0.0010020000000001694
1010001,-1587,1038,126092,-3242,-136,127764,752,19152,3080,0,46489,0.0009999999999998899
1010999,1364,17738,130338,-8106,16806,123928,669,19152,3080,0,46490,0.0009980000000000544
1011999,-3859,15261,127831,5498,4068,122689,669,19136,2740,1,46491,0.0009999999999998899
1012999,2780,-2920,126688,-5043,-3377,130837,608,19152,2490,1,46492,0.001000000000000112
1014002,433,-2047,132400,-14880,-4680,134927,751,19096,3076,0,46493,0.0010029999999998651
1014999,1274,-614,133972,2853,-3452,136165,750,19140,3072,0,46494,0.0009970000000001367
1015999,-528,4933,132607,6081,1329,132807,810,19140,3318,1,46495,0.0009999999999998899
1016999,-11342,5412,130988,-20226,-1158,131437,563,19156,3318,1,46496,0.001000000000000112
1017999,13112,2301,130753,6459,-3440,136215,638,19145,2306,0,46497,0.0009999999999998899
1018999,-1301,-452,131925,16468,-459,129374,638,19139,2613,0,46498,0.001000000000000112
1020001,4850,-3654,131559,-15929,-8669,130327,821,19103,3363,1,46499,0.0010019999999999474
1020999,3094,-12532,130110,9800,-15572,138687,697,19146,2855,1,46500,0.0009980000000000544
1021999,-2157,4517,130353,21702,1860,127139,732,19146,2998,0,46501,0.0009999999999998899
1022999,9222,5048,123807,-46728,-1893,123148,657,19141,2998,0,46502,0.001000000000000112
1023999,1983,25756,133704,42417,22412,115697,635,19132,2691,1,46503,0.0009999999999998899
1024999,1736,-16153,121276,19137,-24842,134308,635,19158,2601,1,46504,0.001000000000000112
1026001,-769,-18272,122734,-37291,-13648,121238,748,19104,3064,0,46505,0.0010019999999999474
1026999,-3292,1889,131151,16572,-4078,131782,791,19135,3240,0,46506,0.0009980000000000544
1027999,9258,6142,118204,10004,9125,111825,811,19149,3322,1,46507,0.0009999999999998899
1028999,-15191,34482,128973,-17063,26165,106863,546,19149,3322,1,46508,0.001000000000000112
1029999,14555,-6456,121257,-950,-13123,134511,668,19145,2236,0,46509,0.0009999999999998899
1030999,-4721,2947,120027,18843,6575,108516,668,19141,2736,0,46510,0.001000000000000112
1031999,-1103,-644,128964,-10231,-4388,128798,807,19095,3305,1,46511,0.0009999999999998899
1033001,-4662,829,127297,-26562,-1385,123272,730,19160,2990,1,46512,0.0010020000000001694
1033999,-1379,3694,128477,15902,820,130663,722,19141,2957,0,46513,0.0009979999999998324
1034999,-2820,16524,127055,-16808,10235,124943,639,19141,2957,0,46514,0.001000000000000112
1035999,-5396,17086,126129,-10950,13267,115040,609,19135,2617,1,46515,0.0009999999999998899
1037003,6521,3082,130562,12201,4345,132634,609,19162,2494,1,46516,0.0010040000000000049
1038012,6400,-5739,131260,-7310,-9952,140190,726,19103,2973,0,46517,0.0010090000000000376
1038999,-2975,-9599,135122,-7759,-12131,135089,789,19148,3232,0,46518,0.0009870000000000712
1039999,-1473,5791,133689,821,2274,135200,791,19156,3240,1,46519,0.0009999999999998899
1040999,-9529,3600,129290,-15288,-4014,130408,540,19156,3240,1,46520,0.001000000000000112
1042001,12398,13717,134280,3898,2915,131268,662,19155,2212,0,46521,0.0010019999999999474
1042999,-619,-4554,128286,6822,-7865,129450,662,19144,2711,0,46522,0.0009980000000000544
1043999,6710,-3058,131135,-292,-8009,131372,795,19106,3256,1,46523,0.0009999999999998899
1044999,1100,-11718,132072,-1232,-16214,140252,732,19163,2998,1,46524,0.001000000000000112
1045999,1734,-836,129393,21107,262,126491,720,19133,2949,0,46525,0.0009999999999998899
1046999,4626,9510,126706,-27810,5528,121486,633,19133,2949,0,46526,0.001000000000000112
1047999,2491,20221,132445,45050,12795,119760,690,19130,2593,1,46527,0.0009999999999998899
1048999,2505,-14052,121839,-2112,-29526,132795,690,19169,2826,1,46528,0.001000000000000112
1050001,-1421,-16298,124540,-27356,-2770,120719,708,19115,2900,0,46529,0.0010019999999999474
1050999,-1672,2587,129351,17639,-1788,126810,783,19148,3207,0,46530,0.0009980000000000544
1051999,7135,10932,121044,7635,18692,109718,790,19136,3236,1,46531,0.0009999999999998899
1053001,-14438,24901,127168,-15183,7981,119873,526,19136,3236,1,46532,0.0010019999999999474
1053999,11848,-7191,120346,-294,-10822,125282,734,19153,2154,0,46533,0.0009980000000000544
1054999,-6252,7725,121552,13360,12852,109912,734,19155,3006,0,46534,0.001000000000000112
1055999,5828,3919,129507,-14412,-3934,128496,794,19099,3252,1,46535,0.0009999999999998899
1057000,-8434,-6040,126137,-6296,-7861,128135,780,19168,3195,1,46536,0.0010010000000000296
1057999,-428,1293,127513,-4689,953,131759,701,19128,2871,0,46537,0.0009989999999999721
1058999,-1746,22011,128590,-9207,21742,115175,624,19128,2556,0,46538,0.001000000000000112
1059999,-3397,16715,127479,5918,3127,125163,713,19140,2556,1,46539,0.0009999999999998899
1060999,4528,-7450,126970,-5450,-5841,133618,713,19170,2920,1,46540,0.001000000000000112
1061999,2425,-1440,131955,-9823,-3742,132079,713,19121,2920,0,46541,0.0009999999999998899
1062999,1472,-1621,133913,3152,-5308,138275,879,19152,3600,0,46542,0.001000000000000112
1063999,-3962,5319,133483,-558,3362,129600,775,19138,3174,1,46543,0.0009999999999998899
1064999,-8347,6066,131394,-21077,-3017,137350,507,19138,2077,1,46544,0.001000000000000112
1065999,12112,-1091,130498,14174,-5649,134983,732,19155,2077,0,46545,0.0009999999999998899
1066999,-4106,3237,131825,13634,3677,123866,784,19154,2998,0,46546,0.001000000000000112
1067999,8499,-5596,131126,-20109,-11150,135059,784,19107,3211,1,46547,0.0009999999999998899
1068999,3878,-12311,130473,14893,-16895,139693,831,19161,3404,1,46548,0.001000000000000112
1069999,-1202,6369,130194,24903,6436,123124,717,19133,2937,0,46549,0.0009999999999998899
1071000,2696,11781,124330,-50931,1948,120669,630,19133,2580,0,46550,0.0010010000000000296
1072004,5311,17361,132865,35225,13611,121204,815,19142,2580,1,46551,0.0010040000000000049
1073003,1165,-23319,120876,34571,-30508,139255,704,19176,3338,1,46552,0.0009989999999999721
1074001,84,-13604,122528,-43660,-6669,115655,704,19118,2883,0,46553,0.0009980000000000544
1075001,-2995,12741,133387,7756,5691,125880,891,19152,3649,0,46554,0.0009999999999998899
1075999,11871,-1769,117329,19519,-1249,120442,776,19122,3178,1,46555,0.0009980000000000544
1076999,-13174,29993,126980,-13956,23594,106400,467,19156,1913,1,46556,0.001000000000000112
1078000,9377,-1237,122524,-7704,-7339,131018,766,19156,1913,0,46557,0.0010009999999998076
1078999,-4830,2110,119821,13438,5194,108543,770,19165,3137,0,46558,0.0009990000000001942
1079999,1173,-971,130121,-4461,-4999,131220,770,19105,3154,1,46559,0.0009999999999998899
1080999,-7339,-1093,127028,-16381,-2921,125792,918,19174,3760,1,46560,0.001000000000000112
1081999,-3089,7939,127755,-1419,4996,124418,675,19118,2765,0,46561,0.0009999999999998899
1082999,379,16860,128125,-18145,10265,127279,567,19145,2322,0,46562,0.001000000000000112
1083999,-1596,16387,127307,9773,13024,124069,805,19145,2322,1,46563,0.0009999999999998899
1084999,2743,-2192,128997,1552,-1183,133877,688,19183,3297,1,46564,0.001000000000000112
1085999,3209,-7372,132383,-18292,-11223,140801,688,19120,2818,0,46565,0.0009999999999998899
1087000,-571,-8503,133896,2627,-11067,134168,1013,19161,4149,0,46566,0.0010010000000000296
1087999,-3033,12825,133221,3594,9404,129796,755,19119,3092,1,46567,0.0009989999999999721
1089002,-10236,6265,129473,-25527,2339,132712,442,19156,1810,1,46568,0.0010030000000000872
1089999,14887,7510,132168,6147,937,131151,741,19156,1810,0,46569,0.0009969999999999146
1090999,1542,-4107,130097,13837,-8387,132227,764,19160,3035,0,46570,0.001000000000000112
1091999,6683,-8230,131119,-4407,-16100,132912,764,19110,3129,1,46571,0.0009999999999998899
1092999,-3527,-9525,132976,27430,-7470,135188,957,19177,3920,1,46572,0.001000000000000112
1093999,2808,1106,128650,-10465,-4745,133228,673,19118,2756,0,46573,0.0009999999999998899
1094999,5491,10450,125596,-19435,16021,114137,554,19139,2269,0,46574,0.001000000000000112
1096000,633,27924,132388,42944,9632,120526,788,19139,2269,1,46575,0.0010009999999998076
1096999,4676,-21618,119502,-4852,-31995,133200,670,19171,3227,1,46576,0.0009990000000001942
1097999,-1958,-15801,127230,-21593,-8443,124705,670,19118,2744,0,46577,0.0009999999999998899
1098999,935,-5632,127209,19628,-4459,129343,1017,19164,4165,0,46578,0.001000000000000112
1100001,275,22441,122314,183,31421,99973,764,19106,3129,1,46579,0.0010019999999999474
1100999,-12912,26618,128555,-19379,3467,126783,478,19161,1958,1,46580,0.0009980000000000544
1101999,11545,-13276,117632,11611,-12963,123988,725,19161,1958,0,46581,0.0009999999999998899
1102999,-5516,8696,122623,7529,13146,109082,750,19156,2969,0,46582,0.0009999999999998899
1103999,6206,3782,129969,-17340,-2757,127295,750,19119,3072,1,46583,0.001000000000000112
1104999,-7393,-6783,125980,-2686,-10639,129756,1033,19185,4231,1,46584,0.0009999999999998899
1105999,1703,-722,127215,-415,972,133694,666,19121,2728,0,46585,0.001000000000000112
1106999,-6004,27394,128594,-15234,25912,110775,572,19145,2343,0,46586,0.0009999999999998899
1108001,-3707,17045,126295,259,4541,124179,782,19145,3203,1,46587,0.0010020000000001694
1108999,6355,-4935,128946,1317,-5232,134845,671,19176,3203,1,46588,0.0009979999999998324
1109999,3728,-7281,131703,-4091,-9827,135155,978,19121,2748,0,46589,0.001000000000000112
1110999,-1010,-3860,133803,-4589,-4793,136339,978,19163,4006,0,46590,0.0009999999999998899
1112001,-4600,5940,134024,-5755,618,133890,746,19114,3055,1,46591,0.0010020000000001694
1112999,-5399,5400,131025,-9254,1509,133743,492,19165,2015,1,46592,0.0009979999999998324
1114033,8296,9573,131354,13390,3314,129981,708,19156,2900,0,46593,0.0010340000000002014
1114999,1494,-4962,128942,489,-6675,129572,748,19156,2900,0,46594,0.0009659999999998004
1116002,7815,-6683,131732,-3294,-8213,132126,1011,19114,3064,1,46595,0.0010030000000000872
1117001,3941,-10266,131209,12477,-16336,142528,1011,19184,4141,1,46596,0.0009989999999999721
1117999,-2508,2189,129839,9733,4809,122265,680,19117,2785,0,46597,0.0009980000000000544
1118999,2945,15868,127118,-40235,5844,120952,592,19151,2425,0,46598,0.0009999999999998899
1120001,5598,8601,128357,40185,4868,126270,779,19161,3191,1,46599,0.0010020000000001694
1120999,904,-14749,122345,21232,-17988,128085,661,19161,3191,1,46600,0.0009979999999998324
1121999,3008,-13433,123905,-37012,-11077,122728,945,19121,2707,0,46601,0.001000000000000112
1122999,-1293,9846,131530,13478,6246,122019,945,19155,3870,0,46602,0.0009999999999998899
1124002,9224,4410,120890,13001,2385,120912,754,19114,3088,1,46603,0.0010030000000000872
1125001,-15106,18966,124749,-16633,13316,114657,585,19165,2396,1,46604,0.0009989999999999721
1125999,9074,3702,122970,-4592,-965,123277,687,19145,2814,0,46605,0.0009980000000000544
1126999,-5016,5090,121427,11327,7191,111588,723,19145,2814,0,46606,0.0009999999999998899
1127999,6801,-256,128886,-1500,-4309,126960,985,19116,2961,1,46607,0.001000000000000112
1129001,-9727,-6386,126505,-13409,-8809,129584,985,19172,4034,1,46608,0.0010019999999999474
1130001,-1211,7193,128151,-8635,4447,125278,647,19127,2650,0,46609,0.001000000000000112
1130999,-1163,22083,129255,-12956,15351,119914,634,19147,2597,0,46610,0.0009979999999998324
1132001,-4025,13387,127322,11398,10460,125817,751,19159,3076,1,46611,0.0010020000000001694
1132999,3734,-4663,127547,-8603,-4081,131986,629,19159,3076,1,46612,0.0009979999999998324
1133999,3566,-4645,132895,-9655,-8103,138611,920,19131,2576,0,46613,0.001000000000000112
1135001,2462,-5886,133400,5982,-1652,133602,920,19157,3768,0,46614,0.0010019999999999474
1136001,-5680,8287,133238,-2744,2288,132830,739,19124,3027,1,46615,0.001000000000000112
1137000,-9402,6613,130349,-24208,2487,133594,597,19164,2445,1,46616,0.0009989999999999721
1137999,12377,9203,131853,8344,4689,128312,674,19144,2761,0,46617,0.0009989999999999721
1138999,1263,-2006,130624,1845,-9496,133299,714,19144,2761,0,46618,0.0009999999999998899
1140002,7679,-10404,131496,-10499,-16494,133663,968,19122,2924,1,46619,0.0010030000000000872
1141000,-1575,-15372,130241,23012,-14192,137791,968,19166,3965,1,46620,0.0009980000000000544
1141999,2307,5357,130662,-414,5900,126757,643,19128,2634,0,46621,0.0009989999999999721
1142999,4296,15259,125875,-33536,10755,117330,656,19146,2687,0,46622,0.0009999999999998899
1143999,5725,24968,132024,42393,16758,118302,752,19157,3080,1,46623,0.001000000000000112
1144999,2521,-14450,123731,4931,-34742,136459,614,19157,3080,1,46624,0.0009999999999998899
1145999,858,-24417,124793,-26146,-13495,123284,909,19129,2515,0,46625,0.001000000000000112
1146999,-3447,40,131080,18244,-4345,129832,909,19138,3723,0,46626,0.0009999999999998899
1147999,4557,10912,120464,2519,19904,107368,743,19118,3043,1,46627,0.001000000000000112
1148999,-13963,35105,127166,-15995,20245,113714,651,19170,2666,1,46628,0.0009999999999998899
1149999,10015,-3823,120435,3044,-11776,128591,664,19149,2720,0,46629,0.001000000000000112
1151000,-3586,2508,119659,16005,7764,109489,696,19149,2851,0,46630,0.0010010000000000296
1151999,5657,-50,129057,-14311,-6737,128863,952,19125,2851,1,46631,0.0009989999999999721
1152999,-3688,-8228,126308,-10153,-8731,129050,640,19147,3899,1,46632,0.0009999999999998899
1153999,2391,3608,128110,6033,2584,131572,640,19134,2621,0,46633,0.001000000000000112
1154999,-8356,18825,127596,-21039,17659,118790,666,19148,2728,0,46634,0.0009999999999998899
1156002,-4226,20692,127085,-3584,11752,119311,731,19157,2994,1,46635,0.0010030000000000872
1157003,1239,-238,128094,11359,-2576,133885,599,19157,2453,1,46636,0.0010010000000000296
1157999,6504,-5617,130525,-11727,-9121,133402,879,19134,2453,0,46637,0.0009959999999999969
1159002,722,-5769,134456,-2536,-6635,137188,729,19131,3600,0,46638,0.0010029999999998651
1159999,815,9513,136207,-1399,3824,133910,729,19126,2986,1,46639,0.0009970000000001367
1161000,-8430,-767,130543,-10063,-5665,135353,641,19169,2625,1,46640,0.0010010000000000296
1161999,3770,8925,133797,8568,4091,131194,656,19144,2687,0,46641,0.0009989999999999721
1163002,-1459,-6094,128414,-1971,-7781,132200,684,19117,2801,0,46642,0.0010029999999998651
1164000,5720,-3262,130700,196,-3590,127412,921,19117,2801,1,46643,0.0009980000000000544
1165001,7819,-2104,132665,5721,-9209,138145,642,19154,3772,1,46644,0.0010010000000000296
1166001,743,-1559,128705,19953,538,124220,642,19143,2629,0,46645,0.0009999999999998899
1166999,3030,12544,127510,-36670,3165,122434,678,19160,2777,0,46646,0.0009980000000000544
1168001,7652,5183,128309,23449,2522,126939,742,19139,3039,1,46647,0.0010019999999999474
1169000,-3582,-6434,124633,33639,-9002,125587,594,19129,2433,1,46648,0.0009990000000001942
1169999,3990,-15041,123152,-39875,-15167,124608,869,19129,2433,0,46649,0.0009989999999999721
1170999,-5348,5451,130877,6021,2252,123014,723,19137,3559,0,46650,0.0009999999999998899
1171999,12685,4668,121049,17998,2126,120946,723,19126,2961,1,46651,0.001000000000000112
1172999,-13611,20154,123874,-12846,14759,112671,723,19171,2961,1,46652,0.0009999999999998899
1173999,8019,6646,124051,-7687,2848,122097,642,19135,2629,0,46653,0.001000000000000112
1174999,-4849,2254,120828,7847,3795,115696,654,19123,2679,0,46654,0.0009999999999998899
1176004,3567,687,127552,2321,-2703,128833,912,19123,2679,1,46655,0.0010050000000001447
1176999,-6500,-4490,127397,-15013,-7210,128468,608,19145,3735,1,46656,0.0009949999999998571
1178001,-2240,3441,126862,-7109,177,128046,608,19146,2490,0,46657,0.0010019999999999474
1178999,2208,21082,129916,-14492,14453,119586,710,19156,2908,0,46658,0.0009980000000000544
1180000,-4459,14982,128346,10138,12925,126932,712,19152,2916,1,46659,0.0010010000000000296
1180999,2672,-5256,126970,-6306,-4948,132175,554,19135,2269,1,46660,0.0009989999999999721
1181999,2135,-3892,132601,-10277,-6196,136082,837,19135,2269,0,46661,0.001000000000000112
1183002,143,-2643,134277,264,-3046,135941,702,19118,3428,0,46662,0.0010029999999998651
1183999,-1559,5757,131637,821,2583,131969,702,19126,2875,1,46663,0.0009970000000001367
1184999,-10882,7326,131249,-19803,1731,132763,734,19177,3006,1,46664,0.0009999999999998899
1186001,14039,5771,130718,13101,1363,130567,627,19134,2568,0,46665,0.0010019999999999474
1186999,-684,927,131374,7767,-4970,131122,637,19128,2609,0,46666,0.0009980000000000544
1188002,6542,-9043,131901,-15375,-15017,134592,898,19128,2609,1,46667,0.0010030000000000872
1189001,2172,-15164,130472,20962,-16691,139142,605,19138,3678,1,46668,0.0009989999999999721
1190001,-1036,1783,130475,9923,2689,127737,605,19141,2478,0,46669,0.0009999999999998899
1190999,7375,12526,125120,-40333,8403,116733,718,19151,2941,0,46670,0.0009980000000000544
1192001,5189,26809,131972,43882,20862,116784,709,19126,2904,1,46671,0.0010019999999999474
1192999,1055,-12389,123090,10165,-31751,136345,516,19132,2113,1,46672,0.0009980000000000544
1193999,1392,-23261,122243,-32012,-10646,120305,823,19132,2113,0,46673,0.001000000000000112
1194999,-5781,1513,132245,17804,-5471,132020,700,19120,3371,0,46674,0.0009999999999998899
1195999,8485,3699,119049,6707,12768,110441,700,19127,2867,1,46675,0.001000000000000112
1196999,-14768,33721,127901,-15558,22098,111891,827,19182,3387,1,46676,0.0009999999999998899
1197999,11693,-1264,122383,-1466,-9520,129241,628,19122,2572,0,46677,0.001000000000000112
1198999,-3360,5483,119592,20789,9049,108298,583,19121,2388,0,46678,0.0009999999999998899
1199999,1397,-2947,128085,-13192,-9714,131161,880,19121,3604,1,46679,0.001000000000000112
1201002,-5049,-5170,127059,-24059,-4246,124184,568,19113,3604,1,46680,0.0010029999999998651
1202001,852,5657,128870,15620,1920,133249,785,19144,2326,0,46681,0.0009989999999999721
1202999,-5184,14634,127313,-12090,13614,120779,785,19169,3215,0,46682,0.0009980000000000544
1203999,-5986,18165,125195,-15104,10303,117177,703,19128,2879,1,46683,0.001000000000000112
1204999,4035,5216,129604,10887,6128,131154,495,19142,2027,1,46684,0.0009999999999998899
1205999,9503,-1144,131846,-4621,-8912,134503,812,19142,3326,0,46685,0.001000000000000112
1206999,-1454,-13462,134082,-5865,-14434,141189,643,19097,3326,0,46686,0.0009999999999998899
1207999,-1256,2287,134963,383,-2158,135046,842,19134,2634,1,46687,0.001000000000000112
1208999,-10575,-42,129339,-15458,-3454,133314,842,19185,3449,1,46688,0.0009999999999998899
1210001,9191,16804,134667,8185,12053,129613,608,19130,2490,0,46689,0.0010019999999999474
1211001,-587,12,128386,3655,-1426,129725,567,19130,2322,0,46690,0.001000000000000112
1211999,7413,-3951,129882,-3082,-6742,127290,872,19130,3571,1,46691,0.0009980000000000544
1212999,3501,-11380,131494,8631,-15458,139107,566,19112,3571,1,46692,0.0009999999999998899
1213999,1791,-3263,129443,16352,-4721,129998,821,19142,2318,0,46693,0.001000000000000112
1214999,5052,6715,126583,-38597,-571,124733,821,19166,3363,0,46694,0.0009999999999998899
1215999,2034,24082,133401,26873,21428,116407,704,19115,2883,1,46695,0.001000000000000112
1216999,-649,-10057,122048,24867,-14478,130372,494,19143,2023,1,46696,0.0009999999999998899
1217999,87,-18697,123191,-31183,-18820,124690,806,19097,3301,0,46697,0.001000000000000112
1218999,-2165,-1391,129086,4347,-4962,127528,629,19097,3301,0,46698,0.0009999999999998899
1219999,10488,12078,121574,16401,11522,112612,888,19134,2576,1,46699,0.001000000000000112
1220999,-13545,28268,128125,-12874,21297,111405,888,19190,3637,1,46700,0.0009999999999998899
1222001,9723,-10173,120091,-7907,-13439,133316,605,19133,2478,0,46701,0.0010019999999999474
1222999,-8280,7641,120735,9288,9325,108954,600,19130,2457,0,46702,0.0009980000000000544
1223999,6700,6643,129281,-1287,3369,129654,850,19087,3481,1,46703,0.0009999999999998899
1224999,-6116,-5416,126110,-10956,-7882,127004,488,19087,3481,1,46704,0.001000000000000112
1225999,884,-1464,126684,-7875,-5625,133487,805,19151,1999,0,46705,0.0009999999999998899
1227000,-104,20481,129568,-14252,13760,114178,805,19171,3297,0,46706,0.0010010000000000296
1227999,-4814,18091,128461,8102,17035,127766,688,19129,2818,1,46707,0.0009989999999999721
1228999,2196,-7328,126341,-6314,-6691,133964,480,19150,1966,1,46708,0.001000000000000112
1229999,2810,195,132360,-10417,-1151,131510,777,19084,3182,0,46709,0.0009999999999998899
1231000,2680,-1227,134123,-898,-4462,137588,595,19084,3182,0,46710,0.0010010000000000296
1232000,-2666,2012,132109,5365,296,131039,855,19136,2437,1,46711,0.001000000000000112
1232999,-10193,5265,131839,-21190,-2332,137608,855,19189,3502,1,46712,0.0009989999999999721
1233999,11951,1988,131667,16344,128,131852,588,19135,2408,0,46713,0.0009999999999998899
1234999,-4127,5779,131895,10240,1371,126158,608,19135,2490,0,46714,0.001000000000000112
1235999,7872,-7166,130804,-21348,-15527,135944,848,19091,3473,1,46715,0.0009999999999998899
1236999,2129,-15535,130366,22915,-15550,138450,485,19091,3473,1,46716,0.001000000000000112
1237999,2590,2770,130287,17885,2603,127317,795,19152,1986,0,46717,0.0009999999999998899
1238999,4032,9917,124578,-46365,6177,116997,690,19165,3256,0,46718,0.001000000000000112
1240002,4955,26797,134917,39046,20462,118860,690,19128,2826,1,46719,0.0010030000000000872
1241001,-938,-17618,121939,19683,-35482,140323,551,19154,2257,1,46720,0.0009989999999999721
1241999,1438,-19509,122290,-36335,-3442,114731,766,19091,3137,0,46721,0.0009979999999998324
1242999,-5294,6582,133290,13335,-5000,132347,633,19091,2593,0,46722,0.001000000000000112
1243999,10481,108,117584,14091,9182,111497,859,19145,2593,1,46723,0.0009999999999998899
1245001,-12446,32208,127725,-15617,21604,111254,588,19171,3518,1,46724,0.0010020000000001694
1246001,8720,-3181,122509,-5244,-10428,130709,588,19142,2408,0,46725,0.0009999999999998899
1246999,-4452,7796,119670,19398,12010,106087,654,19136,2679,0,46726,0.0009980000000000544
1247999,-318,-3639,128400,-13998,-11430,134166,827,19091,3387,1,46727,0.0009999999999998899
1249000,-3723,-2991,126562,-19677,-722,121514,560,19091,2294,1,46728,0.0010010000000000296
1249999,340,6687,128040,15144,1045,131882,774,19149,2294,0,46729,0.0009989999999999721
1250999,-1462,10013,126581,-17756,9954,122789,679,19156,3170,0,46730,0.001000000000000112
1251999,-2816,19716,127186,-7719,12129,116897,679,19131,2781,1,46731,0.0009999999999998899
1253000,1435,4024,128952,13360,5259,132099,559,19159,2289,1,46732,0.0010010000000000296
1253999,6832,-1089,131934,-14998,-8734,134238,748,19090,3064,0,46733,0.0009989999999999721
1254999,-3667,-14108,134167,-3628,-15094,142346,644,19090,2638,0,46734,0.001000000000000112
1255999,-895,7241,134451,5980,3357,131225,816,19139,2638,1,46735,0.0009999999999998899
1257001,-10077,1203,129596,-19671,-4175,132945,578,19169,3342,1,46736,0.0010020000000001694
1257999,10732,13557,134966,8279,10015,130305,578,19140,2367,0,46737,0.0009979999999998324
1258999,-530,347,128829,7696,-1140,130724,661,19142,2707,0,46738,0.001000000000000112
1259999,6214,-4938,130214,-6022,-8145,128850,827,19094,3387,1,46739,0.0009999999999998899
1260999,816,-9489,132316,6909,-13126,136931,605,19150,2478,1,46740,0.001000000000000112
1261999,2251,-4849,128394,14413,-6966,132238,765,19150,2478,0,46741,0.0009999999999998899
1262999,7145,7508,127239,-36482,1308,122961,679,19149,3133,0,46742,0.001000000000000112
1263999,2608,24170,133487,28074,21196,116828,679,19130,2781,1,46743,0.0009999999999998899
1264999,780,-11232,121008,21819,-14355,130186,634,19154,2597,1,46744,0.001000000000000112
1265999,-718,-13665,124837,-29606,-14478,122401,757,19098,3100,0,46745,0.0009999999999998899
1267001,-1302,-3565,128357,4589,-7062,130575,744,19135,3047,0,46746,0.0010020000000001694
1267999,7908,12687,121126,16445,11585,110930,825,19135,3047,1,46747,0.0009979999999998324
1268999,-12495,25369,128284,-15841,18573,113117,567,19152,3379,1,46748,0.001000000000000112
1269999,11413,-10913,119897,-5303,-13243,132818,567,19143,2322,0,46749,0.0009999999999998899
1270999,-7343,8913,121518,11372,9275,113019,648,19137,2654,0,46750,0.001000000000000112
1271999,6434,6020,128852,-3108,3077,127569,814,19098,3334,1,46751,0.0009999999999998899
1273018,-7289,-3568,125823,-13681,-5685,127133,680,19160,2785,1,46752,0.0010190000000001032
1274007,1046,-1341,126775,-3906,257,134031,738,19160,2785,0,46753,0.0009889999999999066
1274999,-177,19422,128926,-14346,21275,113210,662,19152,3023,0,46754,0.000992000000000104
1275999,-4206,15866,127889,4582,-11,127862,662,19139,2711,1,46755,0.0009999999999998899
1276999,2225,-4660,127288,-4390,-4976,133082,582,19152,2384,1,46756,0.001000000000000112
1278001,3410,-114,132135,-9491,-1324,132370,729,19106,2986,0,46757,0.0010019999999999474
1278999,633,-1053,134747,-3365,-5474,138231,792,19151,3244,0,46758,0.0009980000000000544
1279999,-2302,2266,131858,-2434,801,130533,800,19151,3244,1,46759,0.0009999999999998899
1281000,-8592,5309,131862,-18145,-423,135833,557,19151,3277,1,46760,0.0010010000000000296
1281999,12643,1363,132060,14554,-2427,133917,557,19143,2281,0,46761,0.0009989999999999721
1282999,-2056,2022,130898,11325,-1176,127699,652,19139,2670,0,46762,0.001000000000000112
1283999,4732,-5497,131731,-20054,-11848,134001,804,19099,3293,1,46763,0.0009999999999998899
1285001,2800,-14362,129040,17720,-12222,135804,696,19160,2851,1,46764,0.0010019999999999474
1285999,1062,8171,130812,19894,6621,127559,723,19160,2961,0,46765,0.0009980000000000544
1286999,5663,4250,123527,-44410,-747,120362,661,19150,2961,0,46766,0.001000000000000112
1287999,5901,24739,134240,36289,20979,115728,660,19136,2707,1,46767,0.0009999999999998899
1288999,1398,-16300,123197,21232,-33128,140527,660,19161,2703,1,46768,0.001000000000000112
1290000,1641,-20358,122157,-34317,-5878,116114,725,19105,2969,0,46769,0.0010010000000000296
1291001,-5745,5606,132859,6933,-4693,133023,768,19143,3146,0,46770,0.0010009999999998076
1291999,9959,4629,118300,15607,13785,109323,795,19143,3256,1,46771,0.0009980000000000544
1292999,-12295,36173,127377,-14836,23085,108507,541,19145,3256,1,46772,0.001000000000000112
1293999,10886,-7351,121805,-4251,-16441,134142,702,19150,2216,0,46773,0.0009999999999998899
1294999,-4430,3022,119547,21474,8466,107639,702,19149,2875,0,46774,0.001000000000000112
1295999,-398,-2524,128426,-13683,-8828,132213,803,19105,3289,1,46775,0.0009999999999998899
1296999,-4029,2379,128045,-21886,2736,120748,738,19158,3023,1,46776,0.001000000000000112
1298008,-746,4424,127241,16542,-1562,134010,717,19158,2937,0,46777,0.0010090000000000376
1299001,-2253,11340,126493,-19051,11069,121504,637,19145,2937,0,46778,0.0009929999999997996
1299999,-2866,20038,127793,-9081,11390,116758,657,19135,2609,1,46779,0.0009980000000000544
1300999,2451,246,128622,16539,1837,133499,657,19165,2691,1,46780,0.001000000000000112
1302001,7391,-2747,131613,-14679,-9455,134747,714,19112,2924,0,46781,0.0010019999999999474
1302999,-5054,-11862,134021,-7565,-11764,140774,828,19144,3391,0,46782,0.0009980000000000544
1303999,-1264,10636,134246,4077,6606,130039,781,19148,3199,1,46783,0.0009999999999998899
1304999,-8356,852,128402,-18748,-4795,133018,529,19148,3199,1,46784,0.001000000000000112
1305999,11515,15160,135331,9505,11497,128748,699,19151,2167,0,46785,0.0009999999999998899
1307000,1124,-5511,128103,5899,-7466,134217,699,19147,2863,0,46786,0.0010010000000000296
1307999,6431,-6672,131511,-1497,-8323,128905,790,19106,3236,1,46787,0.0009989999999999721
1308999,115,-7147,133129,1195,-11631,138428,772,19159,3162,1,46788,0.001000000000000112
1309999,-511,-4362,127948,16752,-4335,129713,719,19135,2945,0,46789,0.0009999999999998899
1310999,5991,14409,128161,-36647,7063,120618,639,19135,2945,0,46790,0.001000000000000112
1311999,7880,16260,131141,21770,14161,120002,782,19134,2617,1,46791,0.0009999999999998899
1312999,-383,-7461,122871,33596,-10060,126860,782,19172,3203,1,46792,0.001000000000000112
1314000,2526,-19717,124170,-34067,-21155,126476,717,19114,2937,0,46793,0.0010009999999998076
1314999,-6147,1464,130352,1450,-1311,126240,838,19142,3432,0,46794,0.0009990000000001942
1316001,9764,9876,121098,16447,6904,117450,779,19126,3191,1,46795,0.0010019999999999474
1316999,-13955,25762,126115,-13881,20274,121328,491,19126,3191,1,46796,0.0009980000000000544
1318002,10502,-4243,121632,-8379,-5992,121783,777,19153,2011,0,46797,0.0010029999999998651
1318999,-3708,3252,120028,10311,2606,113566,777,19157,3182,0,46798,0.0009970000000001367
1319999,6516,3652,129015,3366,1030,127965,781,19104,3199,1,46799,0.0009999999999998899
1320999,-5951,-4183,126270,-17041,-6621,128070,863,19169,3535,1,46800,0.001000000000000112
1321999,-2005,1327,126598,-4773,2375,131843,684,19129,2801,0,46801,0.0009999999999998899
1322999,397,19791,128719,-14863,22118,114583,595,19129,2801,0,46802,0.001000000000000112
1324000,-4966,18480,128345,2842,1436,126154,767,19139,2437,1,46803,0.0010009999999998076
1325001,3206,-7010,126127,-2558,-7571,133295,767,19183,3141,1,46804,0.0010010000000000296
1325999,5281,-2362,132861,-8115,-4296,133382,690,19111,2826,0,46805,0.0009980000000000544
1326999,-1313,-2851,134928,4437,-6066,139107,856,19152,3506,0,46806,0.001000000000000112
1328002,-2136,5599,132983,-3431,4956,129616,770,19118,3154,1,46807,0.0010029999999998651
1329000,-12440,8028,132740,-17216,-562,136556,469,19118,3154,1,46808,0.0009980000000000544
1329999,13731,-794,130594,13382,-4747,132740,751,19158,1921,0,46809,0.0009989999999999721
1330999,-3941,3083,130516,13355,2093,125419,751,19162,3076,0,46810,0.001000000000000112
1331999,11406,-5426,131400,-19182,-13810,135628,767,19108,3141,1,46811,0.0009999999999998899
1332999,1393,-12766,131122,15655,-14406,138685,899,19179,3682,1,46812,0.001000000000000112
1333999,974,2774,129754,23043,6641,124715,687,19128,2814,0,46813,0.0009999999999998899
1335001,-672,12791,124863,-47783,5311,118719,592,19128,2425,0,46814,0.0010019999999999474
1336001,7745,15101,131566,30218,11842,121627,817,19138,2425,1,46815,0.001000000000000112
1336999,1418,-13357,123538,36341,-27267,136746,674,19184,3346,1,46816,0.0009980000000000544
1337999,4160,-20416,119892,-41851,-5742,113912,674,19118,2761,0,46817,0.0009999999999998899
1338999,-6530,14691,135022,5395,4387,126665,972,19154,3981,0,46818,0.001000000000000112
1340001,9978,-3540,117484,18936,-1772,121223,776,19110,3178,1,46819,0.0010019999999999474
1340999,-11480,27138,124920,-14706,24622,106336,448,19110,1835,1,46820,0.0009979999999998324
1341999,4509,6943,124904,-7399,-3682,128406,746,19159,1835,0,46821,0.001000000000000112
1342999,-1253,-484,118105,13499,2686,110477,758,19158,3055,0,46822,0.0009999999999998899
1343999,2582,-2908,128635,-3040,-8138,131682,758,19106,3105,1,46823,0.001000000000000112
