t_us,ax,ay,az,ax1,ay1,az1,shunt_raw,bus_raw,curr_raw,pg_rpm,seq,dt
0,3786,10394,128321,3716,17324,118642,113,19239,463,0,33754,
1002,6529,27164,128347,6746,20410,117398,93,19238,381,0,33755,0.0010019999999999999
2000,8414,-15681,126626,-19819,-17871,135454,75,19235,307,0,33756,0.0009980000000000002
3000,1723,-7159,125177,-638,-7524,126469,136,19235,557,1,33757,0.001
4000,6506,-4505,131138,304,-3287,136739,81,19237,557,1,33758,0.001
5001,626,14526,129824,-11762,14876,115171,80,19235,332,1,33759,0.0010009999999999993
6000,2517,-609,128360,-8552,-4656,135272,80,19229,328,0,33760,0.0009990000000000008
7002,-1805,7245,124491,-11940,7555,119427,107,19233,438,0,33761,0.0010019999999999994
8000,11409,11811,127446,-4477,9007,119793,79,19240,324,0,33762,0.0009980000000000006
9000,10508,-3210,124015,10827,-3536,129974,89,19229,365,1,33763,0.0009999999999999992
10000,5452,1289,127855,-4729,200,121941,86,19229,365,1,33764,0.0010000000000000009
11000,7434,-8317,125577,-10988,-8661,134620,88,19238,352,1,33765,0.0009999999999999992
12000,4469,8261,128348,10074,7714,121399,88,19231,360,1,33766,0.0010000000000000009
13003,9799,-4380,124441,-3983,-5768,132866,106,19224,434,0,33767,0.0010029999999999987
14000,4762,11147,125187,-8479,10958,114307,95,19238,389,0,33768,0.0009969999999999996
15000,18449,2875,123874,3245,1567,127584,73,19236,299,0,33769,0.0010000000000000009
16002,12406,-4640,124095,15209,-5562,127615,101,19236,299,1,33770,0.0010019999999999994
17000,14146,-3988,122743,1094,-5904,125885,88,19230,414,1,33771,0.0009979999999999989
18000,9084,-2544,127021,3590,-2976,127955,88,19233,360,1,33772,0.0010000000000000009
19000,12006,10148,126997,6470,9060,121444,84,19231,344,0,33773,0.0010000000000000009
20000,14085,-1821,128122,-2669,-389,131764,107,19235,438,0,33774,0.0010000000000000009
21000,10608,5869,125089,11208,4263,117982,82,19238,336,0,33775,0.0009999999999999974
22000,17078,-2525,127499,3444,-682,127174,80,19238,336,0,33776,0.0010000000000000009
23000,12385,-6610,126017,6860,-8200,128174,75,19228,328,1,33777,0.0010000000000000009
24000,15108,-6683,128814,9074,-5904,131619,75,19238,307,1,33778,0.0010000000000000009
25000,8792,4361,127636,3549,1285,121020,79,19236,324,1,33779,0.0009999999999999974
26000,14868,-717,129836,-362,3252,130416,91,19225,373,0,33780,0.0010000000000000009
27000,11152,-1159,126311,7031,-4225,128866,89,19237,365,0,33781,0.0010000000000000009
28000,13934,488,127333,4675,2873,124126,71,19237,365,0,33782,0.0009999999999999974
29000,13052,3209,128525,-746,-577,125655,112,19237,291,1,33783,0.0010000000000000009
30000,6332,-7241,129375,7419,-10932,134339,112,19233,459,1,33784,0.0010000000000000009
31000,9931,-13630,127839,-2166,-12480,133595,82,19236,336,1,33785,0.0010000000000000009
32000,2050,5596,131384,-2277,11305,121064,79,19238,324,1,33786,0.0010000000000000009
33000,17086,10085,128242,4930,5692,127745,120,19230,491,0,33787,0.0010000000000000009
34000,2387,4462,129267,7807,3897,125361,84,19230,491,0,33788,0.000999999999999994
35000,12057,-2960,129818,-33099,-10044,130974,73,19237,344,0,33789,0.0010000000000000009
36000,7563,-5759,130691,18038,-5807,128400,73,19236,299,1,33790,0.0010000000000000009
37000,1283,-8971,130622,7586,-19120,139142,88,19239,360,1,33791,0.0010000000000000009
38001,951,-2285,129951,-27860,3410,122164,84,19239,344,1,33792,0.0010010000000000019
39002,-2894,17369,130194,-6361,12100,127064,93,19228,381,0,33793,0.001000999999999995
40000,9380,4771,127950,-7698,6942,125268,93,19228,381,0,33794,0.0009980000000000058
41000,5142,10060,127258,-1003,4728,120693,77,19236,381,0,33795,0.000999999999999994
42000,5042,-15486,126763,-4721,-14289,137624,101,19236,315,0,33796,0.0010000000000000009
43000,2659,-1483,129228,-9022,-1441,123848,101,19224,414,1,33797,0.0010000000000000009
44001,3210,-6707,128707,-2023,-8334,139496,81,19236,332,1,33798,0.0010010000000000019
45003,-234,10550,127993,-16635,14071,114559,79,19232,324,1,33799,0.0010020000000000029
46000,6621,14359,128045,-14953,8278,125032,115,19232,471,0,33800,0.0009969999999999979
47000,1789,-7129,123546,13173,-6452,132662,92,19230,471,0,33801,0.0010000000000000009
48000,3497,10683,126909,-13411,6800,119711,74,19237,377,0,33802,0.0010000000000000009
49000,9596,3060,126573,-9072,3941,126236,74,19234,303,1,33803,0.000999999999999994
50002,4813,12468,129082,12528,11733,118568,98,19236,401,1,33804,0.0010020000000000029
51000,11347,-15397,127484,-13988,-18873,140774,87,19238,356,1,33805,0.0009979999999999989
52000,3677,-2131,125953,9612,765,121073,89,19238,365,1,33806,0.0010000000000000009
53000,5376,9516,126689,-3770,6886,124950,120,19224,365,0,33807,0.0010000000000000009
54000,8369,7727,124670,-12554,8476,119364,76,19237,491,0,33808,0.0010000000000000009
55000,15757,5898,126085,8224,3847,126653,76,19237,311,0,33809,0.0010000000000000009
56000,13853,-9318,123142,16328,-10014,130791,87,19231,356,1,33810,0.000999999999999994
57000,11682,6044,124582,-1290,5142,113540,81,19235,332,1,33811,0.0010000000000000009
58000,11308,-9654,126122,-69,-10969,137940,90,19233,369,1,33812,0.0010000000000000009
59000,14338,5046,127006,10052,5906,122415,109,19233,369,0,33813,0.0010000000000000009
60000,10852,9102,128754,-610,9575,124627,89,19234,446,0,33814,0.0010000000000000009
61000,12367,476,124996,6037,-275,123120,89,19237,365,0,33815,0.0010000000000000009
62000,15910,-8180,124753,7225,-8264,127715,68,19234,279,1,33816,0.0010000000000000009
63000,14315,-7649,127464,7643,-8215,133368,126,19237,516,1,33817,0.0010000000000000009
64000,15323,4095,127182,6240,3768,119271,86,19238,352,1,33818,0.0010000000000000009
65000,9844,3480,129598,7304,2979,130048,81,19238,352,1,33819,0.0010000000000000009
66000,12918,-2942,126579,-3267,-4316,129242,107,19228,332,0,33820,0.0010000000000000009
67000,10210,1115,128003,2949,-731,127976,107,19232,438,0,33821,0.000999999999999987
68000,15086,-1398,127395,12100,-2274,127430,80,19242,328,0,33822,0.0010000000000000009
69000,13244,4365,129113,1121,4088,119681,79,19227,324,1,33823,0.0010000000000000009
70000,8174,-9398,129575,-3008,-8683,135655,89,19233,365,1,33824,0.0010000000000000009
71000,8353,-9019,128312,1946,-11278,128421,85,19233,365,1,33825,0.0010000000000000009
72000,2619,3368,130984,-598,2040,130477,96,19232,348,0,33826,0.0010000000000000009
73000,10025,404,128366,-8882,8761,117833,96,19227,393,0,33827,0.0010000000000000009
74000,8687,13434,130359,9335,14706,136515,91,19239,373,0,33828,0.0010000000000000009
75000,11326,-15309,125956,-4141,-11367,126225,70,19234,287,0,33829,0.0010000000000000009
76000,6701,11091,131375,-19725,10021,120024,110,19232,451,1,33830,0.0010000000000000009
77001,7996,-12102,129604,15649,-18806,143882,100,19232,451,1,33831,0.0010010000000000019
78000,-8264,-4893,129018,424,254,124109,87,19235,410,1,33832,0.0009989999999999999
79002,1365,-3111,129717,-23951,-2783,135207,87,19231,356,0,33833,0.0010020000000000029
80000,2442,20456,129358,8333,30571,107878,114,19233,467,0,33834,0.0009979999999999989
81000,9403,19146,129373,964,550,130933,88,19236,360,0,33835,0.0010000000000000009
82000,7023,-22045,124959,-18362,-21985,129582,78,19228,319,0,33836,0.000999999999999987
83000,132,-3498,128666,-2995,-6922,130637,112,19228,319,1,33837,0.0010000000000000009
84000,5267,-549,130455,-5122,3193,128848,79,19235,459,1,33838,0.0010000000000000009
85000,-600,14750,130816,-6605,9338,121288,79,19239,324,1,33839,0.0010000000000000009
86000,2149,-7345,125292,-13825,-8582,136821,85,19227,348,0,33840,0.0010000000000000009
87000,-576,11207,124652,-8573,15827,112189,91,19237,373,0,33841,0.0010000000000000009
88001,14024,8576,125410,-1949,3893,127578,76,19236,311,0,33842,0.0010010000000000019
89000,10073,-521,124108,12738,595,123600,101,19236,414,1,33843,0.0009989999999999999
90000,5631,-3299,126696,-11603,-6025,130006,91,19232,414,1,33844,0.0010000000000000009
91000,7091,-4553,126053,-6516,-1475,127705,86,19235,373,1,33845,0.0010000000000000009
92000,5084,8119,127614,11483,6564,124970,86,19228,352,0,33846,0.0010000000000000009
93000,11253,-1930,125039,-8266,-3385,129128,121,19230,496,0,33847,0.0010000000000000009
94000,4927,15371,125452,-2821,15949,113832,90,19240,369,0,33848,0.0010000000000000009
95000,19500,-115,125103,5428,-2723,131674,70,19240,287,0,33849,0.0010000000000000009
96000,11981,295,124401,14758,760,120800,96,19230,287,1,33850,0.0010000000000000009
97000,12323,-4762,126096,-2120,-7271,131257,91,19238,393,1,33851,0.000999999999999987
98000,9325,-178,125685,3181,1321,122534,91,19237,373,1,33852,0.0010000000000000009
99001,14063,6133,127963,5625,4054,127484,87,19231,356,0,33853,0.0010010000000000019
100000,15823,-2597,126960,2718,-1067,128072,92,19235,377,0,33854,0.0009989999999999999
101000,11466,5795,125491,11825,4525,118476,76,19235,311,0,33855,0.0010000000000000009
102000,17156,-5923,126472,-1262,-6546,131742,91,19238,311,1,33856,0.0010000000000000009
103000,12104,-5030,125920,9220,-6096,126954,83,19230,373,1,33857,0.0010000000000000009
104000,14345,-4118,127605,10285,-3979,132614,83,19236,340,1,33858,0.0010000000000000009
105000,10358,5742,127286,1648,6429,122092,75,19238,307,1,33859,0.0010000000000000009
106000,14543,-1997,126952,-999,-3581,127982,101,19230,414,0,33860,0.0010000000000000009
107000,13314,-2579,127127,12028,-2849,131694,89,19240,365,0,33861,0.0010000000000000009
108000,13429,2978,128931,-382,2815,122341,72,19240,365,0,33862,0.0010000000000000009
109000,10617,950,130293,-1513,496,126592,123,19235,295,1,33863,0.0010000000000000009
110002,6790,-9451,129552,9625,-9425,133625,123,19237,504,1,33864,0.001001999999999989
111000,7103,-9957,129280,-1722,-10765,132066,78,19237,319,1,33865,0.0009980000000000128
112000,9260,10130,131633,-8196,10215,122329,75,19228,307,0,33866,0.000999999999999987
113000,12708,5692,129295,5163,5094,125520,109,19233,446,0,33867,0.0010000000000000009
114000,3403,4458,129452,9008,4024,127163,78,19233,446,0,33868,0.0010000000000000009
115000,11972,-8255,129271,-27870,-8090,129754,84,19237,319,0,33869,0.0010000000000000009
116000,1580,-8413,130504,4991,-10682,129518,84,19222,344,1,33870,0.0010000000000000009
117000,3323,-7475,128560,12866,-9358,136664,78,19235,319,1,33871,0.0010000000000000009
118000,-3275,2287,126520,-25118,-1720,119480,80,19237,328,1,33872,0.0010000000000000009
119000,2740,11906,128938,-15413,10822,130798,101,19227,414,0,33873,0.0010000000000000009
120000,8467,4417,127568,573,4152,120610,96,19227,414,0,33874,0.0010000000000000009
121002,5085,6500,129652,720,6580,128050,75,19238,393,0,33875,0.0010020000000000029
122000,3491,-9578,128278,-13480,-9064,131333,75,19236,307,1,33876,0.0009979999999999989
123000,1685,-2060,128687,-3049,-4001,132260,119,19231,487,1,33877,0.0010000000000000009
124000,2208,-4506,127851,-2769,-339,129485,78,19236,319,1,33878,0.0010000000000000009
125000,-544,16001,129515,-14510,16155,114534,74,19235,303,1,33879,0.0010000000000000009
126000,8387,4372,127533,-17154,-5230,133792,113,19235,303,0,33880,0.0010000000000000009
127000,858,-4069,126737,8175,-4847,126423,86,19231,463,0,33881,0.0010000000000000009
128000,7180,7432,126680,-21007,4690,124102,86,19236,352,0,33882,0.0010000000000000009
129002,7821,5241,126146,5040,6246,119834,84,19227,344,1,33883,0.0010020000000000029
130000,8389,5142,126684,2302,-1917,131144,69,19233,283,1,33884,0.0009979999999999989
131000,10274,-16256,124288,-6380,-15249,133316,81,19241,332,1,33885,0.0010000000000000009
132000,3406,7257,124881,1244,12956,117110,93,19241,381,0,33886,0.0010000000000000009
133001,7496,6651,126762,-7492,3666,127320,93,19227,381,0,33887,0.0010009999999999741
134000,9245,7166,124415,673,8988,119383,73,19235,381,0,33888,0.0009989999999999999
135000,16648,-570,126153,8246,-6384,133684,73,19236,299,1,33889,0.0010000000000000009
136001,9126,-4500,121458,9270,-1080,118855,103,19236,422,1,33890,0.0010010000000000019
137003,13199,2362,126297,-3349,-115,125014,83,19233,340,1,33891,0.0010020000000000029
138000,10783,-4329,124980,9267,-5157,132097,83,19233,340,1,33892,0.0009969999999999979
139000,13303,11479,128366,5340,11845,118570,112,19231,340,0,33893,0.0010000000000000009
140000,11111,4225,127463,-507,1878,127933,89,19236,459,0,33894,0.0010000000000000009
141001,13519,-1832,126895,5469,-2824,122917,89,19237,365,0,33895,0.0010010000000000019
142000,16942,-8116,125738,11354,-9314,133969,77,19231,315,1,33896,0.0009989999999999999
143000,12953,-3108,126715,6693,-1913,123736,100,19231,410,1,33897,0.0010000000000000009
144000,15215,3323,126913,5239,2789,123641,79,19231,324,1,33898,0.0010000000000000009
145000,10611,-2498,128299,7347,-3923,131902,85,19238,324,0,33899,0.0010000000000000009
146007,15270,1655,127833,-2531,1636,125296,91,19227,348,0,33900,0.0010070000000000079
147000,8569,-1082,129063,7719,-2508,129435,91,19238,373,0,33901,0.0009929999999999939
148002,15345,714,127174,2729,-210,123851,75,19238,307,0,33902,0.0010020000000000029
149000,8486,293,130226,2471,338,127664,93,19224,381,1,33903,0.0009979999999999989
150000,10987,-6916,128434,-4664,-6105,135557,78,19235,319,1,33904,0.0010000000000000009
151000,6060,-439,131185,1852,-964,124841,79,19235,319,1,33905,0.0010000000000000009
152000,6248,-4949,128620,-3059,-5864,134908,110,19233,324,0,33906,0.0010000000000000009
153000,8347,7517,131453,-2449,8365,118041,110,19230,451,0,33907,0.0010000000000000009
154000,5782,6035,128847,9456,3783,134271,91,19243,373,0,33908,0.0010000000000000009
155000,12224,-7556,128511,-22341,-8054,127236,70,19237,287,1,33909,0.0010000000000000009
156000,7780,9155,133287,-230,8425,118301,113,19232,463,1,33910,0.0010000000000000009
157000,3816,-19143,130034,19147,-20077,147038,91,19232,463,1,33911,0.0010000000000000009
158000,-7535,-676,130739,-26200,-2512,121951,90,19238,373,1,33912,0.0010000000000000009
159000,2868,294,131198,-20995,-270,134394,90,19232,369,0,33913,0.0010000000000000009
160000,7571,30104,129296,5094,29301,110999,105,19236,430,0,33914,0.0010000000000000009
161000,10200,-1447,127391,4468,-183,126509,81,19237,332,0,33915,0.0010000000000000009
162000,4554,-15166,124205,-17669,-17165,133146,87,19228,356,1,33916,0.0010000000000000009
163000,1285,-5624,128407,-218,-7120,128541,82,19228,356,1,33917,0.0010000000000000009
164001,3324,3910,130824,-7629,392,131638,79,19235,336,1,33918,0.0010009999999999741
165000,-523,9233,129495,-7076,10495,132259,79,19239,324,0,33919,0.0009989999999999999
166000,-347,-3163,125913,-12695,-6488,124225,102,19232,418,0,33920,0.0010000000000000009
167000,2516,17766,127044,-10312,16953,116142,93,19235,381,0,33921,0.0010000000000000009
168000,14734,-2512,125042,1263,-1536,132442,73,19235,299,0,33922,0.0010000000000000009
169000,6099,5924,127368,9047,5108,118468,110,19235,299,1,33923,0.0010000000000000009
170000,9256,-7721,125773,-9633,-10991,134657,88,19238,451,1,33924,0.0010000000000000009
171001,5324,4280,127792,-5380,9207,120472,88,19239,360,1,33925,0.0010010000000000019
172000,7401,-2211,124996,10606,-10939,133917,85,19232,348,0,33926,0.0009989999999999999
173000,6630,1212,125697,-9938,11670,114872,125,19233,512,0,33927,0.0010000000000000009
174000,9291,18922,126195,1003,7256,122548,83,19236,340,0,33928,0.0010000000000000009
175000,18822,-8119,124411,13096,-5833,130300,75,19236,307,1,33929,0.0010000000000000009
176000,10201,2140,124368,8610,-1815,121969,68,19224,307,1,33930,0.0010000000000000009
177003,12512,-10801,124713,-995,-7767,132173,88,19229,279,1,33931,0.0010030000000000039
178000,7869,9923,126389,7105,12042,117133,88,19232,360,1,33932,0.0009969999999999979
179000,15957,-1392,127903,342,-4347,136341,98,19231,401,0,33933,0.0010000000000000009
180002,13375,3282,125701,7077,7276,116216,92,19237,377,0,33934,0.0010020000000000029
181000,13040,5318,126620,6798,-264,126750,71,19237,291,0,33935,0.0009979999999999989
182001,18099,-8179,125611,2490,-7985,129402,107,19236,291,1,33936,0.0010010000000000019
183000,12650,-2860,128460,15916,-7836,128132,82,19234,438,1,33937,0.0009989999999999999
184000,13428,-4235,128428,3784,-1812,131553,82,19239,336,1,33938,0.0010000000000000009
185000,10199,11006,129142,-1039,9163,116675,78,19230,319,0,33939,0.0010000000000000009
186000,13754,-5898,127354,5426,-8818,137888,108,19233,442,0,33940,0.0010000000000000009
187000,11377,1227,128991,6697,3646,121653,84,19233,344,0,33941,0.0010000000000000009
188000,14498,2708,128029,-3660,294,125864,74,19243,344,0,33942,0.0010000000000000009
189005,9924,-2998,129704,6953,-3810,127668,104,19234,303,1,33943,0.0010049999999999781
190002,9448,-8923,129540,5241,-10691,133851,104,19238,426,1,33944,0.0009970000000000256
191002,4585,-10644,128507,-8145,-9587,132179,81,19237,332,1,33945,0.0010000000000000009
192003,11452,13944,130443,-6611,13845,119699,87,19227,356,0,33946,0.0010009999999999741
193002,10579,1657,128911,17172,364,131383,98,19227,401,0,33947,0.0009989999999999999
194000,3979,5980,129231,-7165,6061,124674,71,19236,401,0,33948,0.0009979999999999989
195000,14608,-7976,129068,-26363,-9455,132733,93,19240,291,1,33949,0.0010000000000000009
196000,1874,-3806,130006,27586,-4402,128963,93,19228,381,1,33950,0.0010000000000000009
197000,4541,-11333,129181,-5667,-11953,136536,80,19237,328,1,33951,0.0010000000000000009
198000,-4535,3753,130041,-27988,4397,123863,81,19233,332,1,33952,0.0010000000000000009
199000,3271,13660,130103,-5233,12551,125998,116,19234,475,0,33953,0.0010000000000000009
200000,9238,10389,129458,588,10755,123010,90,19234,475,0,33954,0.0010000000000000009
201000,5638,1446,129019,-6646,180,123429,71,19237,369,0,33955,0.0010000000000000009
202000,4934,-13671,127955,-7841,-14640,135635,71,19235,291,1,33956,0.0010000000000000009
203001,-995,-1812,129307,-1158,-3297,128745,144,19236,590,1,33957,0.0010010000000000019
204000,1739,-3033,128551,-9338,-4070,133130,90,19235,369,1,33958,0.0009989999999999999
205000,392,18447,129025,-19656,16844,113326,86,19229,352,0,33959,0.0010000000000000009
206000,5295,-2268,126645,-4465,-2143,131115,103,19229,352,0,33960,0.0010000000000000009
207000,418,-3127,123750,6536,-4758,128272,80,19232,422,0,33961,0.0010000000000000009
208000,9318,6320,125481,-20066,5704,120533,80,19239,328,0,33962,0.0010000000000000009
209000,6973,7028,126319,4198,5584,123012,86,19228,352,1,33963,0.0010000000000000009
210000,11943,1399,127451,5911,2550,126540,76,19238,311,1,33964,0.0010000000000000009
211000,4260,-16362,123832,-7017,-18797,138891,85,19233,348,1,33965,0.0010000000000000009
212000,3781,10273,125860,-1090,7167,117407,104,19233,348,0,33966,0.0010000000000000009
213000,8496,9133,126472,-7012,9769,125716,93,19228,426,0,33967,0.0010000000000000009
214000,10938,7468,126184,3444,6647,123102,93,19236,381,0,33968,0.0010000000000000009
215000,16995,-4177,125009,3185,-3035,130627,69,19237,283,1,33969,0.0010000000000000009
216000,6516,-44,123797,11145,-4482,117838,102,19232,418,1,33970,0.0010000000000000009
217000,13802,-1732,127764,-2359,-8550,131448,88,19236,360,1,33971,0.0010000000000000009
218000,10192,-2000,126498,9558,-518,128001,87,19236,360,1,33972,0.0010000000000000009
219000,14007,9078,128306,4340,9496,121947,106,19232,356,0,33973,0.0010000000000000009
220000,10746,4186,125808,-2996,585,124752,106,19229,434,0,33974,0.0010000000000000009
221000,15783,-2514,124959,7344,-5121,127259,81,19240,332,0,33975,0.0010000000000000009
222000,16674,-9960,124817,9429,-7898,131095,76,19230,311,1,33976,0.0010000000000000009
223000,11927,-1206,126665,5513,2435,122408,80,19238,328,1,33977,0.0010000000000000009
224000,15985,3397,127506,5100,2096,126727,79,19238,324,1,33978,0.0009999999999999731
225001,10202,-1058,127720,4634,-2159,129526,92,19238,324,0,33979,0.0010010000000000019
226000,13643,1203,128153,-3241,1165,126745,90,19235,377,0,33980,0.0009989999999999999
227000,9332,-3180,127873,11325,-3425,127279,90,19235,369,0,33981,0.0010000000000000009
228000,16201,3533,127326,4986,790,122978,69,19238,283,0,33982,0.0010000000000000009
229000,9929,-306,130710,1935,-5355,130702,107,19229,438,1,33983,0.0010000000000000009
230000,10622,-7752,129647,-6047,-7091,130578,83,19229,340,1,33984,0.0010000000000000009
231001,5131,3613,133268,3911,2905,127246,80,19238,340,1,33985,0.0010010000000000019
232001,6154,-8434,127062,-7080,-12693,134872,123,19231,328,0,33986,0.0010000000000000009
233000,8027,9995,131208,2420,15330,116876,123,19236,504,0,33987,0.0009989999999999999
234001,7910,737,128319,5698,-7028,138898,82,19240,336,0,33988,0.0010010000000000019
235000,13321,-4445,128757,-25330,1537,117838,73,19229,299,1,33989,0.0009989999999999999
236000,8924,6067,133236,11132,-1783,130037,97,19229,397,1,33990,0.0010000000000000009
237000,1219,-19859,129011,13640,-19713,141957,84,19237,397,1,33991,0.0010000000000000009
238000,-7205,1681,130440,-36346,-386,123664,92,19234,344,1,33992,0.0010000000000000009
239000,2014,1437,129664,-14757,6817,131160,92,19229,377,0,33993,0.0010000000000000009
240000,7695,33566,127227,10586,32823,110189,95,19237,389,0,33994,0.0010000000000000009
241000,9158,-5923,127473,-7768,-9519,135129,75,19239,307,0,33995,0.0010000000000000009
242000,3248,-12419,125266,-17078,-11362,126445,100,19220,410,1,33996,0.0010000000000000009
243000,2307,-8874,130509,4375,-9625,135876,96,19220,410,1,33997,0.0010000000000000009
244000,1947,7603,132618,-6613,8447,123650,87,19236,393,1,33998,0.0010000000000000009
245000,491,8746,129141,-9777,4430,126432,87,19234,356,0,33999,0.0010000000000000009
246002,-2674,-3223,126414,-14340,-3241,130425,119,19232,487,0,34000,0.0010020000000000029
247000,5154,15956,127742,-7006,15757,112811,96,19238,393,0,34001,0.0009979999999999989
248000,14440,-3097,124952,5788,-4189,132409,78,19232,319,0,34002,0.0010000000000000009
249000,4740,5830,127600,6238,5439,118158,100,19232,319,1,34003,0.0010000000000000009
250000,10142,-9374,124937,-15911,-10877,134285,85,19237,410,1,34004,0.0010000000000000009
251000,5806,3273,127534,3632,2723,122852,85,19241,348,1,34005,0.0010000000000000009
252000,10094,183,125386,9474,-491,130635,85,19233,348,0,34006,0.0010000000000000009
253002,2486,1052,122389,-11634,-1195,123698,118,19231,483,0,34007,0.0010020000000000029
254000,14138,11939,127140,-5570,12915,116971,79,19238,324,0,34008,0.0009979999999999989
255000,16731,-4259,123482,14636,-5880,132422,89,19238,324,1,34009,0.0010000000000000009
256000,10287,5191,126607,9224,4440,118460,81,19228,365,1,34010,0.0010000000000000009
257000,10526,-11756,124974,-2175,-12162,134246,81,19233,332,1,34011,0.0010000000000000009
258000,7694,10137,126986,4522,7410,119760,84,19234,344,1,34012,0.0010000000000000009
259002,17168,-1024,128243,3497,985,131680,105,19231,430,0,34013,0.0010020000000000029
260000,10870,6771,126029,7262,4787,114994,92,19238,377,0,34014,0.0009979999999999989
261000,15526,74,125980,5599,2979,131677,73,19238,377,0,34015,0.0010000000000000009
262000,17170,-11848,124951,2914,-11254,126735,122,19234,299,1,34016,0.0010000000000000009
263001,14975,-4901,127945,12155,-6745,132893,122,19232,500,1,34017,0.0010009999999999741
264003,12225,-782,128223,10383,3152,122524,82,19234,336,1,34018,0.0010020000000000029
265000,12119,8274,127454,-3423,2266,125711,75,19229,307,0,34019,0.0009970000000000256
266000,13617,-5071,126841,2674,-5126,132380,101,19235,414,0,34020,0.0010000000000000009
267000,10832,3429,128595,10805,5922,123125,83,19235,340,0,34021,0.0010000000000000009
268002,14448,42,129085,-4072,-2473,126297,83,19239,340,0,34022,0.0010019999999999474
269000,7252,-2595,129051,8161,-5127,129435,83,19226,340,1,34023,0.0009979999999999989
270000,10879,-12502,128307,2799,-15140,136944,75,19236,307,1,34024,0.0010000000000000009
271000,3509,201,129823,-11278,6328,122930,81,19239,332,1,34025,0.0010000000000000009
272002,13041,5687,129569,-796,2621,128233,94,19232,385,0,34026,0.0010020000000000029
273000,6554,5067,130475,15601,2746,126214,92,19232,377,0,34027,0.0009979999999999989
274000,4718,1174,130473,-16692,-3782,128653,70,19232,377,0,34028,0.0010000000000000009
275000,10621,-6864,129520,-13986,-5385,128535,110,19235,287,1,34029,0.0010000000000000009
276000,3480,-5312,130850,19913,-9059,133059,110,19231,451,1,34030,0.0010000000000000009
277000,2457,-5555,130454,-8565,-4484,128981,84,19236,344,1,34031,0.0010000000000000009
278000,-3520,8342,129811,-25032,8936,123084,84,19233,344,1,34032,0.0010000000000000009
279000,6455,8862,130765,-6757,7256,127932,115,19233,471,0,34033,0.0010000000000000009
280000,5404,8885,127494,8246,6432,122356,87,19234,471,0,34034,0.0010000000000000009
281000,8005,-3635,128362,-16713,-6226,128528,79,19237,356,0,34035,0.0010000000000000009
282000,2306,-7147,127783,-5720,-8529,129511,79,19232,324,1,34036,0.0010000000000000009
283000,-711,-6667,129430,4298,-7316,136080,125,19237,512,1,34037,0.0010000000000000009
284000,3237,6771,130601,-13275,9827,122806,83,19239,340,1,34038,0.0010000000000000009
285000,-533,14994,127576,-17192,12912,122724,89,19226,365,0,34039,0.0010000000000000009
286000,6049,2553,127405,-5146,712,127763,92,19226,365,0,34040,0.0010000000000000009
287000,2889,-3050,125423,9021,-3170,127672,75,19234,377,0,34041,0.0010000000000000009
288000,7683,2421,126928,-13318,2928,125082,75,19236,307,1,34042,0.0010000000000000009
289000,6554,8063,126661,613,7089,117642,102,19231,418,1,34043,0.0010000000000000009
290000,9595,-732,126957,4407,-3896,133565,83,19236,340,1,34044,0.0010000000000000009
291000,7491,-3001,126915,-13568,-2648,126416,84,19233,344,1,34045,0.0010000000000000009
292000,6664,1812,126309,5927,973,124999,119,19233,344,0,34046,0.0010000000000000009
293000,4698,6380,126307,3741,5899,124046,90,19234,487,0,34047,0.0010000000000000009
294000,12211,2521,126235,-9994,2531,123416,90,19238,369,0,34048,0.0010000000000000009
295000,16139,2106,124587,5126,1055,126869,71,19229,291,1,34049,0.0010000000000000009
296001,10966,-588,123045,20181,-2212,122183,97,19231,397,1,34050,0.0010010000000000296
297000,9940,-3172,125111,-5638,-3900,123441,93,19235,381,1,34051,0.0009989999999999721
298000,12578,-1194,127107,-415,-1282,128238,92,19235,381,0,34052,0.0010000000000000009
299000,15105,1084,126826,11720,124,129633,92,19228,377,0,34053,0.0010000000000000009
300004,10609,12123,128708,2908,12048,117963,92,19235,377,0,34054,0.0010040000000000049
301002,14456,-7593,124389,1902,-7776,129612,77,19239,315,0,34055,0.0009979999999999989
302002,13906,-7933,126004,10816,-8863,127540,86,19230,352,1,34056,0.0010000000000000009
303000,15042,-2246,127685,8088,-2536,130061,74,19238,303,1,34057,0.0009979999999999989
304000,15225,4940,128658,3124,4173,122307,78,19238,303,1,34058,0.0010000000000000009
305000,11709,2904,128744,10314,2565,126475,100,19237,319,0,34059,0.0010000000000000009
306002,11990,-3614,127847,-5660,-4482,127903,100,19224,410,0,34060,0.0010020000000000029
307000,8933,-4840,126936,8188,-4431,127529,90,19233,369,0,34061,0.0009979999999999989
308000,13427,2657,130236,8885,3318,124914,69,19234,283,0,34062,0.0010000000000000009
309000,9823,153,128851,-6946,1300,128110,128,19238,524,1,34063,0.0010000000000000009
310003,9117,-7357,130309,3224,-6416,134964,85,19238,524,1,34064,0.0010029999999999761
311000,3374,-802,129744,4340,-3185,129304,82,19239,348,1,34065,0.0009970000000000256
312000,7013,-9417,125519,-11162,-1310,124247,82,19229,336,0,34066,0.0010000000000000009
313000,8684,20303,132918,2826,21063,123479,112,19236,459,0,34067,0.0010000000000000009
314000,12973,-8434,125585,7954,-17420,136335,77,19241,315,0,34068,0.0010000000000000009
315003,9525,4229,131157,-20434,10003,116095,78,19228,319,1,34069,0.0010029999999999761
316003,7328,-5628,129840,22730,-18382,141516,71,19228,291,1,34070,0.0010000000000000009
317000,-3909,-11234,128747,-5989,-3470,127203,81,19236,291,1,34071,0.0009970000000000256
318000,-2142,-66,130130,-33782,-8376,135882,100,19231,332,0,34072,0.0010000000000000009
319000,4393,8872,129241,-2148,20334,116384,100,19227,410,0,34073,0.0010000000000000009
320003,4833,32360,129193,4848,19714,118738,96,19238,393,0,34074,0.0010029999999999761
321002,10262,-12549,127878,-13233,-16869,134290,69,19236,283,0,34075,0.0009990000000000276
322002,1293,-10169,125450,-4430,-10146,128359,115,19236,471,1,34076,0.0010000000000000009
323000,4754,-9442,131100,-2416,-6690,135901,82,19229,471,1,34077,0.0009979999999999989
324002,602,14872,130645,-9946,15289,115816,81,19236,336,1,34078,0.0010020000000000029
325000,3527,-2182,127812,-7601,-8475,139057,81,19228,332,0,34079,0.0009979999999999989
326000,-3243,5698,124587,-13218,9564,116768,115,19234,471,0,34080,0.0010000000000000009
327000,8031,12091,126742,-6676,6970,123595,88,19238,360,0,34081,0.0010000000000000009
328000,14387,-1397,123752,10956,-324,125917,77,19238,315,1,34082,0.0009999999999999454
329000,4672,4347,126074,-1019,3517,122883,77,19228,315,1,34083,0.0010000000000000009
330000,9659,-7950,123122,-12610,-6513,133147,85,19239,315,1,34084,0.0010000000000000009
331000,906,9119,128310,7925,10261,119479,85,19241,348,1,34085,0.0010000000000000009
332000,12216,-7155,125823,-1414,-7908,136047,95,19230,389,0,34086,0.0010000000000000009
333000,1785,12268,127040,-7819,15420,111681,98,19239,401,0,34087,0.0010000000000000009
334000,16537,5601,127345,1232,1731,128327,70,19239,287,0,34088,0.0010000000000000009
335000,15905,-2330,123898,13938,-2298,124457,99,19239,287,1,34089,0.0010000000000000009
336000,10846,-2333,125329,6768,-5975,126570,94,19230,405,1,34090,0.0010000000000000009
337000,11126,-4400,125689,329,-3663,127080,94,19233,385,1,34091,0.0010000000000000009
338000,8128,11748,127611,6960,10391,120419,90,19234,369,0,34092,0.0010000000000000009
339000,17353,-5973,127360,-3594,-5937,135048,120,19233,491,0,34093,0.0010000000000000009
340000,10218,8801,125338,13037,7919,115296,89,19238,365,0,34094,0.0010000000000000009
341000,17168,-6103,126686,3350,-6181,130916,73,19238,365,0,34095,0.0010000000000000009
342000,15386,-4591,125436,5062,-5266,125966,98,19232,299,1,34096,0.0010000000000000009
343000,14079,-10623,125204,12084,-11562,135025,98,19237,401,1,34097,0.0010000000000000009
344000,11747,5709,129776,4611,5713,123454,82,19237,336,1,34098,0.0010000000000000009
345000,11318,4091,126868,-1164,2571,123119,83,19235,340,0,34099,0.0010000000000000009
346000,12782,-3664,128030,3735,-4969,133642,89,19234,365,0,34100,0.0010000000000000009
347000,10113,4205,128453,7982,3023,122330,75,19234,365,0,34101,0.0010000000000000009
348002,15639,953,129926,-4296,952,128477,90,19239,307,1,34102,0.0010020000000000029
349002,5603,-3475,130240,10284,-3694,125423,90,19226,369,1,34103,0.0010000000000000009
350000,9744,-15084,127650,-939,-16213,138808,86,19232,352,1,34104,0.0009979999999999989
351000,3587,4968,131300,-7299,3013,123856,81,19232,332,1,34105,0.0010000000000000009
352000,15901,-14,129462,-961,3071,127159,109,19232,446,0,34106,0.0010000000000000009
353000,5636,7262,129323,13629,6022,124207,91,19232,446,0,34107,0.0010000000000000009
354000,7861,-1316,130814,-12096,1327,130903,69,19234,373,0,34108,0.0010000000000000009
355000,12433,-6881,128778,-17208,-9916,129479,69,19232,283,1,34109,0.0010000000000000009
356005,2148,-6157,130422,19993,-7911,136660,114,19232,467,1,34110,0.0010049999999999781
357000,-243,-3121,130327,-6220,-7704,124850,88,19233,360,1,34111,0.0009950000000000236
358000,-1680,12771,129995,-25544,9972,125562,85,19231,348,0,34112,0.0010000000000000009
359000,7434,6718,128924,-5788,6633,128224,103,19231,348,0,34113,0.0010000000000000009
360000,4791,8732,126943,1640,5197,120372,83,19233,422,0,34114,0.0010000000000000009
361002,7197,-5876,127794,-9232,-9250,132079,83,19237,340,0,34115,0.0010020000000000029
362000,1363,-6230,129539,-227,-7502,130722,88,19226,360,1,34116,0.0009979999999999989
363000,915,-7872,129731,-4303,-11214,134946,86,19236,352,1,34117,0.0010000000000000009
364000,1173,11435,131665,-11314,15681,116256,77,19234,315,1,34118,0.0010000000000000009
365000,1818,15198,128363,-13538,5223,125887,97,19234,397,0,34119,0.0010000000000000009
366000,3157,-4063,125562,-3064,-4335,129764,94,19226,397,0,34120,0.0010000000000000009
367000,4488,2956,126339,832,1851,123814,75,19239,385,0,34121,0.0010000000000000009
368000,8497,3430,125240,-5471,5903,122842,75,19232,307,1,34122,0.0010000000000000009
369000,6422,10371,127103,1564,7538,120622,113,19242,463,1,34123,0.0010000000000000009
370000,9089,-9327,125169,-19,-12220,137652,86,19234,352,1,34124,0.0010000000000000009
371000,7192,-318,126496,-10130,3594,120647,84,19234,344,1,34125,0.0010000000000000009
372000,10125,5502,127038,6049,3885,125165,127,19235,344,0,34126,0.0010000000000000009
373000,3167,2853,125762,4701,3436,124780,86,19233,520,0,34127,0.0010000000000000009
374002,10850,5192,126187,-13950,2262,124788,86,19236,352,0,34128,0.0010020000000000029
375000,12473,2834,125032,7849,4443,126741,79,19230,324,1,34129,0.0009979999999999989
376000,15907,5586,125163,17863,2894,120207,76,19233,311,1,34130,0.0010000000000000009
377000,10309,-6006,124636,-376,-7237,128691,91,19233,373,1,34131,0.0010000000000000009
378000,11677,-1272,127957,-1793,-617,127455,97,19234,373,0,34132,0.0010000000000000009
379000,14884,-265,126781,6276,1035,128188,94,19230,397,0,34133,0.0010000000000000009
380000,10118,10323,128012,9683,9295,119645,94,19236,385,0,34134,0.0010000000000000009
381000,16625,-4839,125424,589,-6489,129681,75,19238,307,0,34135,0.0010000000000000009
382000,10742,-8752,125428,10530,-8324,127552,107,19226,438,1,34136,0.0010000000000000009
383000,17443,540,127167,6216,464,126833,89,19237,365,1,34137,0.0010000000000000009
384000,14214,2292,128768,5206,2195,124818,77,19237,365,1,34138,0.0010000000000000009
385000,13739,4952,128271,3949,3502,126025,110,19233,315,0,34139,0.0010000000000000009
386000,11600,-6078,126237,2056,-7676,131476,110,19234,451,0,34140,0.0010000000000000009
387000,10990,245,126907,9171,-840,123996,88,19236,360,0,34141,0.0009999999999999454
388000,13427,-1407,130126,2188,-1852,128489,77,19233,315,1,34142,0.0010000000000000009
389000,8452,-2597,128544,-4138,-3291,127021,110,19237,451,1,34143,0.0010000000000000009
390000,9195,704,131456,1562,-552,128675,78,19237,451,1,34144,0.0010000000000000009
391000,4315,-6288,128576,1785,-7488,135986,83,19236,319,1,34145,0.0010000000000000009
392000,9460,-1183,128853,-5235,-1572,120483,83,19230,340,0,34146,0.0010000000000000009
393000,9484,15579,130736,5722,14905,129105,95,19237,389,0,34147,0.0010000000000000009
394000,10167,-9838,127158,-2530,-10765,131008,77,19235,315,0,34148,0.0010000000000000009
395000,10078,9385,132501,-20343,8426,119479,94,19224,385,1,34149,0.0010000000000000009
396000,5775,-16960,127960,20771,-18947,142994,81,19224,385,1,34150,0.0010000000000000009
397000,-8025,-6247,128550,-7190,-9441,123963,79,19233,332,1,34151,0.0010000000000000009
398000,1776,-3632,131425,-29824,-3709,137207,79,19234,324,0,34152,0.0010000000000000009
399000,3201,29205,130210,-2406,26337,112523,113,19231,463,0,34153,0.0010000000000000009
400000,5727,10927,130027,4767,14394,132750,94,19237,385,0,34154,0.0010000000000000009
401000,6546,-13371,125822,-16062,-14415,127777,74,19235,303,0,34155,0.0010000000000000009
402000,2900,-11903,127731,-2100,-13368,137005,140,19235,303,1,34156,0.0010000000000000009
403001,4053,2321,130810,-2824,-2778,119457,81,19233,573,1,34157,0.0010010000000000296
404000,108,11938,130597,-9530,2839,130766,81,19236,332,1,34158,0.0009989999999999721
405002,1930,-7540,125969,-8695,-3247,129280,81,19228,332,0,34159,0.0010020000000000029
406002,-837,14657,125669,-14007,15000,115288,105,19234,430,0,34160,0.0010000000000000009
407000,11164,3971,125376,-2086,-1166,129313,83,19238,340,0,34161,0.0009979999999999989
408000,10355,5862,125884,6350,4106,117796,87,19238,356,1,34162,0.0010000000000000009
409001,5738,-4481,126389,-11513,-11549,135778,75,19231,356,1,34163,0.0010010000000000296
410003,7986,1353,126804,-1567,7284,118634,83,19235,307,1,34164,0.0010020000000000029
411000,2726,5076,128182,9549,-4789,133846,83,19231,340,1,34165,0.0009969999999999701
412000,10092,-6542,125364,-13183,2234,122965,104,19230,426,0,34166,0.0010000000000000009
413003,4559,15855,127052,-3027,11141,117569,94,19240,385,0,34167,0.0010030000000000316
414000,18316,-859,124724,6518,-1724,131127,69,19240,283,0,34168,0.0009969999999999701
415000,13011,3473,124111,11875,735,118967,106,19230,283,1,34169,0.0010000000000000009
416000,11883,-10819,123019,429,-12393,134951,87,19234,434,1,34170,0.0010000000000000009
417000,12005,4483,124932,3012,8497,116792,87,19235,356,1,34171,0.0010000000000000009
418000,11301,3480,127473,6510,-832,132171,85,19231,348,0,34172,0.0010000000000000009
419000,17935,2406,126090,884,6447,122435,106,19233,434,0,34173,0.0010000000000000009
420000,8491,9489,125709,14609,6440,121645,85,19233,348,0,34174,0.0010000000000000009
421000,18765,-8583,126175,-2153,-5816,130799,78,19232,348,0,34175,0.0010000000000000009
422000,14069,-2593,126634,13042,-4224,124280,93,19230,319,1,34176,0.0010000000000000009
423000,13951,-7300,128070,6512,-5586,134144,93,19235,381,1,34177,0.0010000000000000009
424000,11265,8544,128747,-422,7617,116745,86,19237,352,1,34178,0.0010000000000000009
425000,13287,-3505,128133,4569,-7530,135738,92,19224,377,0,34179,0.0010000000000000009
426000,13747,-613,128692,8019,291,125506,93,19236,381,0,34180,0.0010000000000000009
427001,10796,6276,129070,459,4268,123323,73,19236,381,0,34181,0.0010009999999999741
428001,14992,-3219,129245,80,-3818,129852,105,19232,299,1,34182,0.0010000000000000009
429000,4990,-6504,129153,11672,-8362,129643,105,19233,430,1,34183,0.0009990000000000276
430000,9052,-12790,127740,-9015,-13637,136395,79,19244,324,1,34184,0.0010000000000000009
431000,4041,6377,130575,-5797,8617,119603,78,19237,319,1,34185,0.0010000000000000009
432001,13356,1384,127945,4527,-886,132767,122,19231,500,0,34186,0.0010009999999999741
433000,6162,6149,127576,9536,5863,125414,86,19231,500,0,34187,0.0009990000000000276
434000,9132,-1519,131112,-25386,-3129,127099,72,19229,352,0,34188,0.0010000000000000009
435000,10761,-5890,130188,200,-6336,130247,72,19228,295,1,34189,0.0010000000000000009
436000,1855,-6869,130066,18295,-10027,133599,98,19227,401,1,34190,0.0010000000000000009
437000,-2842,-3711,129680,-20311,-5128,129079,83,19239,340,1,34191,0.0010000000000000009
438000,-1052,14789,129450,-19697,13827,121946,90,19226,369,0,34192,0.0010000000000000009
439000,7620,5787,128896,-1997,5321,129886,92,19226,369,0,34193,0.0010000000000000009
440000,3977,12405,128957,978,11751,116878,75,19236,377,0,34194,0.0010000000000000009
441000,8135,-11285,128345,-12767,-10846,134292,75,19237,307,0,34195,0.0010000000000000009
442000,1155,-12070,130503,412,-12947,129945,95,19223,389,1,34196,0.0010000000000000009
443001,3287,-4455,129241,-2317,-5332,134922,79,19237,324,1,34197,0.0010009999999999741
444001,-598,11341,127372,-14729,8694,120018,79,19237,324,1,34198,0.0010000000000000009
445000,2744,13894,127199,-14526,13558,120786,114,19237,324,0,34199,0.0009990000000000276
446002,3481,-7630,123267,-4218,-10545,125618,92,19228,467,0,34200,0.0010019999999999474
447002,4434,9951,126453,5740,6879,123686,92,19235,377,0,34201,0.0010000000000000009
448000,8922,767,124847,-11282,797,121163,74,19234,303,1,34202,0.0009979999999999989
449000,9225,9091,126097,3026,8459,125849,94,19236,385,1,34203,0.0010000000000000009
450000,7791,-10113,126618,5434,-8728,136181,89,19232,365,1,34204,0.0010000000000000009
451000,7354,2184,126604,-16753,-2465,116526,89,19232,365,1,34205,0.0010000000000000009
452000,5893,5978,127830,3824,160,131859,120,19234,365,0,34206,0.0010000000000000009
453000,2838,2725,124629,11451,1011,121987,77,19230,491,0,34207,0.0010000000000000009
454001,13662,7676,126230,-19911,4887,123754,77,19235,315,0,34208,0.0010010000000000296
455000,14053,1735,125684,6128,-1128,126015,84,19229,344,1,34209,0.0009989999999999721
456000,18816,2462,123991,7860,505,121749,75,19235,307,1,34210,0.0010000000000000009
457000,9857,-8393,124950,-6238,-9783,130658,88,19235,360,1,34211,0.0010000000000000009
458000,12461,-758,126701,6257,3352,126122,107,19234,360,0,34212,0.0010000000000000009
459000,13338,4630,127637,8178,4137,127635,93,19231,438,0,34213,0.0010000000000000009
460007,10593,7332,127706,-327,7624,120505,93,19242,381,0,34214,0.0010070000000000356
461001,17333,-3915,124685,9441,-10374,129183,69,19236,283,0,34215,0.0009939999999999949
462000,10965,-11003,123943,8604,-6455,128056,121,19232,496,1,34216,0.0009989999999999721
463000,19966,1616,127628,2047,2134,124705,89,19232,365,1,34217,0.0010000000000000009
464000,9269,6928,128561,9293,6233,125666,83,19239,365,1,34218,0.0010000000000000009
465000,14140,5987,129008,-2523,1928,128736,105,19236,340,0,34219,0.0010000000000000009
466000,7776,-6738,127533,4222,-6421,129855,105,19229,430,0,34220,0.0010000000000000009
467000,13658,-2603,129200,7292,-3702,127947,82,19239,336,0,34221,0.0010000000000000009
468000,12519,-493,129332,2363,476,125077,81,19227,332,1,34222,0.0010000000000000009
469001,8582,-169,130400,-4462,-2337,127525,81,19235,332,1,34223,0.0010010000000000296
470000,10085,-2544,130317,3720,-1484,131291,80,19235,332,1,34224,0.0009989999999999721
471000,2813,-8154,128461,1401,-13033,135929,93,19236,328,1,34225,0.0010000000000000009
472000,9488,2323,130232,-5095,8433,118426,93,19236,381,0,34226,0.0010000000000000009
473001,9230,14233,129055,6137,7337,130984,91,19236,373,0,34227,0.0010010000000000296
474000,11073,-8917,127586,-12944,-6328,127844,69,19239,283,0,34228,0.0009989999999999721
475000,10268,5874,132695,-8238,4185,121573,107,19230,438,1,34229,0.0010000000000000009
476000,5020,-15146,126659,21839,-16345,143046,84,19230,438,1,34230,0.0010000000000000009
477000,-6738,-2660,130672,-23878,-4085,124157,82,19232,344,1,34231,0.0010000000000000009
478000,1656,-718,129963,-22514,285,132871,82,19236,336,0,34232,0.0010000000000000009
479001,4958,27141,131320,1287,28354,114116,120,19236,491,0,34233,0.0010009999999999741
480000,7443,7414,129561,4624,4319,124911,88,19240,360,0,34234,0.0009990000000000276
481000,5495,-14412,125609,-17389,-15328,132387,78,19230,319,0,34235,0.0010000000000000009
482000,3114,-10649,127746,235,-11840,131286,126,19230,319,1,34236,0.0010000000000000009
483000,2740,4360,131190,-6732,4408,128431,82,19236,516,1,34237,0.0010000000000000009
484000,-182,11692,130567,-9045,10071,123210,82,19237,336,1,34238,0.0010000000000000009
485000,-453,-5913,125145,-11832,-8143,134106,89,19228,365,0,34239,0.0010000000000000009
486000,663,16472,125603,-11029,14281,116462,91,19234,373,0,34240,0.0010000000000000009
487000,14710,-3355,123047,1549,-4207,125234,80,19236,328,0,34241,0.0010000000000000009
488000,9195,7101,126644,9438,6113,121164,99,19236,328,1,34242,0.0010000000000000009
489000,7401,-3535,126041,-7847,-2595,128953,85,19233,405,1,34243,0.0010000000000000009
490000,5648,466,127381,-6694,-1677,125945,85,19234,348,1,34244,0.0010000000000000009
491001,4308,2688,128067,8320,3520,128113,84,19232,344,1,34245,0.0010009999999999741
492000,8643,-5020,124248,-6957,-8277,130853,116,19224,475,0,34246,0.0009990000000000276
493000,6250,18200,127440,-6460,18237,111039,91,19238,373,0,34247,0.0010000000000000009
494000,19567,-3997,123385,6475,-3860,128618,73,19238,373,0,34248,0.0010000000000000009
495000,11671,3548,124525,10822,1823,121718,91,19228,299,1,34249,0.0010000000000000009
496000,13293,-10284,123824,4766,-9952,131704,91,19234,373,1,34250,0.0010000000000000009
497000,9677,8181,126012,1640,3272,117107,89,19235,365,1,34251,0.0010000000000000009
498000,12472,-96,127816,6748,5471,134187,89,19229,365,0,34252,0.0010000000000000009
499000,14128,524,127207,-2698,6687,117265,98,19234,401,0,34253,0.0010000000000000009
500000,10093,9849,126681,11897,1752,125291,77,19234,315,0,34254,0.0010000000000000009
501000,19414,-9111,126327,2020,-9145,130377,86,19237,315,1,34255,0.0010000000000000009
502000,12642,-2916,126136,8623,-3720,126495,75,19226,352,1,34256,0.0010000000000000009
503000,15341,-7883,127985,5279,-4417,132298,75,19236,307,1,34257,0.0010000000000000009
504000,10367,10182,128269,537,9880,116627,81,19231,332,1,34258,0.0010000000000000009
505000,13304,-5449,127338,4109,-11140,139325,99,19234,405,0,34259,0.0010000000000000009
506000,11354,-362,127546,5186,5631,120902,90,19234,369,0,34260,0.0010000000000000009
507000,13239,6084,128221,-1360,1190,126380,70,19236,369,0,34261,0.0010000000000000009
508001,12798,-3859,128598,5957,-2572,128145,125,19242,287,1,34262,0.0010009999999999186
509000,7966,-2660,130786,6314,-11080,131808,125,19237,512,1,34263,0.0009990000000000832
510000,7513,-14404,127574,-5467,-9052,135581,85,19238,348,1,34264,0.0010000000000000009
511000,7701,12907,132219,-7268,14127,117551,82,19231,336,0,34265,0.0010000000000000009
512000,12518,1368,128235,12423,446,132740,113,19231,463,0,34266,0.0010000000000000009
513000,4817,6496,129389,-3027,5499,124547,81,19236,463,0,34267,0.0010000000000000009
514000,13612,-4533,129524,-26215,-8466,128317,77,19242,332,0,34268,0.0010000000000000009
515002,4625,-5357,130619,17686,-8551,129921,77,19228,315,1,34269,0.0010019999999999474
516000,5100,-8895,129281,11,-9933,135952,77,19234,315,1,34270,0.0009980000000000544
517000,-3968,-1740,129734,-21783,-888,126571,81,19235,332,1,34271,0.0010000000000000009
518000,703,11176,127534,-10946,10460,126092,98,19230,401,0,34272,0.0010000000000000009
519000,8678,9720,129227,-3837,10033,123926,93,19230,401,0,34273,0.0010000000000000009
520001,3048,6613,127180,500,4961,122182,74,19236,381,0,34274,0.0010009999999999186
521000,6933,-12667,127740,-14198,-12273,133899,74,19236,303,0,34275,0.0009990000000000832
522000,1148,-6735,128053,3011,-8239,130424,115,19231,471,1,34276,0.0010000000000000009
523000,3397,-4746,127741,-5870,-4449,132968,84,19237,344,1,34277,0.0010000000000000009
524000,-983,17164,129003,-17394,17584,115362,78,19232,319,1,34278,0.0010000000000000009
525000,4438,4728,127580,-13592,1233,128737,116,19232,319,0,34279,0.0010000000000000009
526001,4207,-2833,124059,3215,-3605,129092,91,19232,475,0,34280,0.0010009999999999186
527000,4878,3600,126651,331,2532,123144,91,19237,373,0,34281,0.0009990000000000832
528000,7999,6825,125204,-8973,6774,121435,78,19230,319,1,34282,0.0010000000000000009
529000,9421,4358,127144,4760,4098,124362,79,19236,324,1,34283,0.0010000000000000009
530000,6955,-8006,126949,-924,-8928,134991,85,19234,348,1,34284,0.0010000000000000009
531000,9399,3303,127272,-10980,3435,120816,90,19234,348,0,34285,0.0010000000000000009
532000,3991,-1404,127087,7520,-2924,126858,99,19227,369,0,34286,0.0010000000000000009
533001,4669,5115,125426,2747,3664,124319,99,19240,405,0,34287,0.0010009999999999186
534000,13795,1660,124277,-15742,1464,124939,75,19239,307,0,34288,0.0009990000000000832
535000,12623,6904,124384,13409,5145,122668,98,19230,401,1,34289,0.0010000000000000009
536000,17524,-1712,123498,17838,-1647,125250,87,19237,356,1,34290,0.0009999999999998899
537000,7300,-4393,125705,-4029,-6050,125879,85,19237,356,1,34291,0.0010000000000000009
538000,14431,-1913,126735,-2407,-2413,129762,114,19233,348,0,34292,0.0010000000000000009
539000,13439,6054,127256,9852,4927,126651,114,19235,467,0,34293,0.0010000000000000009
540000,12910,8233,127961,8586,9244,119910,89,19240,365,0,34294,0.0010000000000000009
541001,15328,-10858,123519,120,-10319,129054,74,19234,303,1,34295,0.0010010000000000296
542000,10650,-5310,125221,11009,-8215,127992,117,19234,479,1,34296,0.0009989999999999721
543000,17773,781,128002,5905,1006,126602,83,19234,479,1,34297,0.0010000000000000009
544000,12056,10439,129713,5867,9938,123779,81,19236,340,1,34298,0.0010000000000000009
545000,13653,-1140,129461,3788,-535,133814,81,19234,332,0,34299,0.0010000000000000009
546001,8612,-4354,127413,1011,-2618,125447,93,19231,381,0,34300,0.0010010000000000296
547002,14642,-3035,127731,8954,-4451,130158,74,19239,303,0,34301,0.0010010000000000296
548000,12078,-366,128628,3594,2630,122690,88,19225,360,1,34302,0.0009979999999999434
549002,9388,224,129599,-4598,-2653,129407,74,19225,303,1,34303,0.0010020000000000584
550002,9475,-2874,131525,2937,-1491,132423,79,19241,303,1,34304,0.0010000000000000009
551002,4441,-10027,126005,-455,-15623,132829,102,19233,324,0,34305,0.0010000000000000009
552000,7998,4472,129684,-4967,14734,120337,102,19227,418,0,34306,0.0009979999999999434
553000,9010,11507,128262,6358,1717,131064,91,19237,373,0,34307,0.0010000000000000009
554000,10465,-2322,127170,-18332,1292,122721,69,19238,283,0,34308,0.0010000000000000009
555000,11210,7014,133225,2687,-1942,127683,123,19238,504,1,34309,0.0010000000000000009
556005,2443,-18481,128182,16473,-16697,138566,84,19232,504,1,34310,0.0010050000000000336
557002,-5543,-107,133531,-35745,-2579,127365,86,19236,344,1,34311,0.0009970000000000256
558000,2949,1121,130858,-9929,6075,129702,86,19230,352,0,34312,0.0009979999999999434
559000,5128,27703,131472,4630,26096,114225,109,19233,446,0,34313,0.0010000000000000009
560000,9590,1894,127828,-2838,-6133,131213,84,19235,344,0,34314,0.0010000000000000009
561000,3338,-15734,125630,-14821,-15070,128819,85,19226,348,1,34315,0.0010000000000000009
562000,5138,-9186,128517,824,-8561,135036,106,19226,348,1,34316,0.0010000000000000009
563002,1471,5628,130979,-7393,7485,123025,82,19234,434,1,34317,0.0010020000000000584
564000,754,10408,129504,-10601,5738,128321,82,19236,336,1,34318,0.0009979999999999434
565000,-728,-6392,125368,-11493,-5256,130306,98,19224,401,0,34319,0.0010000000000000009
566000,1975,14984,125926,-9138,17146,116549,92,19240,377,0,34320,0.0010000000000000009
567000,15578,-2002,124814,1323,-4606,129961,74,19233,303,0,34321,0.0010000000000000009
568001,5842,7460,124855,7420,8576,117942,111,19233,303,1,34322,0.0010010000000000296
569000,10753,-7881,128264,-12097,-9344,134029,87,19240,455,1,34323,0.0009989999999999721
570000,2842,2525,127234,1281,4703,121617,87,19238,356,1,34324,0.0010000000000000009
571001,6494,1820,128817,3675,-1976,132355,85,19231,348,0,34325,0.0010010000000000296
572000,5977,-1674,123369,-9957,-212,123497,133,19236,545,0,34326,0.0009989999999999721
573000,6912,16912,127279,-4754,14710,116433,87,19236,356,0,34327,0.0010000000000000009
574000,20024,-4875,124079,10232,-5357,132496,73,19236,356,1,34328,0.0010000000000000009
575000,9423,3139,124623,11622,1872,118031,75,19231,299,1,34329,0.0010000000000000009
576000,14534,-10653,124194,-2394,-11123,135171,75,19231,307,1,34330,0.0010000000000000009
577000,9513,2960,126183,7470,3176,116707,92,19235,377,1,34331,0.0010000000000000009
578000,16524,1561,127813,5570,884,132836,95,19227,389,0,34332,0.0010000000000000009
579000,12002,1564,125538,3290,1594,123713,91,19235,373,0,34333,0.0010000000000000009
580000,12924,5420,126035,7923,5054,120443,74,19235,373,0,34334,0.0010000000000000009
581000,18361,-8372,125418,3088,-8781,131907,98,19238,303,1,34335,0.0010000000000000009
582000,12264,-472,126791,10779,-1757,123506,98,19233,401,1,34336,0.0010000000000000009
583000,13813,-7090,128113,7701,-7438,134448,80,19237,328,1,34337,0.0010000000000000009
584000,8507,10240,127890,-1674,8721,117915,80,19238,328,1,34338,0.0010000000000000009
585000,14967,-7585,127546,3341,-7891,135389,112,19236,459,0,34339,0.0010000000000000009
586000,10018,4285,128116,8643,1966,124796,89,19236,459,0,34340,0.0010000000000000009
587000,14404,3236,128689,-2406,4027,124001,72,19236,365,0,34341,0.0010000000000000009
588002,10779,-4809,128563,1970,-4581,124215,72,19233,295,1,34342,0.0010020000000000584
589004,8294,-6016,130695,8017,-3829,136934,108,19237,442,1,34343,0.0010019999999999474
590000,5491,-11440,128337,-5790,-14624,124873,86,19236,352,1,34344,0.0009959999999999969
591000,8713,11299,131558,-6535,9850,125831,88,19228,360,0,34345,0.0010000000000000009
592000,12742,788,128458,6690,1184,130314,106,19228,434,0,34346,0.0010000000000000009
593002,2891,7119,128905,5775,4271,122946,77,19237,434,0,34347,0.0010019999999999474
594000,13932,-4821,129997,-27018,-9446,132351,85,19236,315,0,34348,0.0009980000000000544
595000,3115,-6577,129025,7696,-7754,129931,85,19230,348,1,34349,0.0010000000000000009
596000,4311,-9417,128871,13819,-9727,135545,77,19234,315,1,34350,0.0010000000000000009
597000,-3949,1456,128641,-24769,7379,121726,83,19235,340,1,34351,0.0010000000000000009
598001,625,13094,128634,-7913,12067,127835,109,19235,446,0,34352,0.0010010000000000296
599000,8297,10485,130513,571,7023,121670,95,19230,446,0,34353,0.0009989999999999721
600001,4080,2946,127400,-5839,-1738,127669,73,19237,389,0,34354,0.0010010000000000296
601000,7373,-10077,129198,-8326,-8153,130325,73,19235,299,1,34355,0.0009989999999999721
602000,767,-2920,127818,1299,-5393,132041,126,19233,516,1,34356,0.0010000000000000009
603000,2821,-4300,129015,-10006,-1933,130625,83,19239,340,1,34357,0.0010000000000000009
604000,-1459,15057,128710,-19972,15136,114734,85,19239,348,1,34358,0.0010000000000000009
605001,8011,5686,128494,-3794,-182,131213,110,19234,348,0,34359,0.0010010000000000296
606001,756,-2378,124036,10126,-1235,126876,85,19225,451,0,34360,0.0010000000000000009
607001,7143,4288,126918,-19709,3306,122765,85,19240,348,0,34361,0.0010000000000000009
608000,9439,8450,125104,2634,8952,119919,84,19226,344,1,34362,0.0009989999999999721
609000,9037,2379,128525,5689,-2067,130289,72,19235,295,1,34363,0.0010000000000000009
610008,10757,-13407,125298,-8412,-10663,133631,86,19232,352,1,34364,0.0010080000000000089
611000,2036,2402,125964,6424,4375,122094,100,19232,352,0,34365,0.0009919999999999929
612000,6758,9123,125984,-11153,8961,123468,96,19224,410,0,34366,0.0010000000000000009
613000,10032,8562,125989,-2162,5662,121304,96,19233,393,0,34367,0.0010000000000000009
614000,17123,-565,125101,11887,-1250,131434,72,19237,295,1,34368,0.0010000000000000009
615000,10172,-2314,124092,11319,-3016,120126,110,19229,451,1,34369,0.0010000000000000009
616000,11476,-1837,124732,-6186,-2033,125607,87,19235,356,1,34370,0.0010000000000000009
617000,12674,-3507,127775,6698,-3698,131304,85,19235,356,1,34371,0.0010000000000000009
618000,14095,6139,126568,12241,7150,123750,111,19230,348,0,34372,0.0010000000000000009
619000,12109,8898,128840,-5570,8177,122203,111,19235,455,0,34373,0.0010000000000000009
620000,12270,-4500,124770,7299,-5403,126709,86,19241,352,0,34374,0.0010000000000000009
621000,17709,-8843,126232,9819,-9023,131507,75,19229,307,1,34375,0.0010000000000000009
622000,11047,-5536,125439,7100,-6526,124325,97,19235,397,1,34376,0.0010000000000000009
623000,13447,2935,128599,1247,2594,123963,80,19235,397,1,34377,0.0010000000000000009
624000,11180,2357,128549,6111,767,128201,86,19235,328,1,34378,0.0010000000000000009
625002,13219,-3304,128276,1957,-3944,131072,86,19224,352,0,34379,0.0010019999999999474
626000,10005,2942,128179,3713,2366,125369,88,19232,360,0,34380,0.0009980000000000544
627000,13237,-2884,126985,5628,-4190,126834,71,19240,291,0,34381,0.0010000000000000009
628000,12132,2182,129298,407,1854,124041,99,19227,405,1,34382,0.0010000000000000009
629000,8787,-10358,129095,1733,-10144,135381,100,19227,405,1,34383,0.0010000000000000009
630000,5652,-617,130266,-1898,-2358,127745,86,19241,410,1,34384,0.0010000000000000009
631001,6162,-1841,128533,-3073,-1293,130544,86,19231,352,0,34385,0.0010009999999999186
632000,8855,6458,129036,-1135,2312,122423,114,19230,467,0,34386,0.0009990000000000832
633000,9874,6580,128907,8051,10506,128878,89,19238,365,0,34387,0.0010000000000000009
634000,9220,-10025,128201,-9608,-14358,133307,72,19228,295,0,34388,0.0010000000000000009
635002,8610,12871,133753,-11841,14120,133764,105,19228,430,1,34389,0.0010019999999999474
636001,4665,-17812,129804,19947,-19248,136918,86,19230,430,1,34390,0.0009989999999999721
637002,-7606,1449,131663,-15993,-899,128400,84,19233,352,1,34391,0.0010010000000000296
638000,4522,-4433,129287,-26450,-6098,127726,84,19227,344,0,34392,0.0009980000000000544
639000,3583,31044,130691,2237,28673,110510,94,19235,385,0,34393,0.0010000000000000009
640000,13641,-633,128196,5781,-14522,138884,78,19237,319,0,34394,0.0010000000000000009
641000,2177,-14281,125162,-15614,-9123,123671,92,19237,377,1,34395,0.0010000000000000009
642000,2266,-5522,128602,-5909,-8713,137135,77,19223,377,1,34396,0.0010000000000000009
643000,1702,1784,129582,-4153,11123,120851,74,19235,315,1,34397,0.0010000000000000009
644000,1019,13652,128867,-8082,1179,129956,74,19238,303,1,34398,0.0010000000000000009
645000,945,-2860,124842,-14512,3696,125468,102,19232,418,0,34399,0.0010000000000000009
646000,722,18276,126502,-6036,17045,113952,94,19239,385,0,34400,0.0010000000000000009
647000,17334,-3721,126863,4246,-7076,133494,75,19239,307,0,34401,0.0010000000000000009
648004,4415,6409,126443,6962,7361,117715,104,19239,307,1,34402,0.0010040000000000049
649000,10265,-7905,128140,-16581,-13990,135005,85,19235,426,1,34403,0.0009959999999999969
650000,3773,4140,127592,2498,8665,120705,85,19236,348,1,34404,0.0010000000000000009
651000,7577,-505,128018,4282,-7608,135611,84,19236,344,0,34405,0.0010000000000000009
652000,6387,128,124627,-8532,7206,117732,119,19237,487,0,34406,0.0010000000000000009
653000,7436,16690,126601,-3091,10266,120521,79,19237,324,0,34407,0.0010000000000000009
654000,20223,-6863,123660,12015,-6410,131883,82,19237,324,1,34408,0.0010000000000000009
655000,9919,2445,125274,10463,1170,120420,77,19229,336,1,34409,0.0009999999999998899
656000,13591,-9575,124211,-2139,-6214,132781,77,19225,315,1,34410,0.0010000000000000009
657000,6115,7911,126412,5886,6737,117728,84,19233,344,1,34411,0.0010000000000000009
658000,17012,-2623,125327,1086,-2291,135699,98,19231,401,0,34412,0.0010000000000000009
659000,12521,4540,127972,7613,6791,117900,92,19237,377,0,34413,0.0010000000000000009
660000,12210,6169,126025,5863,3580,123354,70,19237,377,0,34414,0.0010000000000000009
661002,16864,-7259,126623,-250,-8306,130478,116,19235,287,1,34415,0.0010020000000000584
662000,11716,-6535,126311,15601,-6755,128329,116,19234,475,1,34416,0.0009979999999999434
663000,14243,-1977,129550,6429,-603,129640,83,19236,340,1,34417,0.0010000000000000009
664000,9167,9163,128126,-1657,7413,118892,75,19232,307,0,34418,0.0010000000000000009
665000,14894,-7497,128878,2862,-8518,135579,102,19235,418,0,34419,0.0010000000000000009
666000,10415,2761,128366,10595,3393,123657,83,19235,418,0,34420,0.0010000000000000009
667002,15328,-2521,129959,-4416,-3758,125766,77,19240,340,0,34421,0.0010020000000000584
668000,9693,-1720,128558,8250,-2727,127424,77,19233,315,1,34422,0.0009979999999999434
669000,8614,-11785,128505,4979,-13296,135452,99,19237,405,1,34423,0.0010000000000000009
670000,6491,-4387,128695,-8932,-4513,129133,88,19238,360,1,34424,0.0010000000000000009
671000,10323,10281,130486,-2419,9495,123092,92,19226,377,0,34425,0.0010000000000000009
672001,11090,2758,128702,11590,2462,129581,90,19226,377,0,34426,0.0010010000000000296
673001,1670,4673,128791,-4923,3606,124387,70,19236,369,0,34427,0.0010000000000000009
674003,13159,-8082,128328,-25652,-9492,132909,70,19240,287,1,34428,0.0010020000000000584
675000,2019,-4878,130778,19511,-6676,128276,102,19231,418,1,34429,0.0009969999999999146
676000,2908,-8830,130423,846,-9701,136676,81,19233,332,1,34430,0.0010000000000000009
677000,-4933,6920,130907,-29891,5063,123031,79,19237,324,1,34431,0.0010000000000000009
678000,3456,10948,131041,-7811,11331,126917,115,19237,324,0,34432,0.0010000000000000009
679000,7258,9557,129982,-64,9718,124510,89,19231,471,0,34433,0.0010000000000000009
680000,6959,1483,128942,-5730,2915,121361,89,19237,365,0,34434,0.0010000000000000009
681000,3899,-11644,128350,-9717,-12739,134466,77,19232,315,1,34435,0.0010000000000000009
682000,959,-4052,128157,3098,-6012,134089,125,19240,512,1,34436,0.0010000000000000009
683000,3565,-791,127892,-9706,-3628,121814,84,19234,344,1,34437,0.0010000000000000009
684000,-1046,19542,129248,-17229,17223,118971,86,19234,352,0,34438,0.0010000000000000009
685000,7800,-2775,126517,-11168,-454,135348,98,19228,352,0,34439,0.0010000000000000009
686001,1016,-863,125093,11541,-3718,121463,82,19232,401,0,34440,0.0010010000000000296
687000,6856,5666,125860,-10887,5610,122700,82,19239,336,0,34441,0.0009989999999999721
688000,8290,9134,126025,-8398,9634,119115,94,19233,385,1,34442,0.0010000000000000009
689000,8828,4122,127871,12429,-11357,134958,81,19234,332,1,34443,0.0010000000000000009
690000,8303,-10929,126141,-12732,-6729,127761,86,19234,352,1,34444,0.0010000000000000009
691000,4959,6687,127732,12115,8788,121105,113,19235,352,0,34445,0.0010000000000000009
692000,3798,3301,126595,-1106,1536,128287,94,19227,463,0,34446,0.0010000000000000009
693000,9899,6163,125566,-13921,7590,119541,94,19239,385,0,34447,0.0010000000000000009
694000,16350,1837,124824,12022,-459,129296,70,19235,287,1,34448,0.0010000000000000009
695000,12978,1751,123261,19821,1798,118527,96,19230,393,1,34449,0.0010000000000000009
696000,11695,-3136,125365,-6002,-6614,127317,89,19230,365,1,34450,0.0010000000000000009
697000,10252,-6267,126953,2815,-5214,130970,87,19236,365,1,34451,0.0010000000000000009
698000,15933,5092,127145,8554,7425,124468,101,19229,356,0,34452,0.0010000000000000009
699002,11011,8465,128529,2121,8218,122499,101,19234,414,0,34453,0.0010020000000000584
700000,14533,-987,124937,3526,-2873,126034,80,19237,328,0,34454,0.0009979999999999434
701000,13970,-12330,123606,8401,-11659,133688,84,19224,344,1,34455,0.0010000000000000009
702002,14434,1255,127159,7417,3024,123292,72,19235,295,1,34456,0.0010020000000000584
703000,15716,3252,128496,6459,3465,123792,79,19235,295,1,34457,0.0009979999999999434
704000,11373,2405,128763,6957,-165,129433,100,19240,324,0,34458,0.0010000000000000009
705000,11060,-4611,128379,-4608,-6379,130078,100,19226,410,0,34459,0.0010000000000000009
706000,10653,-2714,127539,10059,-1146,127593,93,19234,381,0,34460,0.0010000000000000009
707000,14430,3298,128622,5240,2175,123651,69,19232,283,0,34461,0.0010000000000000009
708000,10103,74,129231,-4461,-1685,126793,117,19236,479,1,34462,0.0010000000000000009
709000,11287,-6240,130583,1607,-6386,131652,83,19236,479,1,34463,0.0010000000000000009
710000,4445,-2992,129819,5206,-4861,132808,80,19235,340,1,34464,0.0010000000000000009
711001,5828,-10665,125825,-10301,-10491,129375,80,19241,328,0,34465,0.0010010000000000296
712000,9501,17606,130614,1005,18037,114879,121,19234,496,0,34466,0.0009989999999999721
713000,10355,-3323,127523,9763,-6643,137022,83,19238,340,0,34467,0.0010000000000000009
714000,12064,3535,131177,-24857,4320,117452,75,19224,307,1,34468,0.0010000000000000009
715000,5396,-8149,131324,7134,-12185,135521,85,19224,307,1,34469,0.0010000000000000009
716000,-1407,-12694,128889,12931,-13010,135655,86,19230,348,1,34470,0.0010000000000000009
717000,-4533,858,130317,-34626,-1111,129568,86,19236,352,1,34471,0.0010000000000000009
718001,4359,8009,129031,-10226,8507,126489,97,19228,397,0,34472,0.0010010000000000296
719000,5315,27411,127923,5598,26141,113874,95,19237,389,0,34473,0.0009989999999999721
720000,10590,-8707,126962,-5267,-9335,134029,74,19235,303,0,34474,0.0010000000000000009
721000,2777,-11401,124941,-13088,-12766,126454,104,19235,303,1,34475,0.0010000000000000009
722000,3434,-5354,131213,1409,-6491,136799,83,19228,426,1,34476,0.0010000000000000009
723000,1169,9709,130269,-9492,8051,121347,83,19237,340,1,34477,0.0010000000000000009
724002,153,2731,128672,-5740,2057,133057,81,19233,332,0,34478,0.0010019999999999474
725000,-1610,5358,126294,-14976,2469,124983,121,19236,496,0,34479,0.0009980000000000544
726000,6248,11383,127179,-7311,13265,116669,90,19232,369,0,34480,0.0010000000000000009
727000,14559,-250,124741,2233,-1370,129797,75,19232,369,0,34481,0.0010000000000000009
728000,5135,4696,127139,8947,5380,119073,90,19231,307,1,34482,0.0010000000000000009
729000,9652,-10054,124243,-13558,-11400,127578,90,19234,369,1,34483,0.0010000000000000009
730000,2922,8758,128369,-533,7246,125938,89,19235,365,1,34484,0.0010000000000000009
731002,8096,-7054,124666,6471,-6682,131995,92,19224,377,0,34485,0.0010019999999999474
732000,5246,11535,126063,-12800,7578,111123,109,19232,446,0,34486,0.0009980000000000544
733000,12502,6586,126403,314,10489,131466,75,19232,307,0,34487,0.0010000000000000009
734000,19946,1431,123764,8107,-2863,120140,89,19240,307,1,34488,0.0010000000000000009
735001,9090,-993,125205,12735,-6776,130840,83,19230,365,1,34489,0.0010010000000000296
736000,14384,-7013,125380,-1760,585,122788,83,19232,340,1,34490,0.0009989999999999721
737000,7434,11014,127265,4987,6905,123782,86,19236,352,1,34491,0.0010000000000000009
738001,16498,-2959,128294,-3362,-2979,132487,111,19228,455,0,34492,0.0010010000000000296
739002,11176,7571,125744,12009,7388,114460,89,19228,365,0,34493,0.0010009999999999186
740000,14870,-368,127009,1043,-4557,131799,70,19234,365,0,34494,0.0009980000000000544
741000,17640,-6928,126398,7570,-6199,125126,123,19232,287,1,34495,0.0010000000000000009
742000,11040,-7102,127778,14525,-9895,134734,123,19236,504,1,34496,0.0010000000000000009
743000,14279,-508,128525,-1345,4625,122658,84,19236,344,1,34497,0.0010000000000000009
744000,10521,6582,128047,3084,1770,125178,82,19229,336,0,34498,0.0010000000000000009
745001,14513,-5721,127704,4891,-3239,133146,97,19234,397,0,34499,0.0010009999999999186
746000,9611,4110,127952,7493,6659,121084,79,19234,397,0,34500,0.0009990000000000832
747000,14081,-1511,128773,-2969,-3280,129998,85,19240,324,0,34501,0.0010000000000000009
748000,10019,-4100,127826,11123,-4259,126443,85,19228,348,1,34502,0.0010000000000000009
749000,7850,-10853,130809,-2187,-13089,136894,77,19239,315,1,34503,0.0010000000000000009
750000,6421,-4629,128746,-8647,-457,123869,82,19233,336,1,34504,0.0010000000000000009
751000,9895,12008,131140,-528,8690,126301,97,19229,397,0,34505,0.0010000000000000009
752000,10139,898,128994,15057,876,129217,92,19229,397,0,34506,0.0010000000000000009
753000,1115,6064,129161,-14410,3998,122945,68,19239,377,0,34507,0.0010000000000000009
754000,14549,-9612,129311,-22255,-10168,132908,68,19237,279,1,34508,0.0010000000000000009
755000,1189,-4344,131616,29573,-6880,129543,115,19229,471,1,34509,0.0010000000000000009
756000,2045,-12331,130142,-9924,-12450,137219,84,19237,344,1,34510,0.0010000000000000009
757000,-5428,5640,132397,-31919,5771,118730,81,19232,332,1,34511,0.0010000000000000009
758000,3609,12839,129699,-1074,10412,130414,112,19232,332,0,34512,0.0010000000000000009
759000,8206,7336,127025,174,6202,121146,85,19235,459,0,34513,0.0010000000000000009
760000,6690,2257,127645,-10582,-744,125652,85,19237,348,0,34514,0.0010000000000000009
761000,3068,-15383,126625,-3655,-16472,135873,80,19229,328,1,34515,0.0010000000000000009
762002,1485,987,130278,145,128,128454,114,19236,467,1,34516,0.0010019999999999474
763000,505,-4680,127698,-11047,-5137,132753,83,19238,340,1,34517,0.0009980000000000544
764002,2228,24856,128988,-21730,23519,110436,92,19238,340,0,34518,0.0010019999999999474
765000,4421,-5033,125972,1975,-7314,136799,92,19232,377,0,34519,0.0009980000000000544
766000,851,-828,124030,5918,-1549,124626,92,19229,377,0,34520,0.0010000000000000009
767000,8999,8763,126783,-22862,8393,120842,75,19240,307,0,34521,0.0010000000000000009
768000,8021,7174,126674,11954,6769,121252,105,19231,430,1,34522,0.0010000000000000009
769003,8733,1950,128400,-415,1640,127976,93,19234,381,1,34523,0.0010029999999999761
770000,7532,-17477,125619,-14994,-18035,136905,87,19234,381,1,34524,0.0009970000000000256
771000,2807,14592,126742,14582,12369,115221,123,19231,356,0,34525,0.0010000000000000009
772000,6987,2615,125828,-9248,3096,129421,123,19233,504,0,34526,0.0010000000000000009
773000,12381,9391,125618,-9900,7926,117072,89,19236,365,0,34527,0.0010000000000000009
774002,18649,-2757,125032,16309,-1625,133958,74,19238,303,1,34528,0.0010019999999999474
775000,10175,-1563,121956,13964,-4710,120659,85,19230,348,1,34529,0.0009979999999999434
776000,12609,-171,126811,-7119,1768,136654,89,19230,365,1,34530,0.0010000000000000009
777000,12593,-9737,124616,6905,-12838,126129,89,19235,365,1,34531,0.0010000000000000009
778000,14464,16558,128742,9469,15396,119511,89,19229,365,0,34532,0.0010000000000000009
779000,7683,6184,125755,-1947,4652,126372,89,19234,365,0,34533,0.0010000000000000009
780000,16245,-1673,124000,5070,-3620,125747,73,19236,299,0,34534,0.0010000000000000009
781000,13054,-11494,126335,10259,-8534,134311,91,19230,373,1,34535,0.0010000000000000009
782001,17302,1191,129805,4438,3810,119460,80,19230,328,1,34536,0.0010010000000000296
783001,12035,4401,128740,7587,2465,127427,81,19236,328,1,34537,0.0010000000000000009
784001,12661,-2425,129006,7070,-5850,131271,104,19234,332,0,34538,0.0010000000000000009
785000,12153,-1917,126324,2305,-1109,125840,104,19230,426,0,34539,0.0009989999999999721
786000,9439,-1822,129165,12202,-3574,129240,88,19238,360,0,34540,0.0010000000000000009
787000,16468,2563,128009,-507,3727,119877,72,19234,295,0,34541,0.0010000000000000009
788000,8327,-559,130082,-879,-6941,133090,122,19235,500,1,34542,0.0010000000000000009
789000,11828,-10596,128712,765,-7819,132784,86,19235,500,1,34543,0.0010000000000000009
790001,3797,-186,130343,-1810,2956,127067,82,19239,352,1,34544,0.0010010000000000296
791000,8180,-7138,124709,-9142,-3255,130760,82,19229,336,0,34545,0.0009989999999999721
792000,9180,15981,131279,7573,17852,118546,110,19230,451,0,34546,0.0010000000000000009
793001,10030,-7672,125953,-1765,-13581,140089,76,19237,311,0,34547,0.0010010000000000296
794000,11479,2437,132079,-21129,7226,114696,85,19225,348,1,34548,0.0009989999999999721
795000,5096,-405,131883,14687,-10903,136530,81,19225,348,1,34549,0.0010000000000000009
796000,-902,-13609,130412,2265,-12312,135278,86,19231,332,1,34550,0.0010000000000000009
797000,-6041,-818,129203,-31554,-4048,129847,86,19232,352,1,34551,0.0010000000000000009
798000,3926,5304,129788,-10358,11882,124633,101,19232,414,0,34552,0.0010000000000000009
799001,5188,31215,128202,10194,26366,112248,93,19235,381,0,34553,0.0010010000000000296
800000,10975,-12770,126681,-11077,-17819,138089,75,19233,307,0,34554,0.0009989999999999721
801000,1401,-10055,124899,-11364,-8962,124269,124,19233,307,1,34555,0.0010000000000000009
802000,4621,-10291,129434,1922,-10191,135989,85,19233,508,1,34556,0.0010000000000000009
803000,2485,10899,129831,-7248,12078,119014,85,19237,348,1,34557,0.0010000000000000009
804000,900,4054,127267,-7843,-1935,132394,79,19232,324,0,34558,0.0010000000000000009
805000,-1631,870,124501,-17503,1952,124741,112,19236,459,0,34559,0.0010000000000000009
806000,6401,17207,127993,-2989,14885,115324,87,19236,356,0,34560,0.0010000000000000009
807000,15045,-3896,124659,6855,-4157,132783,84,19236,356,1,34561,0.0010000000000000009
808000,4401,7984,128005,3387,6685,117141,79,19225,344,1,34562,0.0010000000000000009
809000,7315,-12720,123823,-17010,-14352,137853,79,19236,324,1,34563,0.0010000000000000009
810000,3399,9275,129122,4035,9444,119034,91,19232,373,1,34564,0.0010000000000000009
811000,8918,-5333,125062,5268,-7065,135314,98,19223,401,0,34565,0.0010000000000000009
812000,4856,10563,126694,-11154,11271,116341,95,19234,389,0,34566,0.0010000000000000009
813000,13532,5094,125822,106,4281,122660,73,19234,389,0,34567,0.0010000000000000009
814002,17939,-4745,124047,12336,-5514,132644,101,19235,299,1,34568,0.0010020000000000584
815003,9364,5271,125081,9251,3063,118072,101,19236,414,1,34569,0.0010009999999999186
816000,12958,-10243,125277,-1126,-10753,134466,84,19230,344,1,34570,0.0009970000000000256
817002,8905,11197,126489,6436,9814,117141,84,19235,344,0,34571,0.0010020000000000584
818000,16875,-6075,127482,1318,-5556,136299,113,19233,463,0,34572,0.0009979999999999434
819000,10274,10767,125702,7150,8706,115403,89,19233,463,0,34573,0.0010000000000000009
820001,14568,-596,126888,6585,1873,124996,73,19240,365,0,34574,0.0010010000000000296
821000,16076,-10082,125454,-102,-11639,132205,73,19232,299,1,34575,0.0009989999999999721
822000,13846,-4815,128440,16159,-4321,127080,99,19236,405,1,34576,0.0010000000000000009
823000,12326,-831,128749,7000,-3365,121018,78,19240,319,1,34577,0.0010000000000000009
824000,13611,10198,129279,-1865,10406,125558,82,19229,336,0,34578,0.0010000000000000009
825000,12067,-6867,127117,4300,-9328,134451,89,19229,365,0,34579,0.0010000000000000009
826000,12077,7373,129476,8452,5814,117479,75,19230,365,0,34580,0.0010000000000000009
827000,13207,-475,127906,-3505,-1073,130149,93,19240,307,0,34581,0.0010000000000000009
828000,8647,-5139,130175,6063,-7689,129795,93,19224,381,1,34582,0.0010000000000000009
829001,9488,-14053,126795,5948,-15349,135506,78,19243,319,1,34583,0.0010010000000000296
830000,5301,3009,132051,-7530,8902,121710,77,19236,315,1,34584,0.0009989999999999721
831000,13065,6819,127983,-6273,2723,127361,111,19236,455,0,34585,0.0010000000000000009
832000,5109,2808,130202,9391,3883,128833,91,19231,455,0,34586,0.0010000000000000009
833003,6636,276,129022,-23186,-3131,126068,69,19237,373,0,34587,0.0010029999999999761
834000,10930,-7170,129726,-2699,-7361,130031,69,19235,283,1,34588,0.0009970000000000256
835000,3583,-4524,130968,17265,-5730,133333,110,19239,451,1,34589,0.0010000000000000009
836000,1208,-5704,130724,-12139,-5010,130275,82,19237,336,1,34590,0.0010000000000000009
837000,-3145,7634,129497,-22004,10114,123729,87,19228,356,0,34591,0.0010000000000000009
838000,8388,8435,130798,-4749,6623,127712,106,19228,356,0,34592,0.0010000000000000009
839000,3997,8670,126400,7690,7243,122665,81,19232,434,0,34593,0.0010000000000000009
840002,7557,-3280,128696,-19473,-6922,128498,81,19239,332,0,34594,0.0010019999999999474
841000,1154,-9699,127017,-1559,-9925,131864,86,19223,352,1,34595,0.0009980000000000544
842000,1124,-5596,130174,2605,-5737,134258,87,19238,356,1,34596,0.0010000000000000009
843000,1714,7023,128961,-15541,10223,119814,78,19236,319,1,34597,0.0010000000000000009
844002,1622,14990,128119,-18363,10772,121451,102,19236,319,0,34598,0.0010019999999999474
845000,5678,-917,126167,2733,-4323,131088,96,19228,418,0,34599,0.0009980000000000544
846000,1221,-442,126173,5294,-1493,125219,96,19232,393,0,34600,0.0010000000000000009
847002,6359,674,125827,-20321,1858,121244,74,19237,303,1,34601,0.0010019999999999474
848000,5534,7810,127634,6610,6135,121306,114,19237,467,1,34602,0.0009980000000000544
849000,8802,-5214,124842,-251,-8749,135638,85,19232,348,1,34603,0.0010000000000000009
850000,6611,-4507,126062,-10898,-3571,124760,85,19232,348,1,34604,0.0010000000000000009
851000,6069,5645,126228,8657,4793,123064,129,19228,348,0,34605,0.0010000000000000009
852000,5675,6407,126208,-1895,6024,124395,129,19236,528,0,34606,0.0010000000000000009
853000,13330,3228,125763,-10716,3146,123978,85,19235,348,0,34607,0.0010000000000000009
854000,16828,1898,124485,14416,906,127614,77,19231,315,1,34608,0.0010000000000000009
855000,11298,561,122465,17761,-1783,120936,67,19231,274,1,34609,0.0010000000000000009
856000,10747,-2815,126300,-10833,-3597,125957,88,19231,274,1,34610,0.0010000000000000009
857000,12639,-1753,126869,7656,-1703,130446,97,19235,360,0,34611,0.0010000000000000009
858000,14473,8094,128305,9301,7798,123291,97,19231,397,0,34612,0.0010000000000000009
859000,10505,11342,128214,1324,10312,119754,92,19239,377,0,34613,0.0010000000000000009
860000,16376,-9707,125300,4447,-9405,129902,70,19237,287,0,34614,0.0010000000000000009
861000,13482,-6702,126431,13295,-8042,128702,105,19232,430,1,34615,0.0010000000000000009
862000,17034,988,128201,4587,1094,126670,78,19232,430,1,34616,0.0010000000000000009
863000,12871,3761,127808,5631,2804,122548,77,19233,319,1,34617,0.0010000000000000009
864000,11905,-189,128483,7720,-1258,130421,77,19234,315,0,34618,0.0010000000000000009
865002,12490,-2722,126978,-6936,-4852,129722,110,19235,451,0,34619,0.0010019999999999474
866000,11843,618,127951,12841,200,125108,86,19238,352,0,34620,0.0009980000000000544
867000,15368,-1254,127864,6057,-2303,127274,74,19232,303,1,34621,0.0010000000000000009
868000,9589,-130,129425,-3248,458,123980,107,19232,438,1,34622,0.0010000000000000009
869000,8158,-6511,127204,463,-11691,136195,87,19236,438,1,34623,0.0010000000000000009
870000,3894,4513,131357,1421,3546,127892,90,19240,356,1,34624,0.0010000000000000009
871000,7742,-7125,126625,-8580,-10856,124346,90,19222,369,0,34625,0.0010000000000000009
872001,10083,19118,135500,3926,18161,125054,97,19233,397,0,34626,0.0010009999999999186
873000,11843,-11409,125776,5445,-7449,137109,72,19240,295,0,34627,0.0009990000000000832
874000,9299,2567,132714,-19959,-998,115481,95,19240,389,1,34628,0.0010000000000000009
875001,8010,-6094,129118,2663,-18307,142660,84,19232,389,1,34629,0.0010009999999999186
876003,-5699,-9047,130514,15344,-2555,127039,84,19237,344,1,34630,0.0010020000000000584
877000,-1593,-1905,128739,-31812,-5240,135558,84,19237,344,0,34631,0.0009970000000000256
878000,2701,9301,129103,-15598,23121,115040,114,19232,467,0,34632,0.0010000000000000009
879000,5502,28825,127840,7769,15004,121498,93,19234,381,0,34633,0.0010000000000000009
880002,10772,-17900,126606,-16379,-16641,134460,73,19234,299,0,34634,0.0010019999999999474
881000,1840,-6343,124862,-5921,-2315,126381,139,19236,299,1,34635,0.0009980000000000544
882001,6293,-10103,130787,-2682,-6790,135762,83,19238,569,1,34636,0.0010009999999999186
883000,349,14889,128305,-8864,17485,115376,83,19235,340,1,34637,0.0009990000000000832
884000,2864,-2271,129528,-10030,-10138,140140,80,19234,328,0,34638,0.0010000000000000009
885000,-2674,6129,124341,-11139,11913,113711,106,19237,434,0,34639,0.0010000000000000009
886001,8137,15287,128441,-4195,4999,125809,82,19233,336,0,34640,0.0010009999999999186
887000,12821,-6540,123141,11446,-3034,126362,91,19233,336,1,34641,0.0009990000000000832
888000,3536,6718,128360,-4529,2013,123001,78,19233,373,1,34642,0.0010000000000000009
889000,8456,-11123,124594,-10586,-8624,133984,78,19233,319,1,34643,0.0010000000000000009
890000,2230,11466,129174,8457,9791,119034,87,19236,356,1,34644,0.0010000000000000009
891000,10801,-8154,124316,-2861,-9909,137259,104,19225,426,0,34645,0.0010000000000000009
892000,5727,6749,126078,-7391,13057,109078,93,19238,381,0,34646,0.0010000000000000009
893000,17615,5431,125073,4828,-835,131534,71,19238,381,0,34647,0.0009999999999998899
894000,14271,-5745,122067,12598,-4354,124330,100,19235,291,1,34648,0.0010000000000000009
895000,13499,1691,123954,3871,-2516,125970,100,19238,410,1,34649,0.0010000000000000009
896000,9394,-5932,124450,2112,-4458,127768,89,19229,365,1,34650,0.0010000000000000009
897000,10740,13253,128255,4655,12215,120752,88,19227,360,0,34651,0.0010000000000000009
898000,15105,-8160,126696,-1036,-8431,136197,106,19234,434,0,34652,0.0010000000000000009
899000,9733,12827,125208,10822,12782,112699,82,19234,434,0,34653,0.0010000000000000009
900000,16299,-4795,126754,3098,-6543,132085,82,19238,336,0,34654,0.0010000000000000009
901000,13954,-5888,125769,6582,-5745,125437,82,19227,336,1,34655,0.0010000000000000009
902001,14648,-6637,128789,11561,-7669,133397,88,19234,360,1,34656,0.0010010000000000296
903000,10333,2281,128849,2783,2013,123372,83,19236,340,1,34657,0.0009989999999999721
904000,13262,5623,128893,-2173,3370,124566,92,19229,377,0,34658,0.0010000000000000009
905000,11193,-4819,127768,8424,-6013,133765,89,19229,377,0,34659,0.0010000000000000009
906000,12267,6610,128207,4054,5376,120778,73,19240,365,0,34660,0.0010000000000000009
907002,14121,-3082,127649,-2254,-3976,129268,73,19239,299,1,34661,0.0010020000000000584
908000,7201,-2912,128932,8891,-4050,126305,111,19232,455,1,34662,0.0009979999999999434
909000,9091,-12726,127314,-856,-14652,137021,84,19239,344,1,34663,0.0010000000000000009
910000,4488,4372,131295,-9343,3576,123958,81,19235,332,1,34664,0.0010000000000000009
911000,13145,4235,128033,970,3729,127451,121,19235,496,0,34665,0.0010000000000000009
912000,4581,5672,129143,11453,4737,127469,83,19233,496,0,34666,0.0010000000000000009
913000,9343,80,131464,-16273,370,125309,74,19234,340,0,34667,0.0010000000000000009
914000,9293,-5441,130967,-12719,-6055,132179,74,19227,303,1,34668,0.0010000000000000009
915002,3482,-5412,131582,16000,-7981,132492,109,19230,446,1,34669,0.0010020000000000584
916000,-2065,-2912,131214,-7184,-4499,129608,92,19235,377,1,34670,0.0009979999999999434
917000,-1404,9950,128583,-23824,7665,127542,93,19235,381,0,34671,0.0010000000000000009
918000,7731,7708,130048,-8969,8655,125834,92,19229,381,0,34672,0.0010000000000000009
919001,4196,7292,125981,6519,6818,121757,77,19237,377,0,34673,0.0010010000000000296
920001,8048,-5432,128544,-12448,-3427,130617,77,19236,315,0,34674,0.0010000000000000009
921000,1523,-7886,128434,-6615,-10496,132704,100,19224,410,1,34675,0.0009989999999999721
922001,2590,-7507,129472,3988,-3312,133041,82,19237,336,1,34676,0.0010010000000000296
923000,1439,11803,129079,-13874,15669,115732,77,19237,315,1,34677,0.0009989999999999721
924003,1963,13372,128218,-13528,4661,126392,110,19235,315,0,34678,0.0010029999999999761
925002,5069,-1280,125067,-8128,-507,129772,91,19231,451,0,34679,0.0009990000000000832
926000,3299,-101,125849,36,-457,128316,91,19232,373,0,34680,0.0009979999999999434
927000,8405,7009,126225,-10046,8998,117956,75,19230,307,1,34681,0.0010000000000000009
928000,6300,6329,127310,5056,2432,126624,101,19235,414,1,34682,0.0010000000000000009
929000,8705,-6597,126320,-4906,-7589,134701,91,19234,373,1,34683,0.0010000000000000009
930000,7249,-2043,127346,-2611,-692,122976,89,19234,373,1,34684,0.0010000000000000009
931000,6506,4707,126393,5419,4988,124529,118,19232,365,0,34685,0.0010000000000000009
932000,6569,7746,126574,-4644,5256,121697,118,19237,483,0,34686,0.0010000000000000009
933001,14085,506,124967,-6253,-333,128779,79,19236,324,0,34687,0.0010010000000000296
934000,14917,3386,126314,15317,3604,122733,84,19236,344,1,34688,0.0009989999999999721
935000,13863,1005,122854,13397,-2490,123499,76,19236,311,1,34689,0.0010000000000000009
936000,9011,-3123,125743,-9980,-3532,126038,84,19236,311,1,34690,0.0010000000000000009
937000,12881,-6063,125347,6691,-5330,130012,104,19237,344,0,34691,0.0010000000000000009
938000,13269,5115,128414,7472,8593,123257,104,19228,426,0,34692,0.0010000000000000009
939000,12119,11303,127382,4501,5889,120524,93,19237,381,0,34693,0.0010000000000000009
940000,12839,-12119,124642,5222,-13305,132652,70,19233,287,0,34694,0.0010000000000000009
941000,13955,-4343,126311,8757,-4122,126837,121,19235,496,1,34695,0.0010000000000000009
942000,16133,-2750,127072,3901,-2404,129199,81,19235,496,1,34696,0.0010000000000000009
943000,12661,10953,129228,6922,10740,119088,77,19236,332,1,34697,0.0010000000000000009
944000,12025,-3109,127607,3990,-6247,133827,77,19234,315,0,34698,0.0010000000000000009
945001,11871,-4504,126552,-2247,-4974,127486,100,19232,410,0,34699,0.0010010000000000296
946002,12613,2495,127912,13556,1434,125670,79,19238,324,0,34700,0.0010010000000000296
947000,14053,2909,129055,111,2730,125597,81,19226,332,1,34701,0.0009979999999999434
948003,8154,-3971,129759,-5950,-5476,126237,77,19226,332,1,34702,0.0010029999999999761
949000,7180,-6596,130878,6573,-8505,136322,81,19236,315,1,34703,0.0009970000000000256
950000,3781,-2494,129269,-4908,-3625,128735,81,19234,332,1,34704,0.0010000000000000009
951000,8475,-737,129619,-4520,153,124033,93,19227,381,0,34705,0.0010000000000000009
952000,11207,21147,131068,8004,19695,122903,91,19236,373,0,34706,0.0010000000000000009
953000,10341,-11563,125872,-4281,-12575,134036,67,19233,274,0,34707,0.0010000000000000009
954000,7219,5550,131235,-21431,4257,120094,109,19233,274,1,34708,0.0010000000000000009
955000,8185,-17004,127628,20608,-19615,140109,90,19228,446,1,34709,0.0010000000000000009
956000,-8922,-1569,130822,-3932,-4352,129296,90,19238,369,1,34710,0.0010000000000000009
957000,3046,-4158,128918,-33477,-5015,133631,86,19232,352,0,34711,0.0010000000000000009
958000,324,22172,129742,-4666,20304,116840,121,19232,496,0,34712,0.0010000000000000009
959000,10940,20041,128126,7919,20172,120646,89,19234,365,0,34713,0.0010000000000000009
960001,7374,-11861,126445,-9438,-12353,132526,80,19234,328,0,34714,0.0010010000000000296
961000,2147,-9949,128122,-7735,-11940,129466,128,19231,328,1,34715,0.0009989999999999721
962000,5004,-3274,132220,-2271,-4898,134334,86,19233,524,1,34716,0.0010000000000000009
963000,-1106,16812,130784,-6801,15323,118106,86,19238,352,1,34717,0.0010000000000000009
964000,3177,-8090,126795,-10903,-6653,130981,91,19227,373,0,34718,0.0010000000000000009
965000,-2031,12989,124865,-12077,8036,114531,93,19234,381,0,34719,0.0010000000000000009
966000,14056,3644,126098,-4511,6338,130331,77,19234,315,0,34720,0.0010000000000000009
967000,9452,4507,124856,10042,1684,118488,100,19234,315,1,34721,0.0010000000000000009
968000,5823,-5147,126982,-1865,-705,135772,79,19231,410,1,34722,0.0010000000000000009
969000,7005,-3768,125905,-14621,4664,121022,79,19235,324,1,34723,0.0010000000000000009
970000,3271,7674,128114,8543,1427,131239,83,19233,340,1,34724,0.0010000000000000009
971000,10763,-4629,123156,-2379,5356,121796,119,19235,487,0,34725,0.0010000000000000009
972000,2939,15429,126607,-8001,12724,116364,90,19235,369,0,34726,0.0010000000000000009
973000,21053,-3397,122978,-857,-5181,132720,71,19238,369,0,34727,0.0010000000000000009
974001,10909,3091,126241,14827,1705,119492,83,19230,291,1,34728,0.0010010000000000296
975000,13830,-9594,124252,-2316,-13062,135953,83,19235,340,1,34729,0.0009989999999999721
976002,7614,4721,126321,3273,8550,116529,87,19229,356,1,34730,0.0010019999999999474
977000,11414,6068,127682,3777,128,132716,89,19229,365,0,34731,0.0009980000000000544
978000,16105,-202,127068,5028,4259,121914,94,19236,385,0,34732,0.0010000000000000009
979000,9702,8702,125798,10396,3914,121350,78,19236,385,0,34733,0.0010000000000000009
980000,19169,-9015,127129,-238,-8613,131442,89,19240,319,0,34734,0.0010000000000000009
981000,12051,-2317,126300,12695,-5918,126221,89,19227,365,1,34735,0.0010000000000000009
982000,15803,-15170,129336,6775,-8469,136005,73,19238,299,1,34736,0.0010000000000000009
983001,9635,10431,127697,-319,8920,116952,76,19236,311,1,34737,0.0010009999999999186
984000,12969,-3591,124928,-7,-8346,135093,103,19231,422,0,34738,0.0009990000000000832
985000,13388,1132,127222,11954,3179,124675,91,19231,422,0,34739,0.0010000000000000009
986000,11636,4834,128107,-2338,2944,124659,71,19232,373,0,34740,0.0010000000000000009
987000,14462,-876,129235,774,-1617,127726,71,19233,291,1,34741,0.0010000000000000009
988001,3904,-6127,128887,10055,-8208,131550,127,19237,520,1,34742,0.0010009999999999186
989000,9229,-12516,127426,-6214,-11834,134927,81,19236,332,1,34743,0.0009990000000000832
990000,5994,8952,131534,-6388,10217,120168,83,19234,340,1,34744,0.0010000000000000009
991000,12634,2426,129675,7997,1966,129460,110,19234,340,0,34745,0.0010000000000000009
992000,5405,9463,129064,3106,7397,124171,80,19235,451,0,34746,0.0010000000000000009
993000,11607,-6454,132137,-21342,-9286,129813,80,19234,328,0,34747,0.0010000000000000009
994001,5132,-5773,130171,4347,-8063,129599,78,19227,319,1,34748,0.0010009999999999186
995000,4306,-7565,129492,11534,-10005,135157,82,19230,336,1,34749,0.0009990000000000832
996000,-4522,-264,128135,-20150,-1885,126476,87,19231,356,1,34750,0.0010000000000000009
997000,2739,10545,127228,-18243,9318,126071,104,19231,356,0,34751,0.0010000000000000009
998000,7152,8064,127696,-742,7963,127223,96,19230,426,0,34752,0.0010000000000000009
999002,4497,9263,128498,2583,8013,119613,96,19239,393,0,34753,0.0010019999999999474
1000003,8460,-10663,127278,-16573,-11281,132462,76,19237,311,0,34754,0.0010010000000000296
1001003,2400,-9212,129099,4566,-10702,132502,117,19229,479,1,34755,0.0009999999999998899
1002000,2003,-4530,127964,-6374,-5793,133807,90,19237,369,1,34756,0.0009970000000001367
1003003,-619,17081,129738,-14862,15916,116645,81,19237,332,1,34757,0.0010029999999998651
1004000,1993,12379,127852,-15457,11596,124752,117,19233,332,0,34758,0.0009970000000001367
1005000,4336,210,126284,-3754,-1061,130604,91,19231,479,0,34759,0.0009999999999998899
1006000,4469,2498,127055,4103,791,123010,91,19235,373,0,34760,0.001000000000000112
1007000,8552,5601,127208,-9871,5516,122977,81,19231,332,1,34761,0.0009999999999998899
1008000,9389,2210,126420,3244,3071,123786,79,19236,324,1,34762,0.001000000000000112
1009000,10118,-8599,125673,6925,-8715,134913,81,19236,332,1,34763,0.0009999999999998899
1010000,5014,4818,126425,-13940,2718,122120,91,19236,332,1,34764,0.001000000000000112
1011008,9509,3340,127656,-8017,2669,129040,92,19224,373,0,34765,0.0010079999999998979
1012003,3385,3810,124896,20824,2096,124200,92,19237,377,0,34766,0.0009950000000000792
1013000,12361,1290,124148,-10687,831,125127,73,19236,299,0,34767,0.0009969999999999146
1014000,12177,4829,124504,-6332,2924,119263,101,19237,414,1,34768,0.001000000000000112
1015001,19109,4119,125243,24441,3816,128441,86,19237,352,1,34769,0.0010010000000000296
1016000,14623,-4306,124938,5879,-1339,126397,82,19231,352,1,34770,0.0009989999999999721
1017000,9218,45,128196,1317,-3357,128140,113,19235,336,0,34771,0.0009999999999998899
1018003,11374,-4389,126828,-201,-591,128673,113,19232,463,0,34772,0.0010030000000000872
1019000,11370,7229,129350,8081,6976,123277,91,19238,373,0,34773,0.0009969999999999146
1020000,16500,-1837,126674,1582,-5710,128640,75,19235,307,1,34774,0.001000000000000112
1021000,10492,-2271,123349,11714,-2673,123502,107,19232,438,1,34775,0.0009999999999998899
1022000,17388,-3635,126409,1711,-2853,128180,82,19232,438,1,34776,0.001000000000000112
1023000,15201,-248,127681,12252,-831,126832,83,19236,336,1,34777,0.0009999999999998899
1024000,14245,5053,128903,852,3966,127054,83,19230,340,0,34778,0.001000000000000112
1025000,9621,1062,128985,-1905,-1726,127423,94,19237,385,0,34779,0.0009999999999998899
1026000,10937,-4191,127403,6320,-4485,130465,75,19235,307,0,34780,0.001000000000000112
1027000,11101,-8563,127902,3971,-6122,130338,93,19229,381,1,34781,0.0009999999999998899
1028000,8119,-1715,128098,-4851,-877,124443,80,19229,381,1,34782,0.001000000000000112
1029000,10333,4484,131463,454,1665,127853,80,19236,328,1,34783,0.0009999999999998899
1030000,8078,-6953,126854,4269,-9563,134046,80,19235,328,0,34784,0.001000000000000112
1031000,8270,7092,130948,-2180,10486,118348,107,19226,438,0,34785,0.0009999999999998899
1032000,5773,4712,127556,800,-3485,137588,91,19235,373,0,34786,0.001000000000000112
1033000,10163,-6390,129454,-16367,-2162,122027,70,19239,287,0,34787,0.0009999999999998899
1034000,10020,4513,132505,1257,5,129038,117,19239,287,1,34788,0.001000000000000112
1035000,4704,-12045,130122,14254,-12625,136243,85,19237,479,1,34789,0.0009999999999998899
1036000,-6013,-2442,129133,-26248,-4944,126574,85,19234,348,1,34790,0.001000000000000112
1037000,4510,922,130558,-15286,2639,131898,85,19229,348,0,34791,0.0009999999999998899
1038000,4636,29578,129330,2057,28697,109330,105,19235,430,0,34792,0.001000000000000112
1039000,8456,-55,129936,1994,-5470,134688,82,19238,336,0,34793,0.0009999999999998899
1040000,2924,-11094,124908,-18509,-11960,125893,87,19238,336,0,34794,0.001000000000000112
1041000,3022,-12729,129793,1325,-14113,136828,101,19227,356,1,34795,0.0009999999999998899
1042000,2304,8785,129953,-8032,9330,122548,101,19237,414,1,34796,0.001000000000000112
1043000,-32,8170,130110,-8665,5462,126675,86,19234,352,1,34797,0.0009999999999998899
1044000,181,-213,125683,-16096,-1263,129770,100,19229,410,0,34798,0.001000000000000112
1045000,1720,15721,127004,-5540,13953,115967,95,19241,389,0,34799,0.0009999999999998899
1046000,13039,-8204,124150,1808,-9258,133146,77,19241,389,0,34800,0.001000000000000112
1047000,7526,8856,127337,4797,8248,117611,118,19239,315,1,34801,0.0009999999999998899
1048000,8543,-8105,125915,-8092,-7911,133103,118,19238,483,1,34802,0.001000000000000112
1049000,7387,13328,129336,-2544,13013,119291,85,19233,348,1,34803,0.0009999999999998899
1050000,5402,-3242,126379,10530,-4100,136582,83,19232,340,1,34804,0.001000000000000112
1051001,8670,2012,125518,-11631,19,122911,128,19235,524,0,34805,0.0010009999999998076
1052000,6617,13675,126971,-2940,13433,116240,85,19235,348,0,34806,0.0009990000000001942
1053000,20116,-5357,125180,8030,-5315,134786,75,19236,348,0,34807,0.0009999999999998899
1054000,9791,1474,124443,10846,1422,117497,87,19224,307,1,34808,0.001000000000000112
1055001,11699,-8300,125116,730,-8964,133571,87,19230,356,1,34809,0.0010009999999998076
1056000,10049,10764,126338,822,9040,115266,95,19233,389,1,34810,0.0009990000000001942
1057000,13644,-3775,127317,9529,-2059,134082,96,19230,393,0,34811,0.0009999999999998899
1058000,15241,3985,126665,-2957,2183,124766,93,19230,381,0,34812,0.001000000000000112
1059000,10015,2086,126848,13299,4398,131235,73,19238,381,0,34813,0.0009999999999998899
1060000,20627,-7324,126119,-239,-7992,125821,102,19239,299,1,34814,0.001000000000000112
1061000,10575,-4733,125372,11316,-7668,131589,102,19232,418,1,34815,0.0009999999999998899
1062000,13779,-2073,127429,4407,-4358,123621,79,19237,324,1,34816,0.001000000000000112
1063000,12512,9692,127556,-1880,4140,121694,75,19233,307,1,34817,0.0009999999999998899
1064000,13619,-8197,128105,9922,-7839,137206,109,19233,446,0,34818,0.001000000000000112
1065000,12320,1913,128651,3912,2453,119667,88,19236,446,0,34819,0.0009999999999998899
1066002,12087,2484,128931,-3019,-1403,129669,73,19239,360,0,34820,0.0010019999999999474
1067007,12678,-1392,130170,11395,-3106,126805,73,19234,299,1,34821,0.0010050000000001447
1068000,5083,-6964,130293,-1500,-8239,133731,111,19234,455,1,34822,0.0009930000000000216
1069000,8895,-10376,128725,-8838,-7956,130278,80,19237,328,1,34823,0.0009999999999998899
1070002,5408,8703,131582,2663,9364,121131,84,19229,344,0,34824,0.0010019999999999474
1071000,15843,1390,128558,10937,-2864,133322,98,19229,344,0,34825,0.0009980000000000544
1072002,-1666,295,129546,-6489,7740,122772,74,19240,401,0,34826,0.0010019999999999474
1073000,14703,-4214,129259,-32953,-11519,131545,74,19244,303,0,34827,0.0009980000000000544
1074002,5723,-2824,128637,34662,-1871,128070,89,19228,365,1,34828,0.0010019999999999474
1075001,-1231,-10907,128580,-7935,-16581,139108,76,19235,311,1,34829,0.0009989999999999721
1076000,-361,-2311,128318,-35607,5048,120906,77,19235,315,1,34830,0.0009989999999999721
1077000,-713,18065,129667,5922,13596,128526,110,19235,315,0,34831,0.001000000000000112
1078000,10282,7633,128539,-4655,10232,121333,96,19231,451,0,34832,0.0009999999999998899
1079000,4357,10333,129131,-12057,3212,120536,96,19240,393,0,34833,0.001000000000000112
1080001,6236,-20711,128386,1258,-21008,141993,73,19234,299,1,34834,0.0010010000000000296
1081000,167,92,128595,-900,136,124494,132,19238,541,1,34835,0.0009989999999999721
1082000,921,419,129632,-16537,-59,132079,81,19236,332,1,34836,0.0009999999999998899
1083000,1827,17038,130953,-11525,14989,113447,81,19236,332,1,34837,0.001000000000000112
1084000,5756,3269,127670,-2923,-3716,134192,111,19230,332,0,34838,0.0009999999999998899
1085000,862,-9639,124838,-4411,-8296,128738,111,19231,455,0,34839,0.001000000000000112
1086000,7619,12559,126441,-9612,11423,117890,86,19232,352,0,34840,0.0009999999999998899
1087000,7496,1590,124778,6512,440,128578,86,19229,352,1,34841,0.001000000000000112
1088000,10479,7828,126572,405,7195,121329,71,19235,291,1,34842,0.0009999999999998899
1089000,6525,-13717,124645,-6989,-15133,138459,83,19235,291,1,34843,0.001000000000000112
1090000,8928,8989,126565,-5612,10261,114575,104,19236,340,0,34844,0.0009999999999998899
1091000,9541,3164,127000,5833,563,129784,104,19240,426,0,34845,0.001000000000000112
1092000,2890,153,123833,4504,-1244,126804,95,19237,389,0,34846,0.0009999999999998899
1093000,14448,3882,125714,-14910,3758,123132,74,19239,303,1,34847,0.001000000000000112
1094001,9316,7328,123227,17104,5580,123417,109,19230,446,1,34848,0.0010010000000000296
1095000,18615,7981,127268,4469,9009,119077,94,19230,385,1,34849,0.0009989999999999721
1096000,8975,-11105,124716,2815,-12604,132872,88,19230,385,1,34850,0.0009999999999998899
1097000,14623,4692,130294,3417,5690,121833,115,19233,360,0,34851,0.001000000000000112
1098000,11327,-1405,126114,5929,-1898,130483,115,19232,471,0,34852,0.0009999999999998899
1099000,13285,5581,128277,5492,6042,120369,85,19239,348,0,34853,0.001000000000000112
1100000,17872,-8813,124869,4084,-8297,132382,77,19229,315,1,34854,0.0009999999999998899
1101000,9221,-5447,125169,10845,-7634,125562,86,19229,352,1,34855,0.001000000000000112
1102000,19862,4533,127610,2627,4299,123168,78,19238,352,1,34856,0.0009999999999998899
1103001,10186,-5069,126417,10566,-5654,131014,89,19239,319,1,34857,0.0010010000000000296
1104002,16171,6143,128672,-2538,4375,127418,89,19232,365,0,34858,0.0010010000000000296
1105000,7547,-2316,128962,6634,-2169,128294,93,19230,381,0,34859,0.0009980000000000544
1106000,15335,2542,126270,6439,-3103,125103,73,19233,299,0,34860,0.0009999999999998899
1107000,8355,-6601,129504,4394,-4260,131187,104,19233,426,1,34861,0.001000000000000112
1108000,10030,-5285,128823,-4725,-8213,126841,80,19229,426,1,34862,0.0009999999999998899
1109000,8378,1772,133359,-783,2754,131250,78,19233,328,1,34863,0.001000000000000112
1110000,5493,-10250,126741,4750,-10453,129737,78,19234,319,0,34864,0.0009999999999998899
1111001,9985,17590,132234,-5952,21366,118322,122,19231,500,0,34865,0.0010010000000000296
1112002,4950,-3519,126157,5160,-16227,139841,87,19238,356,0,34866,0.0010010000000000296
1113000,13891,-3742,130983,-13801,6504,118468,70,19235,287,0,34867,0.0009980000000000544
1114000,8357,1647,131692,-4533,-10677,135083,99,19235,287,1,34868,0.0009999999999998899
1115000,410,-12508,129286,-1199,-9042,131908,84,19239,405,1,34869,0.001000000000000112
1116001,-3563,-3287,128646,-32408,-6014,132341,84,19238,344,1,34870,0.0010010000000000296
1117000,2627,-1155,128555,-5648,14583,125722,92,19229,377,0,34871,0.0009989999999999721
1118001,9041,31839,128488,2853,26544,112966,93,19236,381,0,34872,0.0010010000000000296
1119003,5854,-4289,127488,-9140,-12919,133819,80,19237,328,0,34873,0.0010019999999999474
1120000,5683,-14786,124725,-11474,-13555,130269,95,19237,328,1,34874,0.0009969999999999146
1121000,2431,-9445,129962,4867,-7953,133686,78,19225,389,1,34875,0.001000000000000112
1122001,1777,14023,130653,-12340,15461,119310,78,19239,319,1,34876,0.0010010000000000296
1123000,-279,3812,128444,-7708,-3566,133078,81,19237,332,1,34877,0.0009989999999999721
1124000,-1723,-426,125585,-17001,4204,124430,113,19230,463,0,34878,0.0009999999999998899
1125000,4905,15091,127941,-3234,11309,119421,96,19236,393,0,34879,0.001000000000000112
1126000,11961,-2572,124132,5459,-2636,129203,73,19236,393,0,34880,0.0009999999999998899
1127000,7451,5461,127950,-344,3448,120978,93,19228,299,1,34881,0.001000000000000112
1128000,10576,-11269,124236,-7488,-12194,131843,93,19235,381,1,34882,0.0009999999999998899
1129000,5212,9616,129009,2892,9793,119795,89,19236,365,1,34883,0.001000000000000112
1130000,6607,-3046,124495,3468,-6724,133805,89,19231,365,0,34884,0.0009999999999998899
1131010,5733,3901,125532,-15036,6820,118170,117,19231,479,0,34885,0.0010099999999999554
1132000,10393,11567,125783,3664,8463,123113,81,19231,479,0,34886,0.0009900000000000464
1133000,17566,-4685,124232,10721,-4799,129894,84,19237,332,1,34887,0.001000000000000112
1134000,10133,1544,124982,7226,-141,120427,84,19227,344,1,34888,0.0009999999999998899
1135000,11995,-8950,124622,-468,-8416,131628,78,19231,319,1,34889,0.001000000000000112
1136000,9074,11750,126589,3846,11280,117508,85,19236,348,1,34890,0.0009999999999998899
1137003,15262,-4987,127293,4660,-5119,135192,104,19228,426,0,34891,0.0010030000000000872
1138001,12404,5978,126577,3808,7069,118391,93,19228,426,0,34892,0.0009980000000000544
1139000,13143,2894,127988,7994,1244,125753,71,19235,381,0,34893,0.0009989999999999721
1140000,17626,-7085,125372,1808,-7222,133749,71,19236,291,1,34894,0.0009999999999998899
1141000,11796,-3305,127605,13628,-3808,125415,119,19235,487,1,34895,0.001000000000000112
1142002,12685,-1901,127362,4333,-2708,130339,89,19231,365,1,34896,0.0010019999999999474
1143000,12030,7896,128900,-2008,7197,120268,84,19233,344,0,34897,0.0009980000000000544
1144000,14593,-10639,126866,9282,-11769,136580,107,19233,438,0,34898,0.0009999999999998899
1145000,11089,6560,130032,4323,6758,121006,83,19235,438,0,34899,0.001000000000000112
1146000,13426,-259,128262,-3027,-841,126862,79,19241,340,0,34900,0.0009999999999998899
1147000,9846,-6231,128913,8658,-6847,129070,79,19232,324,1,34901,0.001000000000000112
1148000,9894,-10161,128193,6708,-9059,132752,94,19232,385,1,34902,0.0009999999999998899
1149000,6128,-1167,130529,-10454,-3088,127570,81,19237,332,1,34903,0.001000000000000112
1150000,11163,8654,130278,-768,8409,123791,91,19237,373,0,34904,0.0009999999999998899
1151000,8907,-406,129530,7297,-2536,131089,90,19228,373,0,34905,0.001000000000000112
1152000,4214,6900,128202,-1864,5894,123056,69,19236,369,0,34906,0.0009999999999998899
1153000,9856,-11468,127882,-18327,-10566,133379,69,19236,283,1,34907,0.001000000000000112
1154000,6476,-3127,130430,2583,-7240,127713,102,19233,418,1,34908,0.0009999999999998899
1155003,3528,-5706,130849,10622,-5000,132533,82,19237,336,1,34909,0.0010030000000000872
1156000,-4921,4404,129505,-20494,-1353,124088,81,19235,332,1,34910,0.0009969999999999146
1157000,3295,7928,131413,-18281,4944,128461,117,19235,332,0,34911,0.001000000000000112
1158000,6169,9862,129196,2357,9802,122567,89,19234,479,0,34912,0.0009999999999998899
1159000,8912,5150,129926,-2192,-1748,125514,89,19239,365,0,34913,0.001000000000000112
1160000,5088,-14595,127546,-13951,-16257,134802,77,19232,315,1,34914,0.0009999999999998899
1161000,-1491,-9821,127755,7658,-6517,133489,129,19232,528,1,34915,0.001000000000000112
1162000,1159,-96,128204,-17054,10950,121706,81,19232,332,1,34916,0.0009999999999998899
1163000,-2817,19833,129552,-8396,13996,120966,89,19232,332,1,34917,0.001000000000000112
1164000,5989,-1702,125204,-8742,-6984,133049,97,19228,365,0,34918,0.0009999999999998899
1165000,1338,-1614,124838,1394,1643,123002,97,19233,397,0,34919,0.001000000000000112
1166000,10254,6137,126021,-3880,5564,123287,78,19238,319,0,34920,0.0009999999999998899
1167000,8124,6551,125400,1644,6827,120462,95,19230,389,1,34921,0.001000000000000112
1168000,12845,-3136,126909,-2261,-6363,132299,84,19235,344,1,34922,0.0009999999999998899
1169000,6003,-3639,125876,-1900,-1899,126796,86,19235,344,1,34923,0.001000000000000112
1170000,3087,6239,127325,-5908,5333,121962,111,19232,352,0,34924,0.0009999999999998899
1171000,3679,1632,126964,-8347,200,128584,111,19230,455,0,34925,0.001000000000000112
1172000,8524,3540,125418,9964,3472,124573,93,19237,381,0,34926,0.0009999999999998899
1173002,15015,3258,125075,2449,77,123427,72,19231,295,1,34927,0.0010019999999999474
1174000,12657,4570,123546,5283,966,119468,91,19230,373,1,34928,0.0009980000000000544
1175001,18905,-4435,124996,5256,-4647,127731,91,19230,373,1,34929,0.0010010000000000296
1176000,10608,1290,127161,6812,731,128664,87,19232,373,1,34930,0.0009989999999999721
1177000,13380,-779,127832,679,-1121,127414,87,19230,356,0,34931,0.001000000000000112
1178003,5986,-2079,126319,7227,-2575,127268,98,19233,401,0,34932,0.0010029999999998651
1179002,12591,-679,125446,-1377,-1555,127132,77,19239,315,0,34933,0.0009989999999999721
1180000,19183,1072,124618,5931,1962,122966,84,19227,344,1,34934,0.0009980000000000544
1181000,15191,4095,126147,17989,2896,124633,81,19227,344,1,34935,0.001000000000000112
1182000,17150,-2226,126086,-371,-2389,125985,83,19233,332,1,34936,0.0009999999999998899
1183000,11028,-6593,127508,7581,-7383,129921,83,19234,340,0,34937,0.001000000000000112
1184000,13278,895,127672,5644,69,131866,99,19230,405,0,34938,0.0009999999999998899
1185000,8826,6933,131272,-581,7980,122166,90,19236,369,0,34939,0.001000000000000112
1186000,13269,1813,129920,-290,691,128541,70,19236,287,0,34940,0.0009999999999998899
1187000,8064,-4799,130537,10295,-4578,125434,121,19236,496,1,34941,0.001000000000000112
1188000,10998,-5278,128819,-3949,-5381,130330,83,19238,496,1,34942,0.0009999999999998899
1189000,9200,-9549,128958,-197,-10051,133293,78,19235,340,1,34943,0.001000000000000112
1190000,10125,5715,129655,6555,4805,121033,78,19235,319,0,34944,0.0009999999999998899
1191000,12879,18945,132865,-6031,20052,125338,114,19235,467,0,34945,0.0009999999999998899
1192001,2128,-17387,125104,5080,-19322,135556,81,19240,332,0,34946,0.0010010000000000296
1193000,9999,-2130,131527,-21150,-2445,126385,75,19240,307,1,34947,0.0009989999999999721
1194000,6364,-9169,128089,11467,-12069,133282,76,19230,307,1,34948,0.001000000000000112
1195000,-2857,3180,130576,1052,1555,126060,83,19233,311,1,34949,0.0009999999999998899
1196000,1785,-4599,126578,-27509,-8961,138169,83,19232,340,1,34950,0.001000000000000112
1197000,123,18810,130419,-6134,16500,116636,94,19229,385,0,34951,0.0009999999999998899
1198000,11614,12865,129902,-808,14311,125971,95,19235,389,0,34952,0.001000000000000112
1199005,3275,-10955,128002,158,-9758,128114,73,19235,299,0,34953,0.0010049999999999226
1200002,6205,-10218,129155,-14303,-11240,134733,108,19236,299,1,34954,0.0009970000000001367
1201000,-1004,-2177,129991,-4006,-4179,122752,83,19226,442,1,34955,0.0009979999999998324
1202000,1203,9628,129781,-6426,9209,130727,83,19234,340,1,34956,0.001000000000000112
1203000,444,-6784,126573,-10261,-6318,127720,79,19236,324,0,34957,0.0009999999999998899
1204000,-29,18173,126894,-12725,15764,116134,119,19233,487,0,34958,0.001000000000000112
1205000,10300,750,126414,-6096,-4429,130655,90,19238,369,0,34959,0.0009999999999998899
1206000,10365,1467,124511,6942,4470,121484,77,19238,369,0,34960,0.001000000000000112
1207000,7891,-10159,126107,1665,-3895,132012,83,19229,315,1,34961,0.0009999999999998899
1208000,8667,3329,124202,-7721,6144,117987,83,19234,340,1,34962,0.001000000000000112
1209000,2048,6187,125821,1024,155,132953,86,19236,352,1,34963,0.0009999999999998899
1210000,10176,-7717,124250,-1942,-3625,127030,95,19230,389,0,34964,0.001000000000000112
1211000,1839,15372,127228,-4832,15885,114738,103,19236,422,0,34965,0.0009999999999998899
1212000,16182,898,127004,3782,-5138,132903,76,19236,422,0,34966,0.001000000000000112
1213000,14031,-971,123365,11284,-361,120426,94,19234,311,1,34967,0.0009999999999998899
1214000,10398,-3781,125070,4495,-7018,132075,94,19222,385,1,34968,0.001000000000000112
1215000,11645,4373,125011,1664,9544,114721,83,19234,340,1,34969,0.0009999999999998899
1216000,7661,6669,127530,4822,-515,130870,85,19231,348,1,34970,0.001000000000000112
1217000,17333,-8597,126409,1009,-4518,131044,116,19235,475,0,34971,0.0009999999999998899
1218000,10600,7380,127004,12313,4401,115814,92,19235,475,0,34972,0.001000000000000112
1219000,17532,-2709,127238,2764,-4563,132172,73,19238,377,0,34973,0.0009999999999998899
1220000,15162,-4531,124767,10311,-5673,124083,73,19235,299,1,34974,0.001000000000000112
1221002,12635,-8640,126805,10641,-8964,134957,116,19240,475,1,34975,0.0010019999999999474
1222001,13144,7672,127139,-542,9189,116798,83,19238,340,1,34976,0.0009989999999999721
1223000,11861,1360,127350,4782,-2327,130777,84,19233,344,0,34977,0.0009989999999999721
1224001,14193,-5017,128929,6318,-4111,131403,101,19233,344,0,34978,0.0010010000000000296
1225000,8466,6931,129783,1360,6225,120993,80,19238,414,0,34979,0.0009989999999999721
1226000,15959,-5661,127920,-1262,-7389,132748,80,19239,328,0,34980,0.001000000000000112
1227000,7034,-1151,128796,13882,-1156,122609,86,19224,352,1,34981,0.0009999999999998899
1228000,10574,-10726,129010,-6068,-10901,137324,72,19235,295,1,34982,0.001000000000000112
1229000,6727,7402,131077,-9390,6587,122592,80,19236,328,1,34983,0.0009999999999998899
1230001,8282,-1638,129024,6381,-3361,134699,101,19236,328,0,34984,0.0010010000000000296
1231000,7091,7652,130516,2209,9083,122709,95,19227,414,0,34985,0.0009989999999999721
1232000,5525,3336,130641,-8431,1612,126800,95,19239,389,0,34986,0.001000000000000112
1233000,13374,-13051,129178,-11653,-13732,136563,70,19231,287,1,34987,0.0009999999999998899
1234000,6034,1072,131334,10584,59,121861,121,19235,496,1,34988,0.001000000000000112
1235000,850,-5673,131156,-176,-6420,134600,85,19229,348,1,34989,0.0009999999999998899
1236000,-4696,5915,129424,-24949,4378,124013,83,19229,340,1,34990,0.001000000000000112
1237000,5129,-939,129809,-8338,-1071,133383,116,19232,340,0,34991,0.0009999999999998899
1238001,6662,19759,128616,298,19016,117053,88,19237,475,0,34992,0.0010010000000000296
1239000,9711,697,128224,-2961,662,125139,88,19240,360,0,34993,0.0009989999999999721
1240000,1939,-16428,126553,-6987,-18804,137268,83,19230,340,1,34994,0.001000000000000112
1241000,682,-6288,128099,-9166,-7861,131015,116,19240,475,1,34995,0.0009999999999998899
1242000,2508,14178,131031,-7317,11173,121586,81,19240,332,1,34996,0.001000000000000112
1243000,-15,10558,127580,-5851,11288,122415,93,19237,332,0,34997,0.0009999999999998899
1244000,2557,-7089,125271,-14403,-9230,134931,94,19229,381,0,34998,0.001000000000000112
1245000,2290,9006,127845,-3611,8161,118871,94,19232,385,0,34999,0.0009999999999998899
1246000,15852,5166,126157,-2062,4741,124447,78,19234,319,0,35000,0.001000000000000112
1247000,4545,1950,127281,8947,3134,127694,110,19239,451,1,35001,0.0009999999999998899
1248002,9803,-10959,124835,-8384,-11486,133077,82,19236,336,1,35002,0.0010019999999999474
1249000,4106,8977,127044,-6273,4933,117492,85,19236,336,1,35003,0.0009980000000000544
1250000,6729,7463,126734,7470,9187,131065,125,19233,348,0,35004,0.001000000000000112
1251000,7880,-1763,124667,-11891,5066,121034,125,19229,512,0,35005,0.0009999999999998899
1252000,10675,1410,124941,4150,2048,129633,88,19236,360,0,35006,0.001000000000000112
1253000,17383,-841,124537,7364,800,121275,74,19232,303,1,35007,0.0009999999999998899
1254000,11124,3187,124036,6323,-4019,123941,82,19233,336,1,35008,0.001000000000000112
1255000,11399,-6222,125946,4225,-2488,131490,89,19233,336,1,35009,0.0009999999999998899
1256000,9682,7661,126539,4057,5800,119258,93,19234,365,1,35010,0.001000000000000112
1257000,11591,2206,127556,3870,2168,131529,93,19234,381,0,35011,0.0009999999999998899
1258000,11367,1437,127050,4803,1263,121432,92,19236,377,0,35012,0.001000000000000112
1259000,16289,-2594,125403,1913,-4091,129218,76,19237,311,0,35013,0.0009999999999998899
1260000,17644,-2958,127279,15339,-2618,125834,96,19232,393,1,35014,0.001000000000000112
1261000,13420,-2787,125416,11339,-2874,125497,80,19232,393,1,35015,0.0009999999999998899
1262000,13839,969,129219,-7005,1366,127069,78,19236,328,1,35016,0.001000000000000112
1263000,11803,210,128468,7298,-4237,127970,78,19237,319,0,35017,0.0009999999999998899
1264000,11800,513,128998,4306,-1344,128997,107,19234,438,0,35018,0.001000000000000112
1265001,8480,4196,130122,1602,2752,122964,88,19239,360,0,35019,0.0010010000000000296
1266000,14064,-5992,128012,2769,-7755,131277,71,19236,291,0,35020,0.0009989999999999721
1267000,10366,-3883,128048,5429,-2554,128228,121,19236,291,1,35021,0.0009999999999998899
1268001,10016,-1372,131275,-4909,-1664,128194,83,19237,496,1,35022,0.0010010000000000296
1269000,7533,-4098,126963,-2824,-7538,131108,83,19233,340,1,35023,0.0009989999999999721
1270000,6168,4542,130924,3981,7138,121939,82,19230,336,0,35024,0.001000000000000112
1271000,9548,4190,129087,-80,-398,136808,112,19235,459,0,35025,0.0009999999999998899
1272000,4105,-6808,127230,-6747,-2499,123125,77,19243,315,0,35026,0.001000000000000112
1273000,16351,12977,133196,-17705,10671,121195,85,19243,315,1,35027,0.0009999999999998899
1274000,6409,-11376,128060,29742,-15733,138258,77,19227,348,1,35028,0.001000000000000112
1275000,-4441,-5056,131806,-15491,-5541,130196,77,19229,315,1,35029,0.0009999999999998899
1276000,1983,-4187,130223,-24350,-2979,131399,84,19232,344,1,35030,0.001000000000000112
1277000,861,29015,131864,-1921,29555,110971,103,19229,422,0,35031,0.0009999999999998899
1278000,12671,8243,130916,-2005,5422,131635,94,19236,385,0,35032,0.001000000000000112
1279000,1671,-14093,124843,-3258,-15022,128692,73,19236,299,0,35033,0.0009999999999998899
1280000,4486,-9599,128569,-11871,-10357,131918,125,19235,299,1,35034,0.001000000000000112
1281000,1918,755,129999,-7011,-78,126523,81,19232,512,1,35035,0.0009999999999998899
1282000,3057,9604,130753,654,8741,125731,81,19236,332,1,35036,0.001000000000000112
1283000,1002,-4118,125466,-11912,-5873,134153,83,19228,340,0,35037,0.0009999999999998899
1284001,-3099,17188,127128,-16883,15614,113647,111,19233,455,0,35038,0.0010010000000000296
1285000,11071,-6171,125235,-4307,-6079,133176,86,19233,352,0,35039,0.0009989999999999721
1286000,8700,10281,126154,10735,7437,120711,82,19238,352,0,35040,0.001000000000000112
1287000,6073,-6690,126461,-7690,-5461,129952,71,19230,336,1,35041,0.0009999999999998899
1288000,8270,1045,124279,-8588,-3428,125179,71,19234,291,1,35042,0.001000000000000112
1289000,2746,3631,129443,4730,5694,126618,87,19236,356,1,35043,0.0009999999999998899
1290000,11487,-4124,124042,-1210,-7340,132627,96,19228,393,0,35044,0.001000000000000112
1291002,-56,19783,128619,-9210,21021,109082,90,19228,369,0,35045,0.0010019999999999474
1292003,17497,-9142,125435,520,-7539,136792,70,19236,369,0,35046,0.0010010000000000296
1293000,14387,5292,124752,10851,2955,118180,105,19235,287,1,35047,0.0009969999999999146
1294000,10179,-6525,124847,11381,-6252,134990,105,19234,430,1,35048,0.001000000000000112
1295000,12184,1256,125238,-3757,-1270,112789,89,19225,365,1,35049,0.0009999999999998899
1296002,8958,5281,128143,3079,7155,138956,86,19234,352,1,35050,0.0010019999999999474
1297000,18484,-7427,128058,4680,-7007,118655,111,19233,455,0,35051,0.0009980000000000544
1298000,6442,14868,126112,10332,1954,121872,85,19233,455,0,35052,0.001000000000000112
1299000,17290,-12864,124398,-2019,-10065,133575,73,19240,348,0,35053,0.0009999999999998899
1300000,15190,-1103,124778,6744,-3411,122995,73,19232,299,1,35054,0.001000000000000112
1301000,12722,-7363,128406,17406,-4077,135156,104,19235,426,1,35055,0.0009999999999998899
1302000,13318,9249,128015,-1483,9306,113509,83,19237,340,1,35056,0.001000000000000112
1303000,10192,-2920,127688,5611,-9329,138612,84,19225,344,0,35057,0.0009999999999998899
1304000,15525,-1966,127684,6082,1822,124751,87,19225,344,0,35058,0.001000000000000112
1305000,7430,7627,129998,2776,5279,122522,74,19233,356,0,35059,0.0009999999999998899
1306000,16185,-5671,128108,-1066,-9329,131755,74,19237,303,0,35060,0.001000000000000112
1307003,5894,-2838,127757,12981,-2566,123365,95,19227,389,1,35061,0.0010029999999998651
1308000,12088,-8931,130843,-6957,-13114,139506,90,19234,369,1,35062,0.0009970000000001367
1309000,5083,3442,130123,-4598,5497,120532,84,19233,344,1,35063,0.0009999999999998899
1310000,9116,-30,129523,902,-4813,132654,112,19233,344,0,35064,0.0009999999999998899
1311001,8045,9590,130736,9065,12298,122330,87,19232,459,0,35065,0.0010010000000000296
1312004,4581,-4487,127546,-10966,-12429,133401,87,19239,356,0,35066,0.0010030000000000872
1313000,13519,-11154,128794,-16527,-5574,129794,72,19233,295,1,35067,0.0009959999999999969
1314000,6250,8154,132319,19497,3682,122765,115,19236,471,1,35068,0.0009999999999998899
1315000,531,-5608,130094,-5204,-5847,134174,86,19232,352,1,35069,0.001000000000000112
1316000,-2002,749,130084,-29958,-2246,128398,84,19232,352,1,35070,0.0009999999999998899
1317000,2136,-1500,128362,1656,1796,130910,101,19226,344,0,35071,0.001000000000000112
1318000,6632,26302,130181,-2886,25528,112919,101,19236,414,0,35072,0.0009999999999998899
1319000,8636,-211,127519,-10843,-7795,130597,78,19238,319,0,35073,0.001000000000000112
1320000,-668,-14706,127938,-2013,-15222,136094,89,19224,365,1,35074,0.0009999999999998899
1321000,2437,-4951,129888,-9988,-3528,129991,92,19238,377,1,35075,0.001000000000000112
1322000,67,13028,132914,-6983,13255,118422,82,19238,377,1,35076,0.0009999999999998899
1323000,2726,8402,127345,-3977,4329,130390,102,19235,336,0,35077,0.001000000000000112
1324000,412,-6763,124860,-14857,-7984,129389,95,19226,418,0,35078,0.0009999999999998899
1325002,4619,14577,128367,-5583,14775,115980,95,19237,389,0,35079,0.0010020000000001694
1326000,14353,142,125845,5779,-1180,128141,75,19234,307,1,35080,0.0009979999999998324
1327000,4377,201,126867,5790,-586,122962,114,19236,467,1,35081,0.001000000000000112
1328000,10274,-7847,125067,-16652,-9337,134393,88,19236,360,1,35082,0.0009999999999998899
1329000,2537,8829,126525,3199,8060,119905,85,19233,360,1,35083,0.001000000000000112
1330002,8918,3637,127302,2444,3025,129043,125,19229,348,0,35084,0.0010019999999999474
1331000,6824,411,123225,-9763,-818,125687,125,19236,512,0,35085,0.0009980000000000544
1332000,12721,9529,127274,7811,9783,118508,84,19244,344,0,35086,0.0009999999999998899
1333000,17325,-3198,123056,5799,-3816,129828,77,19227,315,1,35087,0.001000000000000112
1334000,11140,674,124988,6354,-569,120065,68,19227,279,1,35088,0.0009999999999998899
1335001,11403,-3910,127401,3225,-4132,131555,89,19235,279,1,35089,0.0010010000000000296
1336000,9732,5786,126358,3419,4871,122620,99,19228,365,0,35090,0.0009989999999999721
1337000,12482,1819,127726,3859,2299,126944,99,19228,405,0,35091,0.001000000000000112
1338000,9512,403,125999,4288,-1115,128175,93,19235,381,0,35092,0.0009999999999998899
1339001,20044,808,126330,153,2606,121196,72,19237,295,0,35093,0.0010010000000000296
1340002,15453,-2787,126453,17332,-3471,126495,108,19230,442,1,35094,0.0010010000000000296
1341002,14818,-3358,126250,10229,-3667,128056,81,19230,442,1,35095,0.001000000000000112
1342002,13066,-7316,127639,-5524,-8014,132281,78,19236,332,1,35096,0.0009999999999998899
1343001,12587,3877,128076,12540,1295,124625,78,19232,319,0,35097,0.0009989999999999721
1344003,12073,3615,127785,4857,3456,126491,108,19236,442,0,35098,0.0010019999999999474
1345000,8796,689,128945,-2110,-164,126498,86,19237,352,0,35099,0.0009970000000001367
1346000,16550,-4081,128109,2599,-6892,129379,73,19231,299,0,35100,0.0009999999999998899
1347000,8171,-163,129332,8695,498,127074,106,19231,299,1,35101,0.001000000000000112
1348000,9567,693,131187,-3924,-5194,129502,89,19235,434,1,35102,0.0009999999999998899
1349000,2927,-14909,125303,-368,-12268,133015,89,19235,365,1,35103,0.001000000000000112
1350000,10001,10818,132396,-8436,16139,121987,90,19228,369,0,35104,0.0009999999999998899
1351000,11410,2514,127457,12048,-5601,131609,96,19238,393,0,35105,0.001000000000000112
1352000,3558,5794,130680,-15441,8717,119378,74,19241,303,0,35106,0.0009999999999998899
1353003,17303,-3727,130022,-13796,-13445,130042,94,19241,303,1,35107,0.0010030000000000872
1354000,-1182,-13233,130896,30404,-13730,136578,78,19228,385,1,35108,0.0009969999999999146
1355000,-1167,-4827,130476,-26882,-7317,131662,78,19240,319,1,35109,0.001000000000000112
1356000,-199,2780,130303,-17323,7182,122083,80,19230,328,0,35110,0.0009999999999998899
1357000,4046,26884,129705,-3269,25067,120677,114,19236,467,0,35111,0.001000000000000112
1358002,11499,392,128343,3987,-5858,130264,96,19236,393,0,35112,0.0010019999999999474
1359000,1414,-5090,125214,-11075,-5707,125699,74,19236,393,0,35113,0.0009980000000000544
1360000,5300,-11319,129192,-9366,-13146,134308,141,19234,303,1,35114,0.0009999999999998899
1361000,-1080,1984,129709,-1894,4038,124423,141,19236,577,1,35115,0.001000000000000112
1362000,4566,2143,130987,-7646,-973,134211,82,19239,336,1,35116,0.0009999999999998899
1363000,-644,5063,125556,-6897,7967,120715,82,19235,336,0,35117,0.001000000000000112
1364000,767,18205,127894,-16644,10195,120345,105,19233,430,0,35118,0.0009999999999998899
1365000,12324,-2348,124902,1677,-1029,130726,82,19233,430,0,35119,0.001000000000000112
1366000,9139,9432,129068,10623,8296,119605,89,19236,336,1,35120,0.0009999999999998899
1367000,6037,-7469,125248,-9880,-8859,132461,89,19231,365,1,35121,0.001000000000000112
1368000,3620,4807,127614,-8189,3961,120005,77,19237,315,1,35122,0.0009999999999998899
1369000,6539,-7302,126720,5152,-9372,137580,85,19236,348,1,35123,0.001000000000000112
1370000,9532,6254,125964,-595,8069,118894,105,19224,430,0,35124,0.0009999999999998899
1371000,4361,15048,127791,-8720,13039,117900,96,19224,393,0,35125,0.001000000000000112
1372000,17513,-6474,124114,3541,-6335,131666,71,19234,393,0,35126,0.0009999999999998899
1373000,13662,3295,124752,13583,2100,121609,101,19233,291,1,35127,0.001000000000000112
1374000,12501,-7783,124272,6546,-10018,132830,101,19240,414,1,35128,0.0009999999999998899
1375000,8765,7437,125235,-714,6918,115124,89,19227,365,1,35129,0.001000000000000112
1376000,11498,-2599,127538,3215,-2736,135370,85,19235,348,0,35130,0.0009999999999998899
1377000,16868,3973,125929,2785,3853,123021,108,19235,442,0,35131,0.001000000000000112
1378001,8447,8754,126881,10747,7804,119086,85,19236,442,0,35132,0.0010010000000000296
1379000,18526,-8287,125910,-1025,-7880,131818,79,19240,348,0,35133,0.0009989999999999721
1380002,13576,-4014,126564,9838,-4061,123807,79,19228,324,1,35134,0.0010019999999999474
1381002,15187,-7354,128539,14353,-7955,136839,80,19236,328,1,35135,0.0009999999999998899
1382000,10502,9218,128596,-1293,8813,115332,79,19237,324,1,35136,0.0009980000000000544
1383000,12798,-4061,128073,3648,-3858,132689,89,19237,365,0,35137,0.001000000000000112
