t_us,ax,ay,az,ax1,ay1,az1,shunt_raw,bus_raw,curr_raw,pg_rpm,seq,dt
0,2239,-854,130520,5061,825,130562,365,19604,1495,1,46560,
1002,-3951,6136,130581,-6984,1570,126031,274,19597,1495,1,46561,0.0010019999999999999
2002,14647,-2791,131101,17873,-2399,136558,368,19600,1122,0,46562,0.001
3000,-9668,-3196,126542,11301,-2892,129855,368,19599,1507,1,46563,0.0009980000000000002
4000,4854,-2200,127357,-29332,1976,120899,428,19596,1753,1,46564,0.001
5000,162,10453,131415,13686,11627,134828,260,19600,1065,0,46565,0.001
6000,3899,4692,124099,24302,1605,117506,331,19602,1356,0,46566,0.001
7000,4598,-4624,120486,-22070,-2032,124793,381,19602,1356,1,46567,0.0009999999999999992
8000,3786,2040,129655,9318,2241,128188,302,19624,1560,0,46568,0.0010000000000000009
9000,8203,13331,121694,12634,17900,103463,302,19594,1237,0,46569,0.0009999999999999992
10000,-1529,7402,120740,1776,5375,127117,349,19598,1429,1,46570,0.0010000000000000009
11000,6654,17489,126901,-5770,15556,113668,265,19620,1085,1,46571,0.0009999999999999992
12000,4933,3586,118835,-2777,2425,128988,360,19603,1474,0,46572,0.0010000000000000009
13000,3383,9007,132420,30315,12740,116260,377,19603,1474,1,46573,0.0009999999999999992
14000,-6020,-10389,125122,-22334,-13353,143153,226,19582,1544,1,46574,0.0009999999999999992
15000,8118,5697,130805,-9454,10573,119884,226,19619,926,0,46575,0.0010000000000000009
16000,4318,9853,129831,20495,6088,132793,362,19606,1483,0,46576,0.0010000000000000009
17000,614,3301,128275,1188,3674,127199,390,19594,1597,1,46577,0.0009999999999999974
18001,7333,5163,134141,-8714,6608,131163,259,19612,1061,0,46578,0.0010010000000000019
19000,-2401,-12901,128502,6038,-10992,146653,367,19612,1061,0,46579,0.0009989999999999999
20006,-6004,9368,133421,11390,10140,120751,414,19603,1503,1,46580,0.001006
21000,1038,886,131002,-22179,-2666,137951,414,19622,1696,1,46581,0.0009939999999999984
22000,5998,-699,131466,2758,244,129282,274,19599,1122,0,46582,0.0010000000000000009
23000,-5148,-2982,128465,38299,1606,130408,342,19596,1401,0,46583,0.0010000000000000009
24002,9184,-4979,124933,-29089,-6321,131258,456,19622,1868,1,46584,0.0010019999999999994
25002,-90,19742,133828,1524,20678,118618,289,19622,1868,0,46585,0.0010000000000000009
26000,6490,-1549,123043,29792,-757,131197,360,19599,1184,0,46586,0.0009979999999999989
27006,1483,-5570,121931,-13999,-8581,104852,360,19587,1474,1,46587,0.001006
28000,-4236,8793,134976,-2815,14946,147315,313,19620,1282,0,46588,0.0009939999999999984
29000,3151,-6740,118875,14575,-8314,97970,354,19600,1450,0,46589,0.0010000000000000009
30000,-617,29808,123563,-1785,30722,116526,359,19598,1470,1,46590,0.0010000000000000009
31000,8902,6491,126282,-3284,6196,132186,245,19598,1003,1,46591,0.0010000000000000009
32000,9486,11657,117003,11675,10536,103712,387,19617,1003,0,46592,0.0010000000000000009
33000,3367,3067,131148,13564,3030,138188,396,19603,1585,1,46593,0.0010000000000000009
34000,1099,753,130316,-16195,-1572,133250,396,19598,1622,1,46594,0.000999999999999994
35000,120,-1564,126058,11012,9052,118316,264,19614,1081,0,46595,0.0010000000000000009
36000,758,8746,131103,-1714,38,139562,369,19601,1511,0,46596,0.0010000000000000009
37000,2361,-973,132347,-10467,1969,133870,442,19601,1810,1,46597,0.0010000000000000009
38004,1530,-4365,128912,15974,-3187,126178,293,19607,1810,0,46598,0.001003999999999998
39000,4828,3613,132579,-2157,2235,142540,334,19599,1200,0,46599,0.0009960000000000038
40000,702,-351,132112,-4180,2936,126047,334,19597,1368,1,46600,0.0010000000000000009
41000,-4678,9648,130584,-1859,4774,130051,381,19622,1560,1,46601,0.000999999999999994
42000,13687,-8024,130595,14162,-4666,133550,304,19597,1245,0,46602,0.0010000000000000009
43000,-9162,-2783,129425,14733,-4129,135001,363,19597,1487,0,46603,0.0010000000000000009
44002,3359,-5698,126856,-27687,1550,116171,378,19590,1487,1,46604,0.0010020000000000029
45000,2771,13919,129615,6079,12034,136361,349,19618,1548,0,46605,0.0009979999999999989
46000,2325,2892,126899,34277,2442,121053,349,19600,1429,0,46606,0.0010000000000000009
47001,6307,2736,119585,-20964,2104,120704,370,19581,1515,1,46607,0.0010010000000000019
48001,-2709,3037,132023,4613,5183,126602,263,19612,1077,1,46608,0.000999999999999994
49000,4076,5716,120753,11133,6629,113392,403,19603,1651,0,46609,0.0009989999999999999
50000,2406,6834,121519,-7396,10334,117221,377,19603,1651,1,46610,0.0010000000000000009
51000,-757,13326,127319,10991,8670,123297,265,19600,1544,1,46611,0.0010000000000000009
52000,6518,755,119402,529,3273,124590,265,19610,1085,0,46612,0.0010000000000000009
53000,3546,18362,132166,-875,18342,112209,353,19594,1446,0,46613,0.0010000000000000009
54000,-436,-3921,128523,2656,-5004,144243,446,19620,1827,1,46614,0.0010000000000000009
55000,9761,-5208,125596,5593,-3764,121060,261,19601,1069,0,46615,0.0010000000000000009
56000,2145,8873,130138,-3948,5688,131851,342,19601,1069,0,46616,0.000999999999999994
57000,1357,-1608,130840,-850,-167,140514,433,19597,1401,1,46617,0.0010000000000000009
58000,1968,13194,132353,11233,15603,119778,433,19619,1773,1,46618,0.0010000000000000009
59000,-3839,-2608,131584,-4106,-1743,141146,303,19592,1241,0,46619,0.0010000000000000009
60000,2615,-471,131820,-1,-469,134802,343,19591,1405,1,46620,0.0010000000000000009
61000,-6379,-3652,128461,-1957,-4361,123946,303,19624,1241,1,46621,0.0010000000000000009
62002,15238,-1815,130415,431,-2404,136913,367,19624,1241,0,46622,0.001001999999999996
63000,-10578,-271,132775,31240,5695,127666,371,19607,1503,0,46623,0.0009980000000000058
64000,7093,-3101,122790,-24636,-4879,132634,371,19572,1520,1,46624,0.0010000000000000009
65000,2393,16316,133386,-8480,18757,116509,256,19617,1049,0,46625,0.0010000000000000009
66000,-1098,-2837,124415,37752,-5746,140575,361,19599,1479,0,46626,0.0010000000000000009
67003,9810,-1892,122368,-13343,-1274,108337,401,19605,1642,1,46627,0.00100299999999999
68000,-11080,3498,131660,-12021,5781,132257,272,19605,1642,1,46628,0.0009969999999999979
69000,11593,1670,122100,27791,3691,125792,391,19608,1114,0,46629,0.0010000000000000009
70000,-4868,24396,121606,-3153,25289,92301,391,19599,1601,1,46630,0.0010000000000000009
71000,8004,10951,127032,-14078,9103,137443,433,19626,1773,1,46631,0.0010000000000000009
72000,7334,4846,123057,21462,5487,116126,278,19604,1139,0,46632,0.0010000000000000009
73000,3595,-1105,123545,6369,1789,119545,350,19592,1433,0,46633,0.0010000000000000009
74000,460,9612,136500,-8412,11540,140992,366,19592,1433,1,46634,0.0010000000000000009
75000,1704,-7912,124406,2337,-8627,113611,301,19624,1499,0,46635,0.0010000000000000009
76000,1549,12460,131052,5963,13006,141147,301,19597,1233,0,46636,0.0010000000000000009
77000,4067,-3706,132760,-7040,-4877,137010,360,19587,1474,1,46637,0.0010000000000000009
78001,1001,5470,130705,5993,8425,118298,307,19621,1257,1,46638,0.0010010000000000019
79000,2753,315,130826,3597,-6277,146616,365,19610,1495,0,46639,0.0009989999999999999
80002,344,434,133535,-3339,8331,125890,358,19610,1466,1,46640,0.001001999999999989
81001,-2439,-240,128510,4946,-12435,136073,242,19587,1466,1,46641,0.0009989999999999999
82000,5949,674,131608,-13549,10912,124931,364,19612,991,0,46642,0.0009989999999999999
83000,-3991,-1355,130110,12507,-9605,136613,364,19602,1491,0,46643,0.0010000000000000009
84000,6665,-7100,125844,-24286,3993,118291,397,19597,1626,1,46644,0.0010000000000000009
85001,-277,16460,132557,14834,13888,128009,256,19608,1049,0,46645,0.0010010000000000019
86000,2241,-5533,122639,13086,-4816,132570,355,19608,1454,0,46646,0.0009989999999999999
87000,6472,2974,122797,-10352,3142,111779,455,19591,1454,1,46647,0.0010000000000000009
88001,-6044,107,130762,12272,5078,135962,284,19621,1864,1,46648,0.0010010000000000019
89000,6335,7107,121708,-4441,10023,105126,284,19595,1163,0,46649,0.0009989999999999999
90000,-8,17947,124654,-3944,14450,120656,341,19598,1397,1,46650,0.0010000000000000009
91001,3852,9954,125743,25912,7049,122444,327,19624,1339,1,46651,0.0010010000000000019
92000,4449,1693,116526,-9179,6688,115299,330,19624,1352,0,46652,0.0009989999999999999
93000,6181,13421,132791,-4149,12333,125960,372,19592,1352,0,46653,0.0010000000000000009
94000,-769,-1422,128458,11552,-1227,134505,305,19584,1524,1,46654,0.0010000000000000009
95000,4151,-4223,124976,2068,-637,122938,305,19617,1249,0,46655,0.0010000000000000009
96000,3386,4428,131765,-14554,-749,139640,378,19613,1548,0,46656,0.0010000000000000009
97000,1263,3152,132080,2385,6428,128431,375,19581,1536,1,46657,0.000999999999999987
98000,4535,2677,129063,22752,2738,130758,245,19616,1003,1,46658,0.0010000000000000009
99000,-2933,4233,133877,-11894,6029,131523,379,19616,1003,0,46659,0.0010000000000000009
100000,3711,-4770,130878,-4870,-5592,143526,390,19602,1552,1,46660,0.0010000000000000009
101002,-8183,5716,130316,8669,7639,116974,390,19605,1597,1,46661,0.0010020000000000029
102000,12248,2686,131541,-4873,1367,133683,262,19607,1073,0,46662,0.0009979999999999989
103000,-10150,-10002,129711,22629,-6427,141575,361,19599,1479,0,46663,0.0010000000000000009
104002,8906,-2522,125722,-20218,2,114474,452,19618,1851,1,46664,0.0010020000000000029
105000,639,9562,130853,2275,10948,136751,276,19618,1851,0,46665,0.0009979999999999989
106000,1485,7447,127964,32512,4885,121342,352,19600,1130,0,46666,0.0010000000000000009
107000,4679,-4824,120128,-27311,-5100,120009,352,19596,1442,1,46667,0.0010000000000000009
108000,-6610,-162,131789,7161,3943,132548,358,19617,1466,1,46668,0.0010000000000000009
109000,9166,9816,123920,20912,12209,112356,321,19596,1315,0,46669,0.0010000000000000009
110000,-3094,7701,119852,-4970,6897,118143,351,19587,1438,1,46670,0.0010000000000000009
111000,6447,19760,128690,-8727,20278,116872,231,19587,1438,1,46671,0.0010000000000000009
112000,5609,7985,121073,15744,6282,124973,398,19620,946,0,46672,0.000999999999999987
113000,5875,1907,125782,13118,6298,116474,398,19606,1630,0,46673,0.0010000000000000009
114000,-110,-780,130877,-15794,-1438,135537,383,19585,1569,1,46674,0.0010000000000000009
115000,4210,-8587,126742,5828,-7326,135455,241,19617,987,0,46675,0.0010000000000000009
116000,2548,19429,130477,10513,18922,116786,347,19602,1421,0,46676,0.0010000000000000009
117000,-1845,-3235,132880,-10333,-4117,142285,409,19602,1421,1,46677,0.0010000000000000009
118000,3199,4176,131351,-2265,6982,129582,267,19596,1675,1,46678,0.0010000000000000009
119000,999,-11538,127810,14310,-10684,139232,267,19605,1094,0,46679,0.0010000000000000009
120000,1405,10362,135291,404,10646,129699,363,19603,1487,1,46680,0.0010000000000000009
121000,-592,1889,129268,-13535,1418,136023,446,19623,1827,1,46681,0.0010000000000000009
122000,7046,5510,132516,281,4953,121902,300,19595,1229,0,46682,0.0010000000000000009
123000,-6560,-9115,128556,35622,-3337,144399,358,19595,1466,0,46683,0.0010000000000000009
124000,9426,-17142,121778,-26908,-19487,117891,419,19596,1466,1,46684,0.0010000000000000009
125008,-5583,29022,138068,1136,19926,126080,307,19618,1716,0,46685,0.0010080000000000089
126000,5567,-6561,121733,28166,-5818,129388,307,19602,1257,0,46686,0.0009919999999999929
127000,5819,6994,125177,-11532,2996,114770,367,19583,1503,1,46687,0.0010000000000000009
128000,-7810,-8671,129394,1488,-4701,139132,234,19620,958,1,46688,0.0010000000000000009
129000,14552,9559,121871,2541,21477,101192,397,19620,1626,0,46689,0.0010000000000000009
130000,-5451,16023,124812,451,9813,120651,365,19606,1626,1,46690,0.0010000000000000009
131000,4175,13214,124193,-3797,12888,120617,266,19594,1495,1,46691,0.0010000000000000009
132000,6826,8793,121325,7470,9104,114767,266,19610,1089,0,46692,0.0010000000000000009
133000,3362,3715,128635,13941,1837,132095,379,19598,1552,0,46693,0.0010000000000000009
134002,1480,-3955,127580,-12138,-1520,128411,417,19608,1708,1,46694,0.0010019999999999751
135000,4543,1982,129237,-1714,1924,131224,261,19608,1069,0,46695,0.0009979999999999989
136000,939,4870,130714,10809,8402,125779,338,19604,1069,0,46696,0.0010000000000000009
137001,2749,4216,131217,-12877,237,136971,458,19599,1384,1,46697,0.0010010000000000019
138000,3195,-6159,129834,11928,339,133558,458,19625,1876,1,46698,0.0009989999999999999
139002,-1154,11453,133574,1086,9600,127849,281,19598,1151,0,46699,0.0010020000000000029
140000,4773,-8776,130328,-3104,-5138,140328,340,19597,1393,1,46700,0.0009979999999999989
141000,-10583,13412,133120,-1694,9188,120268,358,19622,1466,1,46701,0.0010000000000000009
142000,16129,-5481,130001,834,-4839,137110,328,19622,1466,0,46702,0.0010000000000000009
143000,-10799,-3360,127822,25682,686,133427,366,19603,1343,0,46703,0.0010000000000000009
144000,10577,-3653,127290,-20566,-1257,119793,366,19583,1499,1,46704,0.0010000000000000009
145000,-2819,9157,130631,-4158,11800,134952,290,19622,1188,0,46705,0.0010000000000000009
146000,2488,4981,126765,37122,3123,119238,366,19604,1499,0,46706,0.0010000000000000009
147000,4514,-4040,121773,-27799,-4034,123436,385,19600,1577,1,46707,0.0010000000000000009
148000,-4355,-2419,129631,7176,4157,129887,260,19600,1577,1,46708,0.0010000000000000009
149000,8694,11645,124603,20910,10885,113991,399,19612,1065,0,46709,0.0010000000000000009
150000,-1078,4059,120822,-8847,8808,117524,399,19601,1634,1,46710,0.0010000000000000009
151000,3023,28352,129673,-3549,25014,113879,401,19622,1642,1,46711,0.0010000000000000009
152000,7111,-4653,118731,15264,-5923,131427,277,19601,1135,0,46712,0.0010000000000000009
153000,5068,10285,126421,9059,14969,109097,342,19597,1401,0,46713,0.0010000000000000009
154000,403,-4722,130306,-15328,-6675,142961,450,19597,1401,1,46714,0.0010000000000000009
155000,5170,4449,130597,7322,7553,126617,276,19623,1843,0,46715,0.0010000000000000009
156000,3373,9786,129602,9926,8160,122292,276,19599,1130,0,46716,0.0010000000000000009
157000,-2089,2202,133587,-11528,1734,140111,353,19591,1446,1,46717,0.0010000000000000009
158000,3232,-4467,129260,0,-2953,132643,379,19615,1552,1,46718,0.0010000000000000009
159000,-3070,-7042,128186,6468,-5159,131448,338,19597,1384,0,46719,0.0010000000000000009
160000,7257,11369,137435,4558,13291,133969,352,19597,1384,1,46720,0.0010000000000000009
161000,-10277,336,126750,-5637,-1176,134558,233,19587,1442,1,46721,0.0010000000000000009
162000,13645,9436,134097,-7036,9842,118664,233,19621,954,0,46722,0.0010000000000000009
163002,-7066,-10303,130533,33213,-6958,149503,389,19601,1593,0,46723,0.0010019999999999751
164007,8367,-13936,121767,-15774,-14269,123029,380,19583,1556,1,46724,0.0010050000000000059
165000,-3165,17096,136032,-10311,18933,118594,253,19613,1036,0,46725,0.0009929999999999939
166000,2126,-2744,123252,31016,-4010,145783,368,19613,1507,0,46726,0.0010000000000000009
167000,6299,13536,124583,-4439,14442,98254,421,19603,1507,1,46727,0.0010000000000000009
168000,-10314,-12758,128041,-11573,-10274,137047,296,19606,1724,1,46728,0.0010000000000000009
169001,11772,11460,122801,11798,12285,103048,296,19595,1212,0,46729,0.0010010000000000019
170001,-5558,8715,122585,13002,10967,120610,356,19600,1458,1,46730,0.0010000000000000009
171000,7541,16140,125214,-13322,12839,119289,380,19624,1556,1,46731,0.0009989999999999999
172000,5772,7217,123114,6434,9876,118969,297,19624,1216,0,46732,0.0010000000000000009
173001,6870,7489,124373,20125,8937,124627,365,19599,1216,0,46733,0.0010010000000000019
174000,-283,-1017,130014,-14186,340,132903,361,19590,1495,1,46734,0.0009989999999999999
175001,5243,-1923,128085,-1174,-4568,130998,361,19625,1479,0,46735,0.0010010000000000019
176000,1418,4430,128706,19623,11475,119814,319,19606,1307,0,46736,0.0009989999999999999
177000,4088,4085,132722,-11945,-7099,145211,366,19588,1499,1,46737,0.0010000000000000009
178000,79,-1951,130467,8675,12278,123861,270,19588,1106,1,46738,0.0010000000000000009
179001,671,8688,130210,8808,1512,134268,395,19621,1106,0,46739,0.0010010000000000019
180000,4003,-5396,131966,-9356,1685,138094,364,19604,1618,1,46740,0.0009989999999999999
181000,-6772,10333,133065,-4626,1317,122729,364,19591,1491,1,46741,0.0010000000000000009
182000,10073,-14744,125861,3065,-3752,133727,249,19611,1020,0,46742,0.0010000000000000009
183001,-2516,6861,134903,29316,1044,137477,386,19602,1581,0,46743,0.0010010000000000019
184000,987,-14365,122683,-20438,-3369,121960,416,19591,1704,1,46744,0.0009989999999999999
185000,3627,19769,129735,-13574,17498,126637,277,19591,1704,0,46745,0.0010000000000000009
186000,-2616,-1507,129873,47040,-2936,132071,335,19598,1135,0,46746,0.0010000000000000009
187001,7966,5366,121368,-21512,1309,113652,335,19596,1372,1,46747,0.0010010000000000019
188000,-11664,-5213,129981,-7938,1406,131606,389,19622,1593,1,46748,0.0009989999999999999
189000,12943,13737,125818,22578,13946,118493,304,19589,1245,0,46749,0.0010000000000000009
190000,-6419,2990,119702,7234,8412,107812,348,19592,1425,1,46750,0.0010000000000000009
191000,6122,23633,129869,-18191,19158,124012,310,19592,1425,1,46751,0.0010000000000000009
192001,9334,-2793,122840,10450,-4853,129376,348,19620,1270,0,46752,0.0010010000000000019
193000,159,14641,125384,23031,20574,105384,348,19602,1425,0,46753,0.0009989999999999999
194000,9280,-7253,128544,-14808,-11308,146360,374,19579,1532,1,46754,0.0009999999999999731
195000,-4986,6358,132434,-3430,7872,123260,226,19619,926,0,46755,0.0010000000000000009
196001,11331,1123,127421,11195,2203,130497,359,19605,1470,0,46756,0.0010010000000000019
197000,-8420,12876,134162,2817,9440,134845,383,19605,1470,1,46757,0.0009989999999999999
198000,2125,-2037,131339,-11384,1550,129271,255,19595,1569,1,46758,0.0010000000000000009
199000,2808,-386,128853,-630,-1421,133690,255,19612,1044,0,46759,0.0010000000000000009
200000,-1450,-10403,130667,25010,-6184,139602,376,19602,1540,1,46760,0.0010000000000000009
201005,2784,12737,130693,-17443,10528,125559,411,19611,1683,1,46761,0.0010050000000000059
202000,2439,-358,130568,-11029,1173,127213,268,19597,1098,0,46762,0.0009949999999999959
203002,-879,4735,131786,39175,5584,139416,335,19597,1098,0,46763,0.0010020000000000029
204000,9279,-20195,124864,-17332,-20375,126762,462,19596,1372,1,46764,0.0009979999999999989
205000,-8409,12416,129679,-10363,15889,125748,462,19623,1892,0,46765,0.0010000000000000009
206000,7466,1619,128895,32708,-1591,137259,288,19604,1180,0,46766,0.0010000000000000009
207000,192,7758,121043,-12263,9180,106150,359,19589,1470,1,46767,0.0010000000000000009
208001,-6630,3957,132032,-4636,5084,133832,311,19620,1274,1,46768,0.0010010000000000019
209000,10266,-2842,121341,14252,-1357,123975,353,19620,1274,0,46769,0.0009989999999999999
210001,-2262,18495,120643,1099,20123,101557,359,19604,1446,1,46770,0.0010010000000000019
211001,7571,7904,128444,-1119,6425,130308,359,19592,1470,1,46771,0.0010000000000000009
212000,612,14615,119567,7255,16353,112848,261,19611,1069,0,46772,0.0009989999999999999
213000,7011,3788,127154,1721,4665,120083,396,19599,1622,0,46773,0.0010000000000000009
214000,-162,-924,130330,-643,641,140538,395,19597,1618,1,46774,0.0010000000000000009
215000,2384,-6707,126081,6116,-6892,125094,256,19597,1049,1,46775,0.0010000000000000009
216000,3911,12527,132206,885,12040,130929,345,19612,1049,0,46776,0.0010000000000000009
217000,2438,821,132315,-6254,1260,135741,440,19601,1413,1,46777,0.0010000000000000009
218000,422,1469,129428,7402,3580,128780,440,19607,1802,1,46778,0.0010000000000000009
219000,-109,-4946,128276,138,-5291,140051,272,19595,1114,0,46779,0.0010000000000000009
220000,3815,9471,136564,-4373,9587,127346,324,19600,1327,0,46780,0.0010000000000000009
221006,-5954,4049,128408,1733,-3326,131313,387,19600,1585,1,46781,0.0010059999999999791
222002,7813,2182,132797,-1094,2690,127332,312,19622,1585,0,46782,0.0009959999999999969
223000,-668,-15905,126574,21696,-14864,144052,363,19599,1278,0,46783,0.0009980000000000266
224003,-169,-1692,127969,-22003,6124,118516,363,19590,1487,1,46784,0.0010029999999999761
225002,4706,14862,130210,3951,18747,124171,371,19621,1520,1,46785,0.0009989999999999999
226002,-3659,8794,129908,27312,2136,134405,340,19610,1393,0,46786,0.0010000000000000009
227001,10707,-7615,120645,-12417,-9888,113608,374,19610,1532,1,46787,0.0009989999999999999
228002,-17368,-320,127972,-3943,3233,136551,244,19582,1532,1,46788,0.0010010000000000019
229002,14320,4075,127567,14865,6727,112544,392,19616,999,0,46789,0.0010000000000000009
230000,-9178,17199,118682,9893,20196,110018,392,19603,1606,1,46790,0.0009979999999999989
231001,8348,16993,129051,-15044,13630,123848,375,19606,1536,1,46791,0.0010010000000000019
232000,8794,7742,121168,9083,4763,122591,262,19608,1073,0,46792,0.0009989999999999999
233000,3237,3325,124678,19618,6459,118748,356,19596,1458,0,46793,0.0010000000000000009
234000,8179,-301,129361,-8273,1987,132296,443,19596,1458,1,46794,0.0010000000000000009
235001,-8570,-3498,127049,-12991,-4266,137672,264,19616,1814,1,46795,0.0010010000000000019
236001,8158,8724,131769,19489,11323,119238,264,19605,1081,0,46796,0.0010000000000000009
237000,-2636,9014,131169,-5874,3263,137165,338,19592,1384,1,46797,0.0009989999999999999
238000,-710,-6019,130716,-11019,-4186,133113,442,19621,1810,1,46798,0.0010000000000000009
239000,8515,605,129198,9640,2498,129731,302,19598,1237,0,46799,0.0010000000000000009
240000,413,-4584,129626,15084,-685,139025,347,19598,1237,0,46800,0.0010000000000000009
241000,1732,14709,131967,-17390,13601,123162,331,19593,1421,1,46801,0.0010000000000000009
242000,7701,1189,131076,-7151,352,134175,331,19616,1356,0,46802,0.0010000000000000009
243000,-9106,-6224,129165,39141,-3554,134754,378,19605,1548,0,46803,0.0010000000000000009
244001,12825,-12602,124602,-24007,-13260,128257,373,19573,1528,1,46804,0.0010010000000000019
245000,-10324,2412,129009,-4064,8120,129426,242,19619,991,1,46805,0.0009989999999999999
246000,8199,13782,129544,33607,11246,123678,359,19619,991,0,46806,0.0010000000000000009
247001,2843,2354,121833,-18939,1178,117313,404,19603,1470,1,46807,0.0010010000000000019
248000,-7122,5375,130850,3166,7186,131424,404,19603,1655,1,46808,0.0009989999999999999
249000,9031,-4772,120779,15133,-4415,122273,272,19609,1114,0,46809,0.0010000000000000009
250000,-7086,15912,120867,-6549,20279,106614,390,19599,1597,0,46810,0.0010000000000000009
251000,7358,17958,130726,175,15347,124158,404,19628,1655,1,46811,0.0010000000000000009
252000,3467,4315,119012,8789,5188,119398,286,19628,1655,0,46812,0.0010000000000000009
253000,7373,8205,126030,6566,9795,116424,357,19597,1171,0,46813,0.0010000000000000009
254000,1497,-3690,130131,-9474,-4533,142045,357,19591,1462,1,46814,0.0010000000000000009
255000,2888,1558,125943,11260,2448,123005,379,19626,1552,1,46815,0.0010000000000000009
256000,4054,9960,132359,2582,10027,123956,296,19605,1212,0,46816,0.0010000000000000009
257000,-1428,361,131651,-6291,-591,141341,358,19589,1466,1,46817,0.0010000000000000009
258001,341,3782,130434,2138,4907,125415,316,19589,1294,1,46818,0.0010009999999999741
259004,552,-4677,128738,1029,-4867,136973,363,19623,1294,0,46819,0.0010030000000000316
260001,4708,7018,134952,922,8140,130647,359,19610,1487,0,46820,0.0009969999999999701
261001,-7210,437,128362,-590,378,133010,359,19581,1470,1,46821,0.0010000000000000009
262000,9275,2602,130669,-3013,364,128296,237,19616,971,0,46822,0.0009990000000000276
263000,-1689,-1640,131770,25084,1284,140523,363,19603,1487,0,46823,0.0010000000000000009
264002,3343,-13693,121129,-7318,-14374,124235,393,19603,1610,1,46824,0.0010020000000000029
265001,-84,15572,132208,-11920,13567,121862,252,19599,1610,1,46825,0.0009989999999999721
266000,597,1372,127722,8525,4300,138136,356,19610,1032,0,46826,0.0009990000000000276
267000,9204,5335,123666,20058,4240,108080,356,19596,1458,1,46827,0.0010000000000000009
268000,-16799,-1597,126790,-17292,-2643,137355,457,19622,1872,1,46828,0.0009999999999999454
269000,15395,7904,126395,-1464,16431,112492,287,19599,1175,0,46829,0.0010000000000000009
270000,-4430,15111,120466,18397,10096,109428,339,19599,1388,0,46830,0.0010000000000000009
271000,6168,7903,125535,-13238,11001,127708,327,19597,1388,1,46831,0.0010000000000000009
272000,6757,11404,126185,-888,4809,116437,326,19623,1339,0,46832,0.0010000000000000009
273000,1604,7347,125430,11863,9684,127106,326,19599,1335,0,46833,0.0010000000000000009
274000,3450,3121,131140,4369,-1568,130246,372,19586,1524,1,46834,0.0010000000000000009
275000,-6065,-6235,125146,-13393,-3046,131791,307,19620,1257,1,46835,0.0010000000000000009
276000,6129,5042,131608,12152,7740,126531,368,19601,1507,0,46836,0.0010000000000000009
277000,7023,16481,132387,1776,8231,131469,377,19601,1507,1,46837,0.0010000000000000009
278000,-4721,-5547,127696,-2912,1408,131063,264,19578,1544,1,46838,0.0010000000000000009
279000,5620,9966,133500,7144,4468,134427,264,19613,1081,0,46839,0.0010000000000000009
280000,2236,-16684,128319,-617,-11027,144252,384,19602,1573,0,46840,0.0010000000000000009
281000,-9927,15874,133939,776,16340,114132,384,19606,1573,1,46841,0.0010000000000000009
282000,8906,-9470,127858,-16748,-19128,150567,260,19607,1065,0,46842,0.0010000000000000009
283000,-165,7331,133676,27890,11726,118115,364,19607,1065,0,46843,0.0010000000000000009
284000,-623,-15322,118254,10812,-15205,137137,454,19598,1491,1,46844,0.0010000000000000009
285002,3625,13071,129348,-38988,18199,118737,454,19613,1859,1,46845,0.0010020000000000029
286002,2796,16761,134340,42626,12523,126446,272,19599,1114,0,46846,0.0010000000000000009
287000,6410,-5495,118503,2416,-5127,126473,345,19597,1413,1,46847,0.0009979999999999989
288002,-5767,-1201,126479,-17649,1343,116824,371,19615,1520,1,46848,0.0010020000000000029
289000,7224,3075,127731,7778,1867,138739,334,19615,1520,0,46849,0.0009979999999999989
290000,-2741,1347,118187,13653,5907,99869,358,19585,1368,0,46850,0.0010000000000000009
291000,5051,31545,126833,-8991,31101,117483,358,19588,1466,1,46851,0.0010000000000000009
292000,10470,4975,125730,3138,538,129994,240,19617,983,0,46852,0.0010000000000000009
293000,5540,6320,117355,19851,11990,109119,374,19602,1532,0,46853,0.0010000000000000009
294000,5284,1045,131915,-6008,-1735,134883,382,19583,1565,1,46854,0.0010000000000000009
295000,-2834,1869,128237,-7994,3875,134852,240,19583,1565,1,46855,0.0010000000000000009
296000,1204,4750,128825,12661,6681,117026,348,19619,983,0,46856,0.0010000000000000009
297000,-1032,5026,132096,-6752,1073,139155,348,19604,1425,1,46857,0.0010000000000000009
298001,1857,-6377,129649,-4912,-4715,139126,407,19595,1667,1,46858,0.0010009999999999741
299000,703,2010,129564,10976,2116,121678,264,19605,1081,0,46859,0.0009990000000000276
300002,4955,1744,131134,-7905,828,143847,360,19601,1474,0,46860,0.0010020000000000029
301000,-1231,6092,133833,7057,7896,124819,445,19601,1823,1,46861,0.0009979999999999989
302000,3978,395,125277,-8255,-3000,131107,282,19626,1823,0,46862,0.0010000000000000009
303001,-515,-3140,134083,21843,-1147,136235,352,19598,1155,0,46863,0.0010009999999999741
304001,1572,-6259,123245,3763,-6664,130083,352,19594,1442,1,46864,0.0010000000000000009
305000,-4134,3153,127044,-31180,3073,121158,439,19620,1798,1,46865,0.0009990000000000276
306000,4086,14397,133696,25320,15748,128325,321,19599,1315,0,46866,0.0010000000000000009
307000,8148,1717,119819,8535,637,121354,366,19599,1499,1,46867,0.0010000000000000009
308002,-9706,1350,130484,-9859,1200,122539,237,19584,1499,1,46868,0.0010020000000000029
309002,14546,1620,123119,6395,554,121598,385,19617,971,0,46869,0.0010000000000000009
310001,-11092,16300,123544,8543,15918,102302,385,19604,1577,0,46870,0.0009989999999999721
311000,12940,14792,126523,-10755,15469,131409,367,19598,1503,1,46871,0.0009990000000000276
312000,882,971,123767,6475,-1081,120340,246,19615,1008,0,46872,0.0010000000000000009
313000,2614,8956,124021,16557,10865,120877,365,19615,1495,0,46873,0.0010000000000000009
314000,9074,6916,131390,-5728,4798,134616,410,19603,1495,1,46874,0.0010000000000000009
315002,-10003,3092,129348,-12113,3612,120902,260,19606,1679,1,46875,0.0010020000000000029
316001,18357,1284,129427,20119,-3457,137943,260,19602,1065,0,46876,0.0009989999999999721
317000,-11992,321,130204,-1759,3451,128055,340,19604,1393,1,46877,0.0009990000000000276
318000,7048,5839,132191,222,6153,138530,461,19626,1888,1,46878,0.0010000000000000009
319000,2250,5000,130179,6953,5953,124266,279,19599,1143,0,46879,0.0010000000000000009
320000,-2286,5799,131091,4073,5607,139083,338,19599,1143,0,46880,0.0010000000000000009
321000,1610,-7072,131686,-9872,-11031,136525,364,19596,1384,1,46881,0.0010000000000000009
322000,-2445,487,126685,-2679,853,124791,364,19623,1491,0,46882,0.0010000000000000009
323000,12488,-1595,131434,31358,1633,135878,326,19602,1335,0,46883,0.0010000000000000009
324000,-13659,3225,125218,-7901,1739,123792,362,19588,1483,1,46884,0.0010000000000000009
325000,9662,-888,125035,-25046,3247,125273,288,19623,1180,1,46885,0.0010000000000000009
326000,-142,15699,135869,34352,8709,132957,368,19623,1180,0,46886,0.0010000000000000009
327000,4637,-12085,117508,10422,-8796,120109,383,19606,1507,1,46887,0.0010000000000000009
328000,-909,11667,128052,-30821,12867,117483,383,19595,1569,1,46888,0.0009999999999999454
329000,2169,-6449,126778,14290,-5355,136923,259,19610,1061,0,46889,0.0010000000000000009
330000,4453,19511,119972,22406,24055,97886,372,19604,1524,0,46890,0.0010000000000000009
331000,1443,10236,123102,-17982,9226,125718,397,19620,1626,1,46891,0.0010000000000000009
332003,9462,17330,126959,2515,15267,122808,277,19620,1626,0,46892,0.0010030000000000316
333000,7137,1179,119770,21148,2323,113112,346,19598,1135,0,46893,0.0009969999999999701
334000,494,6688,129645,-4029,7294,130969,346,19599,1417,1,46894,0.0010000000000000009
335000,-1592,-8517,129703,-10016,-11141,140786,457,19621,1872,1,46895,0.0010000000000000009
336000,1948,6223,127622,6271,12501,116877,287,19595,1175,0,46896,0.0010000000000000009
337000,3535,14464,134013,6551,10466,131723,351,19595,1438,1,46897,0.0010000000000000009
338000,-3603,-5793,128716,-5827,-6447,141520,371,19595,1438,1,46898,0.0010000000000000009
339000,7837,5993,132184,2598,7627,119163,327,19621,1520,0,46899,0.0010000000000000009
340002,468,-9466,128542,4293,-10303,152948,327,19599,1339,0,46900,0.0010020000000000029
341002,-3446,9015,133182,1093,13895,117534,351,19587,1438,1,46901,0.0010000000000000009
342000,4475,1938,128877,-11555,-4348,134236,235,19617,962,0,46902,0.0009979999999999989
343000,-140,2680,133638,18567,5034,132721,382,19606,1565,0,46903,0.0010000000000000009
344000,1344,-12796,121830,10742,-14543,132302,378,19606,1548,1,46904,0.0010000000000000009
345002,544,450,125111,-28519,2920,123585,256,19580,1548,1,46905,0.0010020000000000029
346000,149,19381,136603,17924,20011,123332,374,19614,1049,0,46906,0.0009979999999999989
347000,9413,-3118,118288,15088,-5330,129754,374,19602,1532,1,46907,0.0010000000000000009
348000,-8515,10146,131629,-12586,10697,109808,421,19611,1724,1,46908,0.0010000000000000009
349000,10488,-7064,123239,8675,-8309,145758,273,19604,1118,0,46909,0.0010000000000000009
350000,-3151,14873,122584,-3344,16402,93736,352,19604,1442,0,46910,0.0010000000000000009
351000,8115,11467,125573,-2764,11522,128460,385,19598,1442,1,46911,0.0010000000000000009
352000,2799,12676,124620,26190,11706,117013,307,19624,1577,0,46912,0.0010000000000000009
353000,2848,1791,120324,-17394,1145,120801,307,19595,1257,0,46913,0.0010000000000000009
354003,8719,16870,134467,3059,17475,125571,362,19592,1483,1,46914,0.0010029999999999761
355000,-6971,-6361,126271,16298,-3761,132232,357,19620,1462,1,46915,0.0009970000000000256
356000,9289,4979,128206,-8291,4045,123020,317,19620,1298,0,46916,0.0010000000000000009
357000,-1843,63,134102,-10009,-2230,143249,367,19605,1298,0,46917,0.0010000000000000009
358000,-110,2116,128063,12397,1312,118834,270,19580,1503,1,46918,0.0010000000000000009
359000,5888,3444,131237,8708,7078,140828,270,19616,1106,0,46919,0.0010000000000000009
360000,-2910,2943,133330,-15509,1826,133203,393,19605,1610,0,46920,0.0010000000000000009
361000,-203,-1515,128210,3935,-5488,131139,359,19595,1470,1,46921,0.0010000000000000009
362000,-615,6461,130737,6611,5621,126208,268,19609,1098,1,46922,0.0010000000000000009
363000,7337,-1994,130157,-1014,-3627,139010,390,19609,1098,0,46923,0.0010000000000000009
364002,-7641,-3414,126726,18270,-2619,126543,422,19601,1597,1,46924,0.0010020000000000029
365000,6352,3107,126286,-18606,11456,119004,422,19596,1728,1,46925,0.0009979999999999989
366001,-1117,10332,132810,25711,2041,143527,275,19601,1126,0,46926,0.0010009999999999741
367000,8822,-3858,122194,-2475,-2042,106164,328,19599,1343,1,46927,0.0009990000000000276
368000,-6373,4632,124544,-17672,4560,130937,386,19622,1581,1,46928,0.0010000000000000009
369000,11417,-143,130637,24594,803,125849,302,19622,1581,0,46929,0.0010000000000000009
370000,-3365,14752,118496,453,17641,103121,349,19595,1237,0,46930,0.0010000000000000009
371000,7117,11092,124800,-9358,13025,126104,349,19591,1429,1,46931,0.0010000000000000009
372000,6507,22429,127047,9874,18412,117799,327,19614,1339,1,46932,0.0010000000000000009
373000,3549,-88,119035,14892,-876,120081,361,19603,1479,0,46933,0.0010000000000000009
374000,4714,7983,131374,-10433,8716,125871,378,19579,1548,1,46934,0.0010000000000000009
375000,-2516,-10427,128541,-4403,-12509,143166,246,19579,1548,1,46935,0.0010000000000000009
376000,2359,7234,128284,18845,17444,109883,359,19616,1008,0,46936,0.0010000000000000009
377000,5503,13752,133310,-10911,2336,142836,359,19604,1470,0,46937,0.0010000000000000009
378000,-6662,-7199,129705,-3401,-1326,133442,385,19596,1577,1,46938,0.0010000000000000009
379000,8442,9860,131776,9851,6157,123000,256,19614,1049,0,46939,0.0010000000000000009
380000,270,-12043,128885,-1998,-9850,149106,368,19606,1507,0,46940,0.0010000000000000009
381000,-4671,12771,133262,727,16670,115856,407,19606,1507,1,46941,0.0010000000000000009
382000,4296,-4204,127334,-7838,-10129,139935,269,19610,1667,1,46942,0.0010000000000000009
383000,7208,10281,134594,20381,12422,124484,269,19598,1102,0,46943,0.0010000000000000009
384000,-6756,-16675,121868,14211,-18982,140074,335,19595,1372,1,46944,0.0010000000000000009
385000,5643,583,125719,-37651,3836,119398,459,19625,1880,1,46945,0.0010000000000000009
386000,-1824,17735,135846,25693,17213,125404,281,19600,1151,0,46946,0.0010000000000000009
387000,6766,-4115,119498,16370,-5697,130355,357,19600,1151,0,46947,0.0009999999999999454
388000,721,4022,126520,-15658,3102,114004,312,19592,1462,1,46948,0.0010000000000000009
389000,204,849,126991,4045,1586,138190,312,19621,1278,0,46949,0.0010000000000000009
390000,10911,14327,122147,2808,15888,100461,346,19601,1417,0,46950,0.0010000000000000009
391000,-4334,10941,122479,9045,12086,121395,357,19593,1462,1,46951,0.0010000000000000009
392001,13775,13126,124518,5129,8390,122468,237,19614,971,1,46952,0.0010010000000000296
393002,-4022,938,120248,-6697,3104,118868,384,19614,1573,0,46953,0.0010009999999999741
394000,12885,12203,132584,11541,11269,126121,392,19603,1573,1,46954,0.0009979999999999989
395000,-10762,-4574,127086,1479,-3002,132147,267,19594,1606,1,46955,0.0010000000000000009
396000,10401,4077,128047,-8507,4789,126239,267,19607,1094,0,46956,0.0010000000000000009
397000,-1291,1805,131939,-497,-1753,133500,372,19598,1524,0,46957,0.0010000000000000009
398000,881,4265,128610,7350,4719,133649,436,19606,1786,1,46958,0.0010000000000000009
399000,6491,571,131456,8398,1961,128602,293,19606,1200,0,46959,0.0010000000000000009
400002,-3365,4335,131635,-12965,5885,135261,332,19597,1200,0,46960,0.0010020000000000029
401000,3090,-2493,131097,5024,-3080,136566,391,19601,1360,1,46961,0.0009979999999999989
402000,-1351,8508,128268,3966,7531,121440,391,19621,1601,1,46962,0.0010000000000000009
403000,10050,-8761,130797,-2509,-10919,137753,302,19598,1237,0,46963,0.0010000000000000009
404000,-5747,1510,127864,27675,6664,120288,358,19590,1466,1,46964,0.0010000000000000009
405000,1076,-1964,124829,-26632,-3935,127080,379,19590,1552,1,46965,0.0010000000000000009
406000,2546,19239,135862,2355,19065,130681,343,19619,1552,0,46966,0.0010000000000000009
407000,3565,-7132,119700,33995,-8365,120013,372,19601,1405,0,46967,0.0010000000000000009
408000,303,3772,123533,-24974,3020,121753,372,19579,1524,1,46968,0.0010000000000000009
409002,5737,-2399,129460,4511,4304,129126,262,19610,1073,0,46969,0.0010020000000000029
410002,744,14507,121228,22370,14834,102191,404,19604,1655,0,46970,0.0010000000000000009
411002,2885,8260,120394,-7161,13878,124319,375,19605,1536,1,46971,0.0010000000000000009
412000,9295,26292,130093,5364,16257,121289,262,19605,1536,1,46972,0.0009979999999999989
413000,2729,-7306,115217,20214,1331,118569,359,19610,1073,0,46973,0.0010000000000000009
414001,7367,16301,132643,-7700,7937,125405,359,19599,1470,1,46974,0.0010010000000000296
415002,-7351,-15043,128820,-9488,-14197,142507,440,19615,1802,1,46975,0.0010009999999999741
416000,5660,10660,128963,11487,17985,116688,262,19604,1073,0,46976,0.0009979999999999989
417001,3341,4487,129805,-600,-597,137821,337,19596,1380,0,46977,0.0010009999999999741
418002,-2405,9455,131737,-74,13744,128447,442,19596,1380,1,46978,0.0010010000000000296
419001,9550,-3503,130887,-4129,-12808,136106,297,19622,1810,0,46979,0.0009989999999999721
420000,-5795,-5591,128979,3943,2733,133919,297,19599,1216,0,46980,0.0009990000000000276
421000,2851,7311,134045,6712,4886,131284,343,19592,1405,1,46981,0.0010000000000000009
422003,-2375,-3866,125289,-15922,-3176,130300,321,19619,1315,1,46982,0.0010029999999999761
423000,5651,14631,136537,28384,11788,126609,358,19613,1466,0,46983,0.0009970000000000256
424000,-1494,-17601,124888,-4615,-21446,144890,371,19613,1466,1,46984,0.0010000000000000009
425000,2447,-1704,124129,-15124,9450,109172,273,19576,1520,1,46985,0.0010000000000000009
426000,-927,17652,137175,13082,9155,139320,273,19615,1118,0,46986,0.0010000000000000009
427000,12252,-4657,120015,8742,-104,118231,363,19602,1487,0,46987,0.0010000000000000009
428000,-10308,10057,126565,-2298,5482,117413,399,19603,1634,1,46988,0.0010000000000000009
429000,14916,-6090,127654,-6962,-3315,139582,272,19607,1114,0,46989,0.0010000000000000009
430000,-6447,18461,121183,15117,21221,97539,401,19607,1114,0,46990,0.0010000000000000009
431000,6621,8330,123819,-1284,7932,126820,406,19606,1642,1,46991,0.0010000000000000009
432000,7480,21703,125316,-5564,18504,113655,406,19627,1663,1,46992,0.0010000000000000009
433000,3330,4072,121921,19420,3424,121777,280,19599,1147,0,46993,0.0010000000000000009
434000,8526,-162,129961,4235,1033,130599,350,19595,1433,1,46994,0.0010000000000000009
435000,-8178,56,129465,-14261,273,127715,384,19624,1573,1,46995,0.0010000000000000009
436000,6645,-84,128512,6827,1617,133818,296,19624,1212,0,46996,0.0010000000000000009
437000,-182,14691,132827,5699,12052,118811,359,19600,1212,0,46997,0.0010000000000000009
438010,-453,-6688,128248,-11730,-7937,145340,318,19588,1470,1,46998,0.0010099999999999554
439000,6485,369,132459,12061,3731,129128,318,19620,1302,0,46999,0.0009900000000000464
440000,-594,4817,130060,839,4021,131966,351,19606,1438,0,47000,0.0010000000000000009
441000,-1081,2973,131027,-4433,4649,134694,355,19591,1454,1,47001,0.0010000000000000009
442000,-1120,6639,130611,-4695,2787,123696,239,19591,979,1,47002,0.0010000000000000009
443000,7961,-6887,128893,14147,-6498,137196,371,19616,979,0,47003,0.0010000000000000009
444002,-4440,-5152,126552,18162,-2293,132604,392,19605,1520,1,47004,0.0010019999999999474
445000,2439,1101,128086,-26426,1173,119971,392,19595,1606,1,47005,0.0009980000000000544
446000,1612,13305,131433,2154,13485,131869,252,19610,1032,0,47006,0.0010000000000000009
447000,7118,44,122838,35438,-1011,123542,355,19604,1454,0,47007,0.0009999999999999454
448000,-5488,-5483,123569,-26559,-6615,122653,457,19604,1872,1,47008,0.0010000000000000009
449000,12099,9359,130546,3872,10255,126746,288,19626,1872,0,47009,0.0010000000000000009
450000,-3807,8925,120597,24389,11849,113785,341,19594,1180,0,47010,0.0010000000000000009
451000,7563,14372,122457,-10935,10581,114132,341,19602,1397,1,47011,0.0010000000000000009
452000,3651,18106,128569,-4918,18000,129535,335,19617,1372,1,47012,0.0010000000000000009
453000,4774,-3829,117031,16139,-4584,112500,330,19593,1352,0,47013,0.0010000000000000009
454000,7472,12485,132147,15358,15939,130615,372,19587,1524,1,47014,0.0010000000000000009
455000,-6052,-11681,127920,-19280,-4833,138109,307,19587,1524,1,47015,0.0010000000000000009
456000,9519,9784,128838,2317,12932,120050,361,19618,1257,0,47016,0.0010000000000000009
457000,-864,6743,130190,11227,2415,133350,361,19605,1479,0,47017,0.0010000000000000009
458000,-2794,7176,131493,-2032,5216,134950,382,19579,1565,1,47018,0.0010000000000000009
459000,5985,-9030,129257,-4631,-11717,131821,243,19617,995,0,47019,0.0010000000000000009
460000,-4184,1430,131766,9969,10525,129988,374,19604,1532,0,47020,0.0010000000000000009
461000,8941,2628,131741,6360,-639,138875,381,19604,1532,1,47021,0.0010000000000000009
462000,-6484,-1424,125985,-18464,4370,121949,283,19600,1560,1,47022,0.0010000000000000009
463000,8953,12517,136424,30095,4783,138229,283,19599,1159,0,47023,0.0010000000000000009
464000,-985,-17856,122963,-5630,-17632,135073,369,19595,1511,1,47024,0.0010000000000000009
465000,-440,4552,126979,-11541,13513,110066,453,19612,1855,1,47025,0.0010000000000000009
466000,3010,3963,133867,11183,-4806,148200,267,19595,1094,0,47026,0.0010000000000000009
467000,5488,4301,121908,8455,8949,105849,343,19595,1094,0,47027,0.0010000000000000009
468000,-7496,4367,127377,-8053,552,130917,368,19592,1405,1,47028,0.0010000000000000009
469002,13074,-1227,128590,1106,2844,130937,368,19619,1507,0,47029,0.0010020000000000029
470003,-6850,11391,120398,14203,16884,98667,317,19592,1298,0,47030,0.0010010000000000296
471000,12242,11550,124782,-10225,7967,129206,351,19590,1438,1,47031,0.0009969999999999701
472000,372,17855,124755,9766,16656,111408,244,19623,999,1,47032,0.0010000000000000009
473000,6977,6605,120932,16054,4604,120684,374,19623,999,0,47033,0.0010000000000000009
474000,3956,993,130660,-11310,1988,132305,382,19603,1532,1,47034,0.0010000000000000009
475000,-3515,2087,130991,-1322,2458,128591,382,19579,1565,1,47035,0.0010000000000000009
476000,4972,-3995,125827,11270,-1593,132764,238,19619,975,0,47036,0.0010000000000000009
477000,-322,14589,133485,-6345,12712,121514,347,19601,1421,0,47037,0.0010000000000000009
478000,3506,-5065,129226,-7158,-7868,146066,402,19596,1646,1,47038,0.0010000000000000009
479000,4135,2403,131186,20785,9199,120935,269,19596,1102,0,47039,0.0010000000000000009
480001,-2923,515,130578,-85,-1635,139434,370,19607,1102,0,47040,0.0010009999999999741
481000,2631,1201,132732,-14791,2795,133265,440,19603,1515,1,47041,0.0009990000000000276
482000,-6724,5370,130695,2352,1208,125634,440,19619,1802,1,47042,0.0010000000000000009
483003,13121,-2052,129899,9992,-400,131825,297,19598,1216,0,47043,0.0010029999999999761
484000,-8477,-9663,126890,19861,-8073,141241,354,19594,1450,0,47044,0.0009970000000000256
485000,5796,1861,129280,-23578,4029,116395,442,19594,1810,1,47045,0.0010000000000000009
486000,3356,9007,128777,-1836,9006,134303,305,19620,1810,0,47046,0.0010000000000000009
487000,1980,7815,126246,41034,7863,121597,364,19601,1249,0,47047,0.0010000000000000009
488000,4259,-7623,119572,-24493,-9974,122350,364,19586,1491,1,47048,0.0010000000000000009
489001,-2553,7554,131571,-3768,11252,125952,242,19618,991,1,47049,0.0010009999999999741
490000,8694,5426,123818,21047,6761,117699,386,19603,1581,0,47050,0.0009990000000000276
491001,-6097,10162,118573,6385,9958,113366,361,19603,1479,1,47051,0.0010009999999999741
492001,12687,18813,129232,-15521,16872,119112,252,19605,1479,1,47052,0.0010000000000000009
493000,2711,-235,117665,12428,-1003,130523,372,19615,1032,0,47053,0.0009990000000000276
494000,8433,13570,130233,22549,17782,105705,372,19598,1524,1,47054,0.0010000000000000009
495002,-4531,-3225,131219,-18286,-2458,143907,410,19603,1679,1,47055,0.0010020000000000029
496000,7649,-6693,125635,-11731,-7671,133284,256,19607,1049,0,47056,0.0009979999999999989
497001,-2051,17715,132745,26782,17512,116317,341,19602,1397,0,47057,0.0010009999999999741
498001,71,-3130,128860,-13392,-3471,140017,471,19602,1397,1,47058,0.0010000000000000009
499001,3904,1893,133152,-12759,4549,127074,284,19623,1929,1,47059,0.0010000000000000009
500000,-468,-4672,130643,20077,-1678,141395,284,19598,1163,0,47060,0.0009990000000000276
501000,913,2205,128946,10410,1406,127361,342,19599,1401,1,47061,0.0010000000000000009
502000,-3934,11197,133519,-21621,3044,126812,335,19625,1372,1,47062,0.0010000000000000009
503000,11485,178,131040,-4721,-898,137284,320,19601,1311,0,47063,0.0010000000000000009
504000,-7243,-5661,128586,45195,-7564,124300,365,19601,1311,0,47064,0.0010000000000000009
505000,5611,-14377,124704,-27500,-11448,138730,314,19585,1495,1,47065,0.0010000000000000009
506000,-1551,11733,135289,-6569,20925,119336,314,19623,1286,0,47066,0.0010000000000000009
507000,5809,11390,122457,15268,4232,119735,376,19601,1540,0,47067,0.0010000000000000009
508000,95,3249,125063,-17457,6224,124272,384,19594,1573,1,47068,0.0010000000000000009
509000,7058,194,129737,8517,-6654,131366,258,19613,1057,1,47069,0.0010000000000000009
510000,-1579,-3001,117630,15671,12653,107145,374,19613,1057,0,47070,0.0010000000000000009
511001,8670,28333,127806,-14215,20057,116774,399,19600,1532,1,47071,0.0010009999999999186
512000,-1845,5289,123850,13101,6021,126038,399,19614,1634,1,47072,0.0009990000000000832
513001,7064,7694,119355,6061,6226,113301,292,19599,1196,0,47073,0.0010009999999999186
514001,5587,2918,130030,-2161,7636,132422,351,19592,1438,0,47074,0.0010000000000000009
515000,-2441,-533,130063,3074,-5162,132719,459,19622,1880,1,47075,0.0009990000000000832
516000,7223,1238,126747,-1695,10695,116633,281,19622,1880,0,47076,0.0010000000000000009
517000,2444,6009,130408,-514,-3549,144798,357,19606,1151,0,47077,0.0010000000000000009
518001,-931,1592,131212,7499,6129,125099,357,19587,1462,1,47078,0.0010009999999999186
519000,3808,2527,129346,-4887,1538,131616,387,19617,1585,1,47079,0.0009990000000000832
520002,-5123,-1874,133120,2771,2565,140714,335,19601,1372,0,47080,0.0010019999999999474
521003,5083,9892,134105,971,6854,125230,353,19591,1446,1,47081,0.0010010000000000296
522003,-6637,-5607,125896,-5168,-8258,136352,263,19591,1077,1,47082,0.0010000000000000009
523001,13982,6831,135574,4674,6017,123818,400,19614,1077,0,47083,0.0009979999999999434
524000,-8783,-16916,124306,30126,-11552,142709,400,19603,1638,0,47084,0.0009990000000000832
525000,5676,3962,127242,-26697,4979,115982,382,19577,1565,1,47085,0.0010000000000000009
526000,-266,16129,135182,-791,15851,129425,243,19615,995,0,47086,0.0010000000000000009
527002,1750,-1112,122633,31015,-2868,132949,355,19599,1454,0,47087,0.0010019999999999474
528002,7940,-3374,121091,-9388,-3327,109768,409,19599,1675,1,47088,0.0010000000000000009
529000,-8830,839,129112,-4393,4056,139276,290,19600,1675,1,47089,0.0009980000000000544
530000,15953,10383,125308,7930,12951,107072,355,19597,1188,0,47090,0.0010000000000000009
531000,-7705,14043,119222,18605,12639,115863,355,19601,1454,1,47091,0.0010000000000000009
532000,9751,12924,126815,-14324,12201,123081,387,19623,1585,1,47092,0.0010000000000000009
533000,4042,5697,120704,-2471,4039,120800,295,19601,1208,0,47093,0.0010000000000000009
534000,1721,798,127439,23575,4520,123293,365,19601,1495,0,47094,0.0010000000000000009
535000,1073,1052,130887,-6568,1595,131419,361,19593,1495,1,47095,0.0010000000000000009
536000,1726,-4942,126443,-13473,-5452,134258,314,19623,1479,0,47096,0.0009999999999998899
537000,5348,12992,131064,18074,12724,123492,314,19602,1286,0,47097,0.0010000000000000009
538000,4961,6862,129482,-2154,5746,133114,360,19577,1474,1,47098,0.0010000000000000009
539000,1919,-5681,130013,-1729,-2399,135814,286,19620,1171,1,47099,0.0010000000000000009
540000,1357,5430,133622,6175,7318,127060,399,19607,1634,0,47100,0.0010000000000000009
541000,-2866,-10331,128518,2792,-10925,144634,364,19607,1634,1,47101,0.0010000000000000009
542000,-5301,17856,135170,-3630,18356,115216,247,19594,1491,1,47102,0.0010000000000000009
543001,9146,-13285,128214,-14802,-14340,144596,247,19615,1012,0,47103,0.0010010000000000296
544000,-5127,4680,131121,36836,8668,128508,362,19600,1483,0,47104,0.0009989999999999721
545000,6912,-10198,126106,-11598,-8779,129417,413,19591,1692,1,47105,0.0010000000000000009
546000,1300,15618,129884,-15364,13365,119187,275,19599,1126,0,47106,0.0010000000000000009
547000,4878,2828,125996,38046,6395,131350,330,19599,1126,0,47107,0.0010000000000000009
548000,2849,-3644,121809,-15007,-6436,115513,401,19597,1352,1,47108,0.0010000000000000009
549000,-594,2908,132610,-1678,2986,132913,401,19622,1642,1,47109,0.0010000000000000009
550000,-34,1990,121394,13348,5943,114475,304,19590,1245,0,47110,0.0010000000000000009
551000,2183,14827,122666,-417,21641,109613,350,19595,1433,1,47111,0.0010000000000000009
552001,2943,18259,126821,-3676,10768,127302,283,19622,1159,1,47112,0.0010010000000000296
553000,8903,-326,117890,10637,674,118606,345,19622,1159,0,47113,0.0009989999999999721
554000,8969,13849,129466,-2762,12541,118993,369,19602,1413,0,47114,0.0010000000000000009
555000,-5386,-6611,129284,-2648,-4477,142560,369,19579,1511,1,47115,0.0010000000000000009
556000,7630,4493,128594,1292,4649,120308,249,19615,1020,0,47116,0.0010000000000000009
557000,-2862,4967,129587,-2010,4804,129469,379,19602,1552,0,47117,0.0010000000000000009
558000,2288,-165,133599,-2300,-3631,144747,385,19592,1577,1,47118,0.0010000000000000009
559001,3323,-4700,128508,9722,2689,119668,254,19592,1577,1,47119,0.0010010000000000296
560000,-588,7626,133614,-5283,5266,137440,379,19610,1040,0,47120,0.0009989999999999721
561002,9220,-5581,133003,7497,-4096,141202,379,19602,1552,1,47121,0.0010020000000000584
562000,-11152,7708,127763,-6415,3732,119795,411,19614,1683,1,47122,0.0009979999999999434
563000,14112,2148,132855,9522,4217,132244,272,19600,1114,0,47123,0.0010000000000000009
564000,-9208,-2616,127893,11691,-3510,136386,334,19597,1368,0,47124,0.0010000000000000009
565000,7763,-8172,124572,-11481,-2155,116000,470,19597,1368,1,47125,0.0010000000000000009
566000,-2821,11259,132252,-2146,10083,137458,286,19619,1925,0,47126,0.0010000000000000009
567001,5760,4077,125989,21147,5274,120381,286,19598,1171,0,47127,0.0010010000000000296
568000,1555,1731,122787,-9999,-20,120781,360,19590,1474,1,47128,0.0009989999999999721
569000,2314,-4528,129118,4244,2565,129828,329,19619,1347,1,47129,0.0010000000000000009
570000,8361,11037,122644,7396,11177,112992,347,19596,1421,0,47130,0.0010000000000000009
571000,164,6671,122734,10717,8408,115670,357,19596,1462,1,47131,0.0010000000000000009
572001,2727,22538,126611,-19199,20970,115118,232,19585,1462,1,47132,0.0010010000000000296
573000,6880,1109,122176,13706,1439,127942,390,19619,950,0,47133,0.0009989999999999721
574002,-2108,8686,128738,24586,12550,117075,390,19600,1597,0,47134,0.0010020000000000584
575000,203,-12892,125135,-36100,-12896,142706,393,19594,1610,1,47135,0.0009979999999999434
576001,6152,14411,134342,7333,16480,119422,251,19608,1028,0,47136,0.0010010000000000296
577000,6838,4155,127522,30525,3263,129886,353,19608,1446,0,47137,0.0009989999999999721
578000,-1205,2142,130669,-25373,1384,129898,435,19602,1446,1,47138,0.0010000000000000009
579000,6710,-4683,133419,-3473,-2830,141247,270,19611,1782,1,47139,0.0010000000000000009
580000,-2039,889,129214,25127,3579,130907,270,19596,1106,0,47140,0.0010000000000000009
581000,-2410,5918,132661,-3779,6789,128869,328,19599,1343,1,47141,0.0010000000000000009
582000,-4681,4861,134598,-24615,2799,135994,403,19623,1651,1,47142,0.0010000000000000009
583000,5353,-10348,127209,6435,-9946,132686,300,19599,1229,0,47143,0.0010000000000000009
584002,1993,-317,131758,34236,3679,127941,357,19599,1229,0,47144,0.0010020000000000584
585000,-1068,-4042,124373,-10287,-3802,129882,376,19592,1462,1,47145,0.0009979999999999434
586000,8899,11301,127435,-33647,11829,121770,376,19620,1540,0,47146,0.0010000000000000009
587000,-3531,7258,134291,53420,8388,126647,341,19608,1397,0,47147,0.0010000000000000009
588000,7726,-3444,119574,-1608,-3736,128181,374,19587,1532,1,47148,0.0010000000000000009
589000,-9244,1540,131198,-28881,3143,116663,250,19613,1024,1,47149,0.0010000000000000009
590000,12913,8082,124517,19581,9543,131634,408,19613,1024,0,47150,0.0010000000000000009
591000,-1066,5300,120409,22860,7643,103349,375,19604,1671,1,47151,0.0010000000000000009
592000,5607,22961,127211,-20269,20586,127733,375,19603,1536,1,47152,0.0010000000000000009
593000,8893,1706,125346,2915,2723,122709,260,19608,1065,0,47153,0.0010000000000000009
594002,3374,7356,121991,21901,8972,108383,363,19596,1487,0,47154,0.0010019999999999474
595000,3360,4304,132193,-4954,6029,148072,440,19613,1802,1,47155,0.0009980000000000544
596000,-1997,-7379,128708,-9514,-5826,123318,263,19613,1802,0,47156,0.0010000000000000009
597002,6707,10470,127941,9587,13910,123992,336,19606,1077,0,47157,0.0010019999999999474
598000,-5983,1500,134883,4312,-3077,143632,336,19594,1376,1,47158,0.0009980000000000544
599000,6078,-2210,127461,-12034,3829,126969,410,19627,1679,1,47159,0.0010000000000000009
600000,4431,6554,134060,7734,3732,129417,297,19601,1216,0,47160,0.0010000000000000009
601000,-6189,-6665,129615,16696,-2715,145355,347,19597,1421,1,47161,0.0010000000000000009
602000,1759,8882,133730,-12534,7281,115085,349,19597,1421,1,47162,0.0010000000000000009
603000,2871,-4095,128662,-3829,-2545,135208,371,19616,1429,0,47163,0.0010000000000000009
604002,-4664,-3288,131051,38305,498,139788,371,19604,1520,0,47164,0.0010019999999999474
605000,10037,-4430,127760,-28105,-5018,113295,374,19574,1532,1,47165,0.0009980000000000544
606000,-6229,3348,126809,-1023,8688,144320,234,19617,958,0,47166,0.0010000000000000009
607000,7485,13027,133159,33522,7315,114739,366,19604,1499,0,47167,0.0010000000000000009
608000,2714,-6568,116384,-21088,-4177,123601,396,19604,1499,1,47168,0.0010000000000000009
609005,-9290,7736,136001,15293,8913,128530,266,19600,1622,1,47169,0.0010050000000000336
610000,11495,-5064,119230,-3630,-1074,117881,370,19608,1089,0,47170,0.0009949999999999681
611001,-4986,23696,125225,4880,25224,109658,370,19600,1515,1,47171,0.0010010000000000296
612000,7353,9085,126267,8907,5665,124655,422,19626,1728,1,47172,0.0009989999999999721
613000,1205,5788,120299,-5083,6676,118357,289,19596,1184,0,47173,0.0010000000000000009
614000,8939,5976,129807,1756,7800,122917,351,19596,1438,0,47174,0.0010000000000000009
615001,2504,4466,130216,12472,3847,137173,399,19600,1438,1,47175,0.0010010000000000296
616000,-556,-7928,126811,-636,-5265,122093,304,19617,1634,0,47176,0.0009989999999999721
617000,8053,12623,130464,-12845,9312,135736,304,19600,1245,0,47177,0.0010000000000000009
618000,-3326,-3462,132984,9372,-1947,132406,368,19589,1507,1,47178,0.0010000000000000009
619000,4574,7501,129574,10704,9982,126245,342,19617,1401,1,47179,0.0010000000000000009
620000,-2084,-9845,131000,-7974,-9236,143334,361,19617,1479,0,47180,0.0010000000000000009
621000,5700,12544,135495,1957,14766,126555,355,19599,1479,1,47181,0.0010000000000000009
622000,-10224,-3808,125416,3979,-5008,130923,235,19588,1454,1,47182,0.0010000000000000009
623000,13680,8003,134737,-13398,6984,128134,235,19620,962,0,47183,0.0010000000000000009
624000,-8620,-15105,128584,32906,-12264,142398,374,19603,1532,0,47184,0.0010000000000000009
625000,4825,1823,124594,-17698,4272,120436,391,19591,1601,1,47185,0.0010000000000000009
626000,2256,9576,133291,-5725,11241,123509,257,19591,1053,0,47186,0.0010000000000000009
627000,-1075,3905,125442,31035,2340,136261,367,19608,1053,0,47187,0.0010000000000000009
628000,10072,-5846,122288,-14692,-6237,110358,454,19602,1503,1,47188,0.0010000000000000009
629000,-12794,6330,130617,-6423,8677,133389,454,19621,1859,1,47189,0.0010000000000000009
630001,12526,-3398,123733,25773,-1248,124323,284,19596,1163,0,47190,0.0010009999999999186
631000,-5870,20570,120930,-6259,22831,99556,339,19596,1388,1,47191,0.0009990000000000832
632000,4548,17010,128832,-7896,14618,129699,331,19620,1356,1,47192,0.0010000000000000009
633000,8923,6299,122687,14605,8306,120094,320,19620,1356,0,47193,0.0010000000000000009
634000,2676,-889,122162,8808,793,115509,369,19596,1311,0,47194,0.0010000000000000009
635000,4581,7120,134727,-10462,8090,136643,369,19588,1511,1,47195,0.0010000000000000009
636002,1321,-9556,123814,8288,-8570,133071,315,19623,1290,0,47196,0.0010019999999999474
637002,395,17794,131764,7002,16759,112592,353,19607,1446,0,47197,0.0010000000000000009
638002,6829,-3699,133905,-11250,-2280,149030,375,19573,1536,1,47198,0.0010000000000000009
639000,-5893,-3014,126457,4168,-1872,119810,261,19573,1536,1,47199,0.0009980000000000544
640000,6434,8985,134407,8548,10822,141811,395,19613,1069,0,47200,0.0010000000000000009
641000,-921,-5648,130534,-6075,-5836,133304,395,19608,1618,1,47201,0.0010000000000000009
642000,-4143,15302,133952,4435,13580,120396,380,19599,1556,1,47202,0.0010000000000000009
643000,8623,-12150,127788,-8096,-5224,137710,261,19606,1069,0,47203,0.0010000000000000009
644000,-2543,-528,131597,25569,-2406,139119,373,19597,1528,0,47204,0.0010000000000000009
645000,-462,-9316,124923,-2271,1046,114265,446,19597,1528,1,47205,0.0010000000000000009
646000,5894,12046,126352,-28771,14735,134989,263,19613,1827,0,47206,0.0010000000000000009
647000,-828,10022,134289,30218,1016,124307,263,19603,1077,0,47207,0.0010000000000000009
648000,11504,-8536,116827,-17862,-4381,118999,343,19597,1405,1,47208,0.0010000000000000009
649000,-14206,5109,131622,9614,3607,134153,347,19620,1421,1,47209,0.0010000000000000009
650000,10946,4295,123145,-524,13512,107744,322,19596,1319,0,47210,0.0010000000000000009
651000,-3508,18759,123828,-2093,12812,116638,351,19596,1319,1,47211,0.0010000000000000009
652000,3815,8584,126691,18193,10588,121673,259,19587,1438,1,47212,0.0010000000000000009
653000,7505,4841,120946,-7808,-337,126786,259,19620,1061,0,47213,0.0010000000000000009
654000,971,5209,126946,219,16132,113173,378,19602,1548,0,47214,0.0010000000000000009
655000,8262,12858,130646,8579,6974,135355,383,19588,1569,1,47215,0.0009999999999998899
656000,-3047,-10427,127612,2382,-13723,128932,246,19616,1008,0,47216,0.0010000000000000009
657001,7166,4405,129083,-9430,6419,131330,353,19616,1446,0,47217,0.0010010000000000296
658000,-1277,-488,133869,1685,-438,137631,398,19600,1446,1,47218,0.0009989999999999721
659000,-1364,13471,129888,12109,17060,121336,261,19601,1630,1,47219,0.0010000000000000009
660002,4632,-858,130561,-5037,-480,137238,261,19607,1069,0,47220,0.0010020000000000584
661000,381,-257,134699,-1401,-2367,138780,356,19603,1458,0,47221,0.0009979999999999434
662000,-1875,-9642,124941,6704,-6541,129716,447,19626,1831,1,47222,0.0010000000000000009
663000,4503,10652,133518,-12252,8787,125752,283,19626,1159,0,47223,0.0010000000000000009
664000,1028,-5395,130818,26844,-3170,138780,347,19596,1159,0,47224,0.0010000000000000009
665000,3337,-1230,122598,-10501,-237,122790,404,19599,1421,1,47225,0.0010000000000000009
666000,-626,3079,130832,-8460,5587,125900,404,19624,1655,1,47226,0.0010000000000000009
667001,1900,7680,128794,27943,4855,137053,309,19603,1266,0,47227,0.0010010000000000296
668000,3084,-2362,122380,-8721,-1085,107373,370,19583,1515,1,47228,0.0009989999999999721
669000,-9828,7894,129634,-13790,8804,131080,252,19583,1032,1,47229,0.0010000000000000009
670002,14802,-3425,125232,23660,428,125203,386,19619,1032,0,47230,0.0010020000000000584
671002,-6613,16274,120667,2237,17916,102752,363,19610,1581,1,47231,0.0010000000000000009
672000,8790,14066,127747,-9028,11930,128183,363,19604,1487,1,47232,0.0009979999999999434
673000,4599,14411,125785,7902,15540,115912,256,19611,1049,0,47233,0.0010000000000000009
674000,4144,-2569,120927,12874,-1770,120783,377,19598,1544,0,47234,0.0010000000000000009
675000,3573,7479,134404,-7316,9160,129683,414,19600,1696,1,47235,0.0010000000000000009
676000,-821,-13114,125306,-1771,-12723,141499,274,19600,1696,1,47236,0.0010000000000000009
677000,1548,22093,133155,11972,22066,110210,355,19605,1122,0,47237,0.0010000000000000009
678000,4796,-65,132103,-9866,-367,145047,355,19597,1454,1,47238,0.0010000000000000009
679000,-3217,-1735,129489,1060,-613,129904,473,19616,1937,1,47239,0.0010000000000000009
680000,5283,-2794,129907,6928,-1209,129174,289,19592,1184,0,47240,0.0010000000000000009
681000,1437,-4674,131492,-1993,-4036,144875,343,19599,1405,0,47241,0.0010000000000000009
682000,-5963,15151,133618,2407,14568,117184,340,19599,1405,1,47242,0.0010000000000000009
683000,6414,-3595,128286,-11551,-5201,137559,322,19623,1393,0,47243,0.0010000000000000009
684000,351,917,132682,28618,5491,131574,322,19595,1319,0,47244,0.0010000000000000009
685000,-77,-18214,122450,-950,-19967,136363,365,19585,1495,1,47245,0.0010000000000000009
686000,5495,12595,128333,-25726,10428,122464,334,19618,1368,1,47246,0.0010000000000000009
687001,-2265,11321,133324,27893,14398,132280,384,19607,1573,0,47247,0.0010010000000000296
688001,13996,1836,120498,4316,45,113973,384,19607,1573,1,47248,0.0010000000000000009
689001,-19041,-4971,127772,-6260,-2078,136791,256,19594,1573,1,47249,0.0010000000000000009
690000,17115,8824,125319,-2008,13040,111480,256,19613,1049,0,47250,0.0009989999999999721
691000,-9992,11669,120776,6501,12819,113136,385,19603,1577,0,47251,0.0010000000000000009
692001,7495,14421,128475,6574,12960,120458,395,19619,1618,1,47252,0.0010010000000000296
693000,6096,2619,121418,1917,-2537,125131,270,19599,1106,0,47253,0.0009989999999999721
694000,2675,12810,127433,301,18879,116105,355,19599,1106,0,47254,0.0010000000000000009
695000,10487,1437,129432,506,-2051,136224,466,19598,1454,1,47255,0.0010000000000000009
696003,-8493,25,127627,7,586,125599,466,19624,1909,1,47256,0.0010029999999999761
697000,10735,1,130036,-60,-303,133416,276,19603,1130,0,47257,0.0009970000000000256
698000,-4339,6128,133481,-3528,4977,132385,351,19593,1438,1,47258,0.0010000000000000009
699000,386,-1427,128780,10659,584,134352,387,19620,1585,1,47259,0.0010000000000000009
700000,3108,7840,131494,-2870,12859,124282,315,19620,1585,0,47260,0.0010000000000000009
701000,-794,-2555,131871,-1875,-7224,145741,347,19599,1290,0,47261,0.0010000000000000009
702003,2611,5123,130933,6621,8123,120239,262,19584,1421,1,47262,0.0010029999999999761
703000,2628,-4128,128366,-13649,-10929,136066,262,19619,1073,0,47263,0.0009970000000000256
704001,1227,-3822,130864,32301,3443,137402,397,19605,1626,0,47264,0.0010010000000000296
705000,-400,-2149,123470,-15066,-3221,121867,374,19579,1532,1,47265,0.0009989999999999721
706000,370,8529,128188,-14209,16833,123408,239,19579,979,1,47266,0.0010000000000000009
707000,3031,13831,134401,37860,2682,134587,355,19611,979,0,47267,0.0010000000000000009
708000,6769,-11031,117717,-9221,-7214,116475,418,19598,1454,1,47268,0.0010000000000000009
709002,-11421,5749,131162,-14224,3204,127151,418,19614,1712,1,47269,0.0010020000000000584
710002,14313,-27,125525,19596,7826,122883,281,19603,1151,0,47270,0.0010000000000000009
711000,-8682,20882,120719,8447,18807,104460,370,19599,1515,0,47271,0.0009979999999999434
712000,8189,8240,127881,-14716,9758,125294,405,19599,1659,1,47272,0.0010000000000000009
713000,6485,20978,126443,7239,18098,120192,289,19624,1659,0,47273,0.0010000000000000009
714000,4181,-5323,120064,22667,-750,119367,360,19604,1184,0,47274,0.0010000000000000009
715000,5133,10873,131403,-12433,7821,127108,360,19593,1474,1,47275,0.0010000000000000009
716000,-4971,-13338,128384,-6086,-10451,140340,376,19623,1540,1,47276,0.0010000000000000009
717000,7937,14633,130591,16980,13550,119833,317,19605,1298,0,47277,0.0010000000000000009
718000,-4281,3175,132848,-2503,2676,135576,363,19581,1487,1,47278,0.0010000000000000009
719001,-1304,6590,132516,-7944,7163,132700,256,19581,1487,1,47279,0.0010010000000000296
720000,6706,-6726,126893,4852,-7017,133049,379,19620,1049,0,47280,0.0009989999999999721
721005,-2915,-1237,131237,8058,1454,135211,379,19605,1552,0,47281,0.0010050000000000336
722000,2896,3913,131480,-4527,2338,133401,367,19588,1503,1,47282,0.0009949999999999681
723000,1881,4410,129773,-10390,3645,124633,268,19613,1098,0,47283,0.0010000000000000009
724000,-922,4956,132848,34644,7010,135143,379,19599,1552,0,47284,0.0010000000000000009
725000,8995,-20351,122653,-18150,-21615,136650,417,19599,1552,1,47285,0.0010000000000000009
726000,-7275,11726,129352,-5208,12417,116000,264,19598,1708,1,47286,0.0010000000000000009
727001,6805,-1162,127761,21959,-403,140161,264,19601,1081,0,47287,0.0010010000000000296
728000,3304,10481,123749,-3476,8900,109062,341,19590,1397,1,47288,0.0009989999999999721
729001,-15137,-178,129183,-2046,1735,130001,416,19623,1704,1,47289,0.0010010000000000296
730001,18132,3154,123223,-3256,1325,128679,293,19593,1200,0,47290,0.0010000000000000009
731001,-10911,13777,120662,14877,16027,104809,345,19593,1200,0,47291,0.0010000000000000009
732000,14058,10166,125985,-205,9517,123513,302,19596,1413,1,47292,0.0009989999999999721
733001,3311,16087,121911,-4738,16578,115283,302,19620,1237,0,47293,0.0010010000000000296
734002,5704,3876,126110,20844,6049,128925,351,19597,1438,0,47294,0.0010009999999999186
735000,2973,-5304,127534,-6602,-3883,131728,374,19580,1532,1,47295,0.0009980000000000544
736000,-1127,536,128363,-5464,-751,129306,237,19620,971,1,47296,0.0010000000000000009
737000,3778,8437,131396,10433,10387,123897,367,19620,971,0,47297,0.0010000000000000009
738000,1828,10354,131999,-5759,696,136420,382,19604,1503,1,47298,0.0010000000000000009
739000,753,-8088,129016,-364,-5036,137103,382,19584,1565,1,47299,0.0010000000000000009
740000,-1368,1959,129294,11811,8211,125445,271,19607,1110,0,47300,0.0010000000000000009
741000,7003,-3405,130375,-7372,-1746,141801,377,19603,1544,0,47301,0.0010000000000000009
742001,-8097,13381,133743,1421,17411,117625,400,19610,1638,1,47302,0.0010010000000000296
743002,11679,-582,127535,-8736,-7828,135902,268,19610,1638,0,47303,0.0010009999999999186
744000,-2773,-6791,129812,31821,-6412,141801,335,19597,1098,0,47304,0.0009980000000000544
745001,2661,-10901,124240,-15192,-4405,119332,335,19597,1372,1,47305,0.0010009999999999186
746000,81,10578,128485,-14245,14295,130682,482,19626,1974,1,47306,0.0009990000000000832
747003,-1206,12530,132834,42656,9527,122688,279,19604,1143,0,47307,0.0010029999999999761
748000,8492,-2606,118674,-20568,-7833,124139,352,19591,1442,1,47308,0.0009970000000000256
749000,-12788,-3588,128858,-6654,69,128783,342,19591,1401,1,47309,0.0010000000000000009
750000,14932,10121,125783,21667,13936,116538,337,19618,1401,0,47310,0.0010000000000000009
751000,-7016,9362,119849,4273,11070,111774,355,19595,1380,0,47311,0.0010000000000000009
752000,8222,20441,128125,-13260,19606,116860,355,19588,1454,1,47312,0.0010000000000000009
753000,8236,9311,124657,8082,2351,130109,229,19618,938,0,47313,0.0010000000000000009
754000,1641,-1897,121193,21842,4159,113664,391,19602,1601,0,47314,0.0010000000000000009
755000,7507,7297,131008,-15071,3053,134249,386,19602,1581,1,47315,0.0010000000000000009
756000,-8726,-5644,129350,-1701,-430,131770,246,19594,1581,1,47316,0.0010000000000000009
757001,12495,15725,129926,8498,14295,121631,351,19615,1008,0,47317,0.0010009999999999186
758000,-6338,1692,131076,2040,727,134420,351,19603,1438,1,47318,0.0009990000000000832
759001,-118,4305,131200,-4624,3323,135172,429,19605,1757,1,47319,0.0010009999999999186
760001,6967,-9792,128177,-8794,-9893,131465,285,19599,1167,0,47320,0.0010000000000000009
761000,-5763,8259,133440,12635,12736,129948,343,19598,1405,0,47321,0.0009990000000000832
762001,5602,2242,131466,2837,-847,137635,417,19598,1405,1,47322,0.0010009999999999186
763000,670,481,127454,-16875,657,123578,299,19621,1708,0,47323,0.0009990000000000832
764000,715,4056,135778,32700,3270,140356,299,19595,1225,0,47324,0.0010000000000000009
765000,3159,-17994,121133,-7488,-17802,132126,360,19595,1474,1,47325,0.0010000000000000009
766000,-3441,16661,129449,-19883,19160,110154,382,19624,1565,1,47326,0.0010000000000000009
767000,4937,-1809,131888,24728,-3176,146399,319,19606,1307,0,47327,0.0010000000000000009
768001,6398,8651,120271,2305,7587,108160,368,19606,1307,1,47328,0.0010009999999999186
769000,-12504,74,131038,-7762,471,128556,244,19583,1507,1,47329,0.0009990000000000832
770000,10474,2664,123673,2088,2176,132970,244,19613,999,0,47330,0.0010000000000000009
771000,-8037,15710,120885,13264,17504,93989,411,19603,1683,0,47331,0.0010000000000000009
772000,9753,11498,126214,-11852,11712,129764,371,19604,1520,1,47332,0.0010000000000000009
773003,7186,14532,123491,9032,13138,115857,253,19611,1036,0,47333,0.0010029999999999761
774000,4586,8475,123481,19741,10235,115786,368,19611,1036,0,47334,0.0009969999999999146
775000,3853,-526,129482,-15131,-1300,135711,433,19598,1507,1,47335,0.0010000000000000009
776000,-3303,1459,129878,-2946,2762,126870,433,19607,1773,1,47336,0.0010000000000000009
777000,4081,-3640,126874,17073,-3271,131746,265,19603,1085,0,47337,0.0010000000000000009
778002,643,11976,133472,-10594,9916,126173,330,19601,1352,1,47338,0.0010020000000000584
779000,-1655,-3723,130181,-2999,-3336,140932,473,19622,1937,1,47339,0.0009979999999999434
780000,4613,9463,129274,13778,10111,126957,292,19622,1937,0,47340,0.0010000000000000009
781001,3961,-5854,130103,-3322,-4761,143620,347,19596,1196,0,47341,0.0010010000000000296
782000,-6202,9837,133000,-5362,8350,119964,347,19595,1421,1,47342,0.0009989999999999721
783001,8603,-7500,125667,-3879,-7787,139907,351,19621,1438,0,47343,0.0010010000000000296
784000,-183,8561,135194,20190,8648,131879,346,19606,1417,0,47344,0.0009989999999999721
785000,-377,-16524,119408,10789,-11790,129294,361,19581,1479,1,47345,0.0010000000000000009
786000,394,9365,128230,-26948,14140,121726,316,19581,1479,1,47346,0.0010000000000000009
787000,-461,9243,132745,8123,3857,130639,374,19614,1294,0,47347,0.0010000000000000009
788000,8506,1846,120248,32365,-380,121389,374,19601,1532,1,47348,0.0010000000000000009
789000,-5877,676,126070,-16157,4946,117798,399,19600,1634,1,47349,0.0010000000000000009
790000,7642,10552,127940,14549,9209,131760,286,19603,1171,0,47350,0.0010000000000000009
791000,4508,2532,120171,12844,10503,101137,400,19599,1638,0,47351,0.0010000000000000009
792000,-338,18683,124265,-10189,15200,124946,412,19599,1687,1,47352,0.0010000000000000009
793000,12788,7743,127712,-1270,4317,127229,278,19628,1687,0,47353,0.0010000000000000009
794002,1492,7664,119410,21798,16330,106940,346,19599,1139,0,47354,0.0010020000000000584
795000,6619,5403,130932,-1756,-5020,139132,346,19595,1417,1,47355,0.0009979999999999434
796000,-7174,-1969,130703,-14411,2491,128236,415,19622,1700,1,47356,0.0010000000000000009
797000,11033,-1326,126552,10612,394,131236,284,19600,1163,0,47357,0.0010000000000000009
798000,-7448,18293,134326,15202,15397,125306,352,19600,1442,0,47358,0.0010000000000000009
799000,3281,-215,128937,-17148,-830,136670,350,19589,1442,1,47359,0.0010000000000000009
800000,2008,358,131750,-7515,-1146,129304,333,19623,1433,0,47360,0.0010000000000000009
801000,588,-5696,129476,22690,-3432,140383,333,19597,1364,0,47361,0.0010000000000000009
802000,-3828,3691,129695,-2670,5899,127933,354,19584,1450,1,47362,0.0010000000000000009
803000,3375,3429,129857,-21126,1090,126551,230,19617,942,0,47363,0.0010000000000000009
804000,1557,6959,134880,34169,5132,137991,377,19605,1544,0,47364,0.0010000000000000009
805000,1307,-14559,123512,657,-16286,126481,385,19605,1544,1,47365,0.0010000000000000009
806000,-1680,-2584,126256,-29689,775,130820,251,19587,1577,1,47366,0.0010000000000000009
807000,3208,11699,135008,28066,10294,129120,251,19619,1028,0,47367,0.0010000000000000009
808000,5883,9130,119212,6067,8759,112776,370,19600,1515,1,47368,0.0010000000000000009
809000,-8977,3696,129882,-14323,1717,127164,442,19620,1810,1,47369,0.0010000000000000009
810000,11717,-2821,125041,7423,-2693,132766,278,19597,1139,0,47370,0.0010000000000000009
811000,-4666,10531,118405,12161,15432,100100,332,19597,1139,0,47371,0.0010000000000000009
812000,10613,16908,127547,-9617,15325,123929,348,19599,1360,1,47372,0.0010000000000000009
813000,3693,14230,123192,11108,12039,119224,348,19623,1425,1,47373,0.0010000000000000009
814000,6337,6892,122985,8014,7712,115215,309,19595,1266,0,47374,0.0010000000000000009
815000,4988,2317,131662,-3314,1006,137502,363,19589,1487,1,47375,0.0010000000000000009
816000,-3291,-4951,128409,3265,-3229,128057,339,19623,1388,1,47376,0.0010000000000000009
817000,5565,7799,128351,2065,9238,121991,345,19623,1388,0,47377,0.0010000000000000009
818000,837,5272,132594,-3710,1461,138125,371,19610,1413,0,47378,0.0010000000000000009
819000,-229,2693,130597,4114,3850,127782,371,19570,1520,1,47379,0.0010000000000000009
820000,6157,-2890,128048,3650,-1927,134096,253,19615,1036,0,47380,0.0010000000000000009
821000,-2266,1363,132611,-542,2247,136916,386,19604,1581,0,47381,0.0010000000000000009
822002,864,8549,132155,-3525,9568,126665,376,19602,1540,1,47382,0.0010020000000000584
823002,-2805,-3410,126476,352,-7169,131810,257,19602,1540,1,47383,0.0010000000000000009
824000,14151,996,132451,7328,2250,132515,375,19607,1053,0,47384,0.0009979999999999434
825000,-12649,-14518,124939,25314,-12636,136205,375,19598,1536,1,47385,0.0010000000000000009
826000,12181,8792,122598,-30964,5785,119947,438,19606,1794,1,47386,0.0010000000000000009
827000,-7033,16297,136890,5061,19524,139577,264,19602,1081,0,47387,0.0010000000000000009
828000,14144,-1658,118532,30968,-4771,110103,340,19594,1393,0,47388,0.0010000000000000009
829000,-8185,-1427,125750,-18680,-2730,131538,350,19594,1393,1,47389,0.0010000000000000009
830000,6439,1220,127906,217,2392,123519,318,19621,1433,0,47390,0.0010000000000000009
831000,5283,15936,120309,10685,19848,104606,318,19593,1302,0,47391,0.0010000000000000009
832000,-5690,12305,125153,9447,11716,120538,354,19593,1450,1,47392,0.0010000000000000009
833000,16567,14250,123877,-14020,8986,127640,272,19619,1114,1,47393,0.0010000000000000009
834001,-1825,3878,122965,10921,4103,113409,374,19606,1532,0,47394,0.0010010000000000296
835000,6279,9327,128871,23885,12185,127335,379,19606,1552,1,47395,0.0009989999999999721
836000,-2557,-6241,129689,-23746,-12635,143161,234,19578,1552,1,47396,0.0010000000000000009
837001,3093,6419,130123,36068,13651,116973,356,19619,958,0,47397,0.0010010000000000296
838000,1699,6474,129129,-12115,664,135856,356,19606,1458,0,47398,0.0009989999999999721
839000,-4063,1354,133816,-19039,1196,134889,400,19599,1638,1,47399,0.0010000000000000009
840000,10867,-2776,129046,27601,-792,130707,266,19610,1089,0,47400,0.0010000000000000009
841000,-1545,2861,129713,-5769,1572,134871,386,19610,1581,0,47401,0.0010000000000000009
842002,-3477,1514,129729,-5001,3696,133558,428,19599,1581,1,47402,0.0010019999999999474
843000,2031,12145,134814,-8217,6900,124686,293,19616,1753,1,47403,0.0009980000000000544
844000,3014,-6518,127899,33982,-5631,134817,293,19595,1200,0,47404,0.0010000000000000009
845000,-627,-5832,128070,-8437,-7545,137494,353,19593,1446,1,47405,0.0010000000000000009
846000,-1884,-8839,127301,-21706,-3995,120905,474,19619,1941,1,47406,0.0010000000000000009
847000,2945,16536,129010,21862,17175,129989,300,19619,1229,0,47407,0.0010000000000000009
848000,8718,4577,125152,15204,1486,114843,361,19597,1229,0,47408,0.0010000000000000009
849000,-6815,5765,124124,-22398,6447,125785,280,19584,1479,1,47409,0.0010000000000000009
850001,15195,2363,129103,9358,-250,124400,280,19615,1147,0,47410,0.0010010000000000296
851001,-9122,6582,119182,17201,10368,115320,377,19604,1544,0,47411,0.0010000000000000009
852000,11505,10385,125468,-13977,11089,117959,362,19602,1483,1,47412,0.0009989999999999721
853000,-171,18230,124979,4712,14916,121031,249,19615,1020,1,47413,0.0010000000000000009
854000,7309,1390,120607,18318,3613,121218,374,19615,1020,0,47414,0.0010000000000000009
855000,6282,8924,130909,-7110,7451,121960,400,19594,1532,1,47415,0.0010000000000000009
856000,-5855,-7376,127240,-704,-6208,139719,400,19598,1638,1,47416,0.0010000000000000009
857000,10515,7133,129485,4027,8979,118719,253,19609,1036,0,47417,0.0010000000000000009
858001,-3761,8774,130649,10,5869,131484,352,19601,1442,0,47418,0.0010010000000000296
859000,454,1419,131076,-182,937,139767,457,19619,1872,1,47419,0.0009989999999999721
860002,3638,-2662,129323,1067,-2112,127058,283,19619,1872,0,47420,0.0010019999999999474
861000,-1916,2232,132343,1144,4054,137374,334,19592,1159,0,47421,0.0009980000000000544
862000,4429,1994,131920,4050,2279,133691,334,19596,1368,1,47422,0.0010000000000000009
863000,-3517,403,126713,-8387,-2962,127392,346,19623,1417,1,47423,0.0010000000000000009
864000,13622,6053,134417,17175,6578,128947,315,19599,1290,0,47424,0.0010000000000000009
865000,-9045,-12562,121709,12367,-10779,138317,363,19591,1487,1,47425,0.0010000000000000009
866001,6326,3386,126793,-19219,3649,113791,358,19591,1487,1,47426,0.0010009999999999186
867000,-4215,11636,134248,-1910,12645,135974,376,19616,1466,0,47427,0.0009990000000000832
868000,9191,1728,122106,28108,-1266,124638,376,19601,1540,0,47428,0.0010000000000000009
869000,-3887,2494,125277,-12574,2715,116612,378,19588,1548,1,47429,0.0010000000000000009
870017,7691,1297,127946,1047,1133,134415,254,19613,1040,0,47430,0.0010169999999999346
871002,9247,14630,120520,10609,16351,105667,383,19604,1569,0,47431,0.0009850000000000136
872000,-4039,8397,123827,8640,7143,118195,389,19604,1569,1,47432,0.0009980000000000544
873001,14734,16701,126679,-17226,14472,121275,267,19611,1593,1,47433,0.0010009999999999186
874000,-3259,1012,122355,17032,192,118437,267,19605,1094,0,47434,0.0009990000000000832
875000,1999,7757,130029,19410,12550,133436,359,19598,1470,1,47435,0.0010000000000000009
876000,-1792,-3685,127564,-34930,-5320,128997,456,19624,1868,1,47436,0.0010000000000000009
877001,3209,9234,130363,9633,10115,126668,268,19604,1098,0,47437,0.0010009999999999186
878000,9047,4621,128788,25679,423,132045,347,19604,1421,0,47438,0.0009990000000000832
879000,-4474,-1535,129291,-25697,1641,133087,415,19597,1421,1,47439,0.0010000000000000009
880000,6607,4427,135258,7443,9031,130395,326,19620,1700,0,47440,0.0010000000000000009
881001,168,-649,126981,12012,-4711,137652,326,19589,1335,0,47441,0.0010009999999999186
882001,-9706,1478,132471,-2857,6678,128070,351,19591,1438,1,47442,0.0010000000000000009
883000,4811,2942,132418,-11485,-9629,138966,279,19618,1143,1,47443,0.0009990000000000832
884001,4989,-6198,126772,27160,5361,120254,390,19618,1597,0,47444,0.0010009999999999186
885000,-2065,1980,130696,18103,-6832,140135,375,19604,1597,1,47445,0.0009990000000000832
886000,1225,-1284,128532,-49372,5493,117312,237,19573,1536,1,47446,0.0010000000000000009
887000,6694,13386,127919,32704,14477,131015,237,19615,971,0,47447,0.0010000000000000009
888000,696,-3384,126095,27225,-5945,127271,350,19603,1433,0,47448,0.0010000000000000009
889000,781,-918,120216,-35209,917,115812,414,19612,1696,1,47449,0.0010000000000000009
890000,892,5543,133817,4397,5360,133984,281,19612,1151,0,47450,0.0010000000000000009
891001,-583,2607,119364,28244,2487,111380,376,19600,1151,0,47451,0.0010009999999999186
892007,3161,19168,121391,-16287,25580,110491,415,19600,1540,1,47452,0.0010060000000000624
893002,9031,17438,128291,3656,6750,130830,415,19627,1700,1,47453,0.0009949999999999681
894000,5191,-2334,115827,20115,3489,118397,285,19603,1167,0,47454,0.0009979999999999434
895000,8091,14333,131836,-952,11405,114071,362,19591,1483,1,47455,0.0010000000000000009
896000,-6904,-4582,129835,-14856,-5112,151432,389,19618,1593,1,47456,0.0010000000000000009
897001,3704,-4755,125879,11676,-250,115010,308,19618,1593,0,47457,0.0010010000000000296
898001,3224,11941,131357,-4913,7637,132712,362,19604,1261,0,47458,0.0010000000000000009
899000,-890,-3051,131884,-1192,-3017,143180,362,19584,1483,1,47459,0.0009989999999999721
900000,5291,3617,129275,9389,4742,119862,272,19619,1114,0,47460,0.0010000000000000009
901000,5435,1321,132682,-7311,258,137722,386,19604,1581,0,47461,0.0010000000000000009
902000,-4007,-1515,130549,11217,1101,139299,363,19589,1487,1,47462,0.0010000000000000009
903000,157,5054,129067,-10217,1304,119366,244,19589,1487,1,47463,0.0010000000000000009
904001,6731,5320,133658,8288,6400,133225,365,19613,999,0,47464,0.0010010000000000296
905001,-4389,-7970,125281,21641,-6732,138153,365,19602,1495,1,47465,0.0010000000000000009
906003,3647,-6659,125385,-25348,-4652,116557,404,19586,1655,1,47466,0.0010020000000000584
907000,-1311,13139,132163,8131,14065,136359,277,19602,1135,0,47467,0.0009969999999999146
908001,7797,4814,123276,21230,2896,119962,345,19595,1413,0,47468,0.0010010000000000296
909000,1259,2413,123489,-14739,2375,117432,431,19595,1413,1,47469,0.0009989999999999721
910000,7792,-2888,128402,14598,-1512,136286,298,19618,1765,0,47470,0.0010000000000000009
911000,-515,5920,119045,2593,8208,107190,298,19587,1221,0,47471,0.0010000000000000009
912000,5791,21055,126181,-10052,19583,116035,347,19591,1421,1,47472,0.0010000000000000009
913002,2151,3574,123622,14313,1861,126464,309,19620,1266,1,47473,0.0010020000000000584
914000,2938,12179,119684,6914,11960,113596,334,19596,1368,0,47474,0.0009979999999999434
915000,9251,1983,132007,-5258,4334,129951,372,19596,1368,1,47475,0.0010000000000000009
916000,-6856,5570,128454,620,6632,129886,255,19586,1524,1,47476,0.0010000000000000009
917000,11504,-2331,127963,10778,-1988,124802,255,19619,1044,0,47477,0.0010000000000000009
918000,-1004,3331,129984,-8164,1389,136376,371,19606,1520,0,47478,0.0010000000000000009
919001,1333,811,131435,342,-202,133072,375,19590,1536,1,47479,0.0010010000000000296
920000,5741,5936,131843,10512,10672,127310,252,19612,1032,0,47480,0.0009989999999999721
921000,-7583,1279,131041,-1260,1557,137665,369,19612,1032,0,47481,0.0010000000000000009
922000,7491,2174,134007,-3033,3368,134115,397,19604,1511,1,47482,0.0010000000000000009
923000,-9129,-4566,125917,-4016,-7510,123189,397,19612,1626,1,47483,0.0010000000000000009
924000,17139,2808,132282,-1374,3610,140536,269,19600,1102,0,47484,0.0010000000000000009
925001,-13204,-10327,128663,31190,-2512,124066,339,19598,1388,0,47485,0.0010010000000000296
926004,5873,12035,127176,-21990,8300,122102,471,19625,1929,1,47486,0.0010029999999999761
927000,3939,2929,131587,-11039,7510,135999,276,19625,1130,0,47487,0.0009959999999999969
928000,-1361,1490,122976,42346,-4393,119541,351,19600,1130,0,47488,0.0010000000000000009
929000,8246,-5000,121894,-17668,-1004,122559,354,19595,1438,1,47489,0.0010000000000000009
930000,-5415,9120,133355,8106,7187,129693,354,19622,1450,1,47490,0.0010000000000000009
931000,6219,1616,120703,27075,7802,109522,335,19597,1372,0,47491,0.0010000000000000009
932000,45,17304,119911,-23756,19195,114180,356,19586,1458,1,47492,0.0010000000000000009
933000,6805,15835,128033,8638,11796,128920,222,19586,909,1,47493,0.0010000000000000009
934000,9638,2868,118303,18703,2619,114035,392,19617,909,0,47494,0.0010000000000000009
935000,2497,4607,128078,-1600,6588,122576,385,19601,1606,1,47495,0.0010000000000000009
936002,277,1177,133145,-11482,-3856,144719,385,19591,1577,1,47496,0.0010020000000000584
937000,1713,-8575,122999,4845,1249,119247,246,19614,1008,0,47497,0.0009979999999999434
938000,3168,20271,132565,5802,13219,127167,358,19605,1466,0,47498,0.0010000000000000009
939000,1372,-5285,131554,-9505,-6086,146856,421,19601,1724,1,47499,0.0010000000000000009
940000,2985,1094,128585,8290,6446,117078,268,19601,1724,1,47500,0.0010000000000000009
941000,4852,2276,132682,1706,-2090,144743,348,19602,1098,0,47501,0.0010000000000000009
942000,-1188,-3599,130385,-1156,2170,131657,348,19601,1425,1,47502,0.0010000000000000009
943000,-2869,11183,130675,-4680,3687,123203,433,19623,1773,1,47503,0.0010000000000000009
944000,10216,-6161,131671,2960,-2056,135921,288,19598,1180,0,47504,0.0010000000000000009
945000,-6567,-3306,127832,32201,-2405,134775,358,19592,1466,0,47505,0.0010000000000000009
946000,2315,-5991,128493,-30175,-4290,119247,396,19592,1466,1,47506,0.0010000000000000009
947000,4266,17048,130545,-836,19980,131141,319,19622,1622,0,47507,0.0010000000000000009
948001,2268,-1197,124410,34310,-6456,130505,319,19603,1307,0,47508,0.0010010000000000296
949000,7674,2317,121252,-15259,6243,110177,371,19581,1520,1,47509,0.0009989999999999721
950000,-7052,1156,129497,4587,949,138225,239,19617,979,1,47510,0.0010000000000000009
951000,8267,7626,123918,-3379,11318,106674,415,19603,1700,0,47511,0.0010000000000000009
952000,-1965,11740,120098,10540,10318,120452,368,19603,1700,1,47512,0.0010000000000000009
953000,5151,12738,127369,8921,11835,118530,253,19601,1507,1,47513,0.0010000000000000009
954000,3003,5173,118053,-13493,3439,124785,253,19611,1036,0,47514,0.0010000000000000009
955000,8348,13343,134007,12145,17631,115096,368,19597,1507,0,47515,0.0010000000000000009
956000,-4367,-3396,127968,8509,-3188,138451,428,19603,1753,1,47516,0.0010000000000000009
957000,8066,-7003,126713,-6333,-7318,129308,262,19603,1073,0,47517,0.0010000000000000009
958000,553,4653,131451,-5263,3944,131927,326,19603,1073,0,47518,0.0010000000000000009
959000,2664,8480,131345,7665,7578,131253,439,19598,1335,1,47519,0.0010000000000000009
960000,4377,4499,132500,8622,8755,127983,439,19619,1798,1,47520,0.0010000000000000009
961000,-4499,-4769,130418,-7594,-4396,139740,291,19593,1192,0,47521,0.0010000000000000009
962002,4414,630,132948,3532,1290,133989,344,19596,1409,1,47522,0.0010019999999999474
963000,-5872,1167,127275,3136,197,127119,364,19619,1491,1,47523,0.0009980000000000544
964000,11927,6056,133105,-11733,6209,128563,350,19619,1491,0,47524,0.0010000000000000009
965000,-8784,-6820,130197,29905,-3553,138125,371,19601,1433,0,47525,0.0010000000000000009
966000,10285,-3344,121810,-14460,-2987,124649,371,19570,1520,1,47526,0.0010000000000000009
967000,-2672,7954,134829,-3347,7146,127232,311,19617,1274,0,47527,0.0010000000000000009
968000,3363,-699,121845,26666,1042,117296,368,19605,1507,0,47528,0.0010000000000000009
969000,2830,4059,124461,-13509,1809,119520,388,19599,1589,1,47529,0.0010000000000000009
970000,-2095,1052,130599,-4763,6149,134250,274,19599,1122,1,47530,0.0010000000000000009
971000,5529,4749,120725,22910,3573,106193,391,19609,1122,0,47531,0.0010000000000000009
972000,2680,15847,121749,-1249,18430,117959,413,19601,1601,1,47532,0.0010000000000000009
973000,2269,20331,127129,-7208,20179,121350,413,19627,1692,1,47533,0.0010000000000000009
974001,11245,5941,121641,7468,-2399,117757,284,19594,1163,0,47534,0.0010010000000000296
975002,1435,-6275,124390,16705,3343,129364,342,19593,1401,0,47535,0.0010009999999999186
976000,-1596,2309,133420,-9221,-4772,137280,415,19593,1700,1,47536,0.0009980000000000544
977000,6893,-2928,125307,3918,14028,118816,278,19625,1700,0,47537,0.0010000000000000009
978000,-2780,22036,133208,6224,8767,128282,356,19601,1139,0,47538,0.0010000000000000009
979000,5010,-7051,130482,-8040,-8219,143077,356,19594,1458,1,47539,0.0010000000000000009
980000,3972,-3929,129459,8242,2927,124391,365,19619,1495,1,47540,0.0010000000000000009
981000,-669,-1790,130700,5835,-4788,143828,345,19602,1413,0,47541,0.0010000000000000009
982001,4026,6303,132670,-9400,13634,124406,353,19602,1446,1,47542,0.0010009999999999186
983000,-7171,12450,132631,-4374,860,130148,228,19584,1446,1,47543,0.0009990000000000832
984000,11429,-6748,129617,10005,-11,131208,378,19618,934,0,47544,0.0010000000000000009
985000,-6652,-9087,128347,25428,-11380,139467,378,19602,1548,0,47545,0.0010000000000000009
986000,3979,-8427,127969,-27901,-2035,119645,390,19584,1597,1,47546,0.0010000000000000009
987000,2993,19068,130821,2118,21217,124572,273,19608,1118,0,47547,0.0010000000000000009
988000,-1217,2920,126428,31647,-2395,130887,377,19596,1544,0,47548,0.0010000000000000009
989000,11537,10,122224,-19705,-373,117243,438,19596,1544,1,47549,0.0010000000000000009
990000,-11500,-3541,129746,9281,2137,134316,283,19617,1794,1,47550,0.0010000000000000009
991002,12125,10217,123167,5745,11111,110876,283,19594,1159,0,47551,0.0010019999999999474
992000,-5349,12687,121716,-1561,14580,113000,334,19599,1368,1,47552,0.0009980000000000544
993000,5196,14375,127236,8168,10241,122339,355,19622,1454,1,47553,0.0010000000000000009
994000,6522,-2527,117319,-1785,-801,126216,304,19601,1245,0,47554,0.0010000000000000009
995000,5611,17387,131584,11749,19829,113476,361,19601,1245,0,47555,0.0010000000000000009
996000,1358,-1457,128811,-1813,-1517,138936,341,19588,1479,1,47556,0.0010000000000000009
997000,3059,-3881,126367,285,-4219,126312,341,19622,1397,0,47557,0.0010000000000000009
998000,3716,2314,130331,851,1519,131164,339,19613,1388,0,47558,0.0010000000000000009
999000,-381,1008,131661,-4344,646,137493,375,19576,1536,1,47559,0.0010000000000000009
1000002,2107,2961,130832,11796,7047,129118,256,19613,1049,1,47560,0.0010020000000000584
1001000,-1801,10836,134462,-6392,11907,125963,393,19613,1049,0,47561,0.0009979999999998324
1002000,2816,-5484,130513,941,-5892,146202,371,19600,1610,1,47562,0.001000000000000112
1003000,-4616,3093,129635,5367,3252,118696,371,19599,1520,1,47563,0.0009999999999998899
1004000,13558,-6116,130014,-10950,-7077,137083,260,19607,1065,0,47564,0.001000000000000112
1005000,-12316,-2744,130676,34984,1959,137632,382,19597,1565,0,47565,0.0009999999999998899
1006000,8480,349,126357,-26062,775,118889,432,19603,1769,1,47566,0.001000000000000112
1007000,-694,13627,133075,-5392,14281,129340,259,19603,1769,0,47567,0.0009999999999998899
1008000,975,1146,125171,40104,2245,130806,334,19603,1061,0,47568,0.001000000000000112
1009000,7705,-6391,119902,-21898,-8105,117086,334,19594,1368,1,47569,0.0009999999999998899
1010000,-6008,559,131915,-1942,4179,130337,358,19620,1466,1,47570,0.001000000000000112
1011000,7990,10063,123978,22788,10955,115035,315,19596,1290,0,47571,0.0009999999999998899
1012000,-4276,13063,121056,-2767,16284,110328,351,19594,1438,1,47572,0.001000000000000112
1013000,6491,13471,128284,-11487,9923,127213,278,19594,1139,1,47573,0.0009999999999998899
1014000,5159,4969,120218,14246,9476,120048,365,19622,1139,0,47574,0.001000000000000112
1015001,6792,6019,125758,14917,5846,115209,378,19607,1495,0,47575,0.0010010000000000296
1016000,-1385,828,131707,-14293,5497,142316,378,19570,1548,1,47576,0.0009989999999999721
1017000,3670,-6057,127087,1899,-7358,125576,229,19618,938,0,47577,0.0009999999999998899
1018000,7368,10085,128259,11410,9938,128482,357,19609,1462,0,47578,0.001000000000000112
1019000,-6538,7305,134645,-368,7132,137840,390,19609,1597,1,47579,0.0009999999999998899
1020001,7941,-959,130172,-10488,720,123863,257,19597,1597,1,47580,0.0010010000000000296
1021000,1649,-6500,129010,4575,-7301,144301,360,19611,1053,0,47581,0.0009989999999999721
1022000,781,-2745,133951,17248,3606,129235,360,19603,1474,1,47582,0.001000000000000112
1023000,-1936,2874,125579,-12670,-4983,134582,427,19617,1749,1,47583,0.0009999999999998899
1024000,5289,11079,136759,17265,19449,118038,272,19598,1114,0,47584,0.001000000000000112
1025000,-878,-1160,127753,23449,-8948,139703,342,19598,1401,0,47585,0.0009999999999998899
1026000,5302,-17183,123312,-30570,-9735,124649,425,19598,1401,1,47586,0.001000000000000112
1027000,-105,17437,136078,13248,17408,126566,295,19623,1741,0,47587,0.0009999999999998899
1028000,1480,-11046,120057,18069,-8748,134713,295,19599,1208,0,47588,0.001000000000000112
1029000,3624,13411,125898,-11587,15418,102232,362,19586,1483,1,47589,0.0009999999999998899
1030000,-6438,-3823,129752,-1270,-2302,146796,287,19619,1175,1,47590,0.001000000000000112
1031000,9651,7175,122484,15011,11640,103319,364,19595,1491,0,47591,0.0009999999999998899
1032001,-2315,12277,121962,2036,9951,120503,360,19595,1491,1,47592,0.0010010000000000296
1033000,3988,14323,125909,-5698,14134,117250,249,19596,1474,1,47593,0.0009989999999999721
1034000,8776,9512,120642,6877,7385,117154,249,19614,1020,0,47594,0.001000000000000112
1035000,1661,3178,129444,16122,4161,127877,380,19599,1556,0,47595,0.0009999999999998899
1036000,-425,-5623,128412,-14966,-3102,134503,401,19596,1642,1,47596,0.001000000000000112
1037000,5720,1953,129104,699,2644,130064,252,19611,1032,0,47597,0.0009999999999998899
1038000,-320,10135,130512,12532,11441,120573,353,19611,1032,0,47598,0.001000000000000112
1039002,6960,3377,131459,-14440,-917,140043,451,19599,1446,1,47599,0.0010019999999999474
1040000,841,-11507,128724,11319,-7149,135411,451,19616,1847,1,47600,0.0009980000000000544
1041000,125,10013,132234,7668,11099,127049,295,19593,1208,0,47601,0.0009999999999998899
1042000,3745,-2809,131811,-5916,-1941,141041,341,19600,1397,1,47602,0.001000000000000112
1043000,-11980,17967,132954,-4749,16755,117836,361,19621,1479,1,47603,0.0009999999999998899
1044000,16170,-13382,128711,-4105,-13392,139026,311,19621,1479,0,47604,0.001000000000000112
1045000,-11120,-5507,129057,33434,-1657,138728,363,19598,1274,0,47605,0.0009999999999998899
1046000,8808,-10155,125959,-16379,-8564,121398,363,19590,1487,1,47606,0.001000000000000112
1047000,1889,17379,129347,-17006,19203,126491,349,19624,1429,0,47607,0.0009999999999998899
1048000,-465,7465,130174,45683,6220,123741,356,19608,1458,0,47608,0.001000000000000112
1049000,8350,-6132,118961,-19139,-7237,124922,377,19590,1544,1,47609,0.0009999999999998899
1050000,-12936,-4138,130774,-11006,-573,128553,252,19590,1544,1,47610,0.001000000000000112
1051000,13682,14763,126203,22247,16408,117888,383,19613,1032,0,47611,0.0009999999999998899
1052000,-8189,6979,119010,6129,9602,109895,383,19603,1569,1,47612,0.001000000000000112
1053000,7529,25556,130051,-17353,22986,117178,384,19606,1573,1,47613,0.0009999999999998899
1054001,7168,-6831,120117,9832,-5273,134258,285,19602,1167,0,47614,0.0010010000000000296
1055000,4851,11605,125944,22473,13926,106529,371,19596,1520,0,47615,0.0009989999999999721
1056000,3893,-2108,130516,-12823,-1026,138592,455,19596,1864,1,47616,0.001000000000000112
1057000,-751,4511,131420,-4199,5447,127820,274,19617,1864,0,47617,0.0009999999999998899
1058000,8691,7445,128339,9918,7474,125983,349,19607,1122,0,47618,0.001000000000000112
1059000,-8531,2838,133792,2222,3208,134684,349,19592,1429,1,47619,0.0009999999999998899
1060002,3676,-1394,130400,-8342,900,136478,410,19623,1679,1,47620,0.0010019999999999474
1061005,2000,-5770,129457,-4883,-6256,127691,303,19601,1241,0,47621,0.0010030000000000872
1062000,2216,11348,136064,14167,13910,141464,347,19601,1421,1,47622,0.0009950000000000792
1063000,-3937,-5428,125691,2071,-6080,128817,306,19594,1421,1,47623,0.0009999999999998899
1064000,8166,10086,133682,-18656,7574,121189,394,19616,1253,0,47624,0.001000000000000112
1065003,-5859,-8519,129517,33819,-14204,148878,394,19603,1614,0,47625,0.0010029999999998651
1066000,8854,-10618,121196,-11454,4452,106557,375,19572,1536,1,47626,0.0009970000000001367
1067000,-5468,20645,137221,-11627,9000,140603,230,19619,942,0,47627,0.0009999999999998899
1068002,7845,-8930,122301,24082,-2109,124945,344,19619,1409,0,47628,0.0010019999999999474
1069000,108,10000,123974,1596,5931,110075,409,19599,1409,1,47629,0.0009980000000000544
1070000,-785,-6735,130569,-8264,-1555,143117,272,19600,1675,1,47630,0.001000000000000112
1071000,6467,5978,120604,19861,12981,104767,272,19607,1114,0,47631,0.0009999999999998899
1072000,539,16223,124316,-5209,14258,116419,371,19603,1520,1,47632,0.0009999999999998899
1073000,2736,11623,123689,-5070,13530,123188,416,19629,1704,1,47633,0.001000000000000112
1074000,6234,12811,122961,15599,10501,112605,285,19601,1167,0,47634,0.0009999999999998899
1075002,6388,629,125604,4569,1153,131151,357,19601,1167,0,47635,0.0010020000000001694
1076000,-976,-980,129872,-12243,1668,130498,393,19593,1462,1,47636,0.0009979999999998324
1077000,5392,-2084,129048,10281,-3611,131919,393,19623,1610,0,47637,0.001000000000000112
1078000,730,9951,130214,3809,14591,120921,300,19604,1229,0,47638,0.0009999999999998899
1079000,4098,2261,133075,-14027,-3983,141581,359,19588,1470,1,47639,0.001000000000000112
1080000,1545,-4155,128903,9729,3069,130515,330,19618,1352,1,47640,0.0009999999999998899
1081000,-1616,4935,130759,10663,4015,129543,370,19618,1352,0,47641,0.001000000000000112
1082000,5607,-2471,133133,-10662,1489,140315,362,19605,1515,1,47642,0.0009999999999998899
1083000,-9234,12110,132682,-3137,7496,121484,362,19586,1483,1,47643,0.001000000000000112
1084000,10894,-8964,127656,-740,-5631,134119,268,19610,1098,0,47644,0.0009999999999998899
1085000,-3102,-323,132165,28735,-2038,141649,368,19601,1507,0,47645,0.001000000000000112
1086000,1337,-10910,125090,-11734,-4091,119012,402,19590,1646,1,47646,0.0009999999999998899
1087002,5703,16439,128575,-20385,15864,126155,255,19590,1646,0,47647,0.0010020000000001694
1088000,-3726,3770,131549,47360,3284,130302,343,19609,1044,0,47648,0.0009979999999998324
1089000,10230,1794,120524,-14825,-777,117151,343,19601,1405,1,47649,0.001000000000000112
1090000,-13434,-5018,129896,-15998,80,128397,435,19625,1782,1,47650,0.0009999999999998899
1091000,14889,12900,126460,21816,13991,121316,289,19593,1184,0,47651,0.001000000000000112
1092001,-6922,2486,119243,12994,6362,107058,344,19597,1409,1,47652,0.0010010000000000296
1093000,5390,23099,129374,-17232,19864,120593,315,19597,1409,1,47653,0.0009989999999999721
1094000,9338,-63,122566,4176,-176,130658,332,19621,1290,0,47654,0.0009999999999998899
1095000,-265,14561,124844,22764,18569,105270,332,19599,1360,0,47655,0.001000000000000112
1096000,10431,-4277,128999,-6863,-5675,141424,371,19584,1520,1,47656,0.0009999999999998899
1097000,-6434,-438,130385,-11984,1003,130906,264,19622,1081,0,47657,0.001000000000000112
1098000,12281,6433,128635,15659,5770,126598,367,19607,1503,0,47658,0.0009999999999998899
1099000,-8479,8495,133516,7128,8589,132980,377,19607,1503,1,47659,0.001000000000000112
1100000,2625,-3354,130355,-16013,-2270,133681,250,19588,1544,1,47660,0.0009999999999998899
1101000,4613,-1783,129895,-1225,-930,130464,250,19616,1024,0,47661,0.001000000000000112
1102008,-1699,-7641,130273,25340,-5784,141973,365,19599,1495,0,47662,0.0010079999999998979
1103000,3303,14678,131111,-14864,13340,124431,391,19610,1601,1,47663,0.000992000000000104
1104000,4401,-194,132599,-14227,-1906,130162,267,19604,1094,0,47664,0.0009999999999998899
1105000,-3676,1104,129015,38566,5369,136685,345,19604,1413,0,47665,0.001000000000000112
1106001,10884,-18962,123811,-10922,-18228,128088,468,19599,1413,1,47666,0.0010010000000000296
1107000,-9285,9456,130637,-19448,5453,130475,274,19622,1917,1,47667,0.0009989999999999721
1108001,7714,7198,127565,33547,9324,127871,274,19599,1122,0,47668,0.0010010000000000296
1109000,2054,5384,121954,-7422,3433,106548,350,19590,1433,1,47669,0.0009989999999999721
1110000,-5371,1391,130876,-5206,6318,145189,356,19621,1458,1,47670,0.0009999999999998899
1111001,9610,-4677,120529,9279,-6870,104759,327,19621,1339,0,47671,0.0010010000000000296
1112001,-2249,23317,122919,2145,23954,115717,357,19598,1339,0,47672,0.001000000000000112
1113000,5360,10345,128842,-1497,9227,124714,225,19585,1462,1,47673,0.0009989999999999721
1114000,2027,10495,118782,9361,6870,112274,225,19617,922,0,47674,0.0009999999999998899
1115001,7171,4124,127029,3264,8887,130570,392,19602,1606,0,47675,0.0010010000000000296
1116001,543,-2405,129845,-3115,-6464,135106,383,19587,1569,1,47676,0.001000000000000112
1117004,2109,-3427,126611,5347,5055,121212,257,19614,1053,1,47677,0.0010029999999998651
1118000,5114,11276,132199,-5236,3660,134660,364,19614,1053,0,47678,0.0009959999999999969
1119000,1015,341,131618,-219,4297,133021,416,19601,1491,1,47679,0.001000000000000112
1120000,102,5998,129875,4229,2870,127867,416,19593,1704,1,47680,0.0009999999999998899
1121000,-596,-7760,128565,4355,-3323,141983,290,19598,1188,0,47681,0.001000000000000112
1122000,2778,9814,136431,-4194,10100,125849,355,19596,1454,0,47682,0.0009999999999998899
1123005,-5617,-138,128336,-2473,-3113,134992,427,19623,1749,1,47683,0.0010050000000001447
1124000,7862,5838,133622,-4512,7507,121966,289,19623,1749,0,47684,0.0009949999999998571
1125000,1633,-14450,127610,31767,-15105,149528,355,19598,1184,0,47685,0.001000000000000112
1126000,-2148,-6821,126051,-17669,-770,119907,355,19595,1454,1,47686,0.0009999999999998899
1127001,4348,16157,130793,-7689,19248,119285,395,19620,1618,1,47687,0.0010010000000000296
1128001,-2127,6910,129729,26178,980,140445,316,19595,1294,0,47688,0.001000000000000112
1129000,10695,-1074,121399,836,-1995,107258,364,19578,1491,1,47689,0.0009989999999999721
1130000,-15716,1587,127987,-16298,2515,136675,263,19578,1491,1,47690,0.0009999999999998899
1131000,15917,3878,127469,12713,8259,116280,416,19610,1077,0,47691,0.001000000000000112
1132000,-10274,16276,118571,20078,17748,106954,416,19604,1704,0,47692,0.0009999999999998899
1133000,9473,11550,128062,-18693,11040,123793,371,19599,1520,1,47693,0.001000000000000112
1134001,7600,10522,124095,3467,7752,123981,256,19611,1049,0,47694,0.0010010000000000296
1135000,2851,-261,123491,23004,2609,118704,368,19599,1507,0,47695,0.0009989999999999721
1136001,7522,5724,130651,-2125,7302,126853,419,19599,1507,1,47696,0.0010010000000000296
1137004,-8727,-6450,126963,-20528,-7626,142336,256,19604,1716,1,47697,0.0010029999999998651
1138002,9286,10867,131658,21790,12433,117747,256,19607,1049,0,47698,0.0009980000000000544
1139002,-1306,9813,131098,2671,7739,133607,324,19598,1327,1,47699,0.0009999999999998899
1140001,-2977,-8419,130633,-14745,-6879,137515,483,19620,1978,1,47700,0.0009990000000001942
1141002,9814,5555,130857,409,6548,126587,284,19597,1163,0,47701,0.0010009999999998076
1142000,-2858,-8790,128779,22359,-6538,142687,338,19597,1163,0,47702,0.0009980000000000544
1143000,3924,17188,133084,-14512,15828,122426,347,19598,1384,1,47703,0.001000000000000112
1144000,5761,-3869,130697,-12924,-5768,135513,347,19623,1421,0,47704,0.0009999999999998899
1145000,-6577,-2665,129852,42331,117,134553,334,19605,1368,0,47705,0.001000000000000112
1146000,11384,-12164,125658,-17445,-12142,127326,369,19580,1511,1,47706,0.0009999999999998899
1147000,-9889,2101,128099,-18337,1479,133213,327,19615,1339,1,47707,0.001000000000000112
1148001,4737,18494,131300,32996,19644,118936,368,19615,1507,0,47708,0.0010010000000000296
1149000,6050,-2181,120970,-12418,-3874,121809,387,19604,1507,1,47709,0.0009989999999999721
1150001,-9297,6785,130931,763,8886,126266,269,19601,1585,1,47710,0.0010010000000000296
1151000,11764,-7058,121461,10626,-6789,127658,269,19606,1102,0,47711,0.0009989999999999721
1152001,-9541,21651,120891,270,21458,103689,394,19600,1614,0,47712,0.0010010000000000296
1153000,9485,14432,131635,-6476,15569,121780,408,19629,1671,1,47713,0.0009989999999999721
1154000,2810,3877,118930,12404,6113,124275,276,19629,1130,0,47714,0.0009999999999998899
1155000,7479,5795,126345,10425,5795,114127,338,19599,1130,0,47715,0.001000000000000112
1156028,2425,-62,130432,-14092,1978,136379,417,19597,1384,1,47716,0.0010280000000000289
1157000,-319,2501,126806,10547,1807,118497,417,19623,1708,1,47717,0.0009719999999999729
1158000,6663,5662,130309,347,7015,136417,284,19604,1163,0,47718,0.0009999999999998899
1159000,-1638,2477,132782,-2303,169,135748,355,19590,1454,1,47719,0.001000000000000112
1160000,674,6,128073,5405,3167,129263,359,19590,1470,1,47720,0.0009999999999998899
1161000,569,2587,130037,-4067,11098,131168,333,19622,1470,0,47721,0.001000000000000112
1162000,6225,7842,135449,498,-2206,138800,353,19601,1364,0,47722,0.0009999999999998899
1163001,-8448,-6042,126570,3148,-3759,128099,353,19578,1446,1,47723,0.0010010000000000296
1164000,10258,2258,131338,-3897,3583,126553,228,19619,934,0,47724,0.0009989999999999721
1165000,-2871,-2629,131522,18754,-2818,144940,377,19602,1544,0,47725,0.001000000000000112
1166003,4562,-7303,122847,-9435,-2910,116902,382,19588,1565,1,47726,0.0010029999999998651
1167000,-4028,18651,132837,-5566,21986,123796,245,19588,1565,1,47727,0.0009970000000001367
1168000,4676,-6184,126218,21095,-12827,143709,370,19617,1003,0,47728,0.0009999999999998899
1169000,5514,5528,123106,562,7893,103735,370,19599,1515,1,47729,0.001000000000000112
1170002,-15404,-6692,125486,-7522,-8436,141059,435,19619,1782,1,47730,0.0010019999999999474
1171000,13802,16566,127186,2663,24280,107150,279,19601,1143,0,47731,0.0009980000000000544
1172000,-5520,10558,120278,19695,5991,115024,331,19601,1356,0,47732,0.0009999999999998899
1173002,7533,11126,125101,-5275,14815,123216,360,19601,1356,1,47733,0.0010019999999999474
1174000,7579,9336,124059,-11428,2289,120911,317,19617,1474,0,47734,0.0009980000000000544
1175000,412,7111,125440,23514,12213,123014,317,19595,1298,0,47735,0.001000000000000112
1176000,1825,1382,129164,-3079,-4077,129146,371,19588,1520,1,47736,0.0009999999999998899
1177000,-23,-3343,126406,-16695,2068,133477,353,19616,1446,1,47737,0.001000000000000112
1178000,1351,4692,132099,22920,5534,125690,335,19605,1372,0,47738,0.0009999999999998899
1179000,9835,9932,128880,786,5418,132735,371,19605,1372,1,47739,0.001000000000000112
1180001,-3080,537,131421,-13910,3989,128976,237,19576,1520,1,47740,0.0010009999999998076
1181000,922,4786,131705,15162,2832,134556,237,19619,971,0,47741,0.0009990000000001942
1182000,4675,-13778,126786,-754,-11574,142382,385,19607,1577,0,47742,0.0009999999999998899
1183000,-8944,14984,135507,-1939,16879,118179,371,19596,1520,1,47743,0.001000000000000112
1184000,7266,-5521,127505,-16565,-11564,145914,270,19607,1106,0,47744,0.0009999999999998899
1185000,-9,3359,131933,30727,8425,119788,378,19607,1106,0,47745,0.001000000000000112
1186000,2326,-8953,121865,6213,-10392,135505,424,19598,1548,1,47746,0.0009999999999998899
1187000,1553,3812,127494,-37400,4185,126392,424,19608,1737,1,47747,0.001000000000000112
1188000,4986,12027,132904,41218,12989,122731,262,19604,1073,0,47748,0.0009999999999998899
1189000,2675,329,121558,5252,-969,125273,339,19598,1388,1,47749,0.001000000000000112
1190001,-9042,-910,128011,-24076,491,120197,410,19621,1679,1,47750,0.0010009999999998076
1191002,9626,9923,128182,8925,9134,129173,299,19621,1225,0,47751,0.0010010000000000296
1192000,-5319,-6074,117385,14499,-4256,113953,346,19595,1225,0,47752,0.0009980000000000544
1193000,12550,34202,128391,-10420,34447,107519,288,19595,1417,1,47753,0.0009999999999998899
1194000,2613,1693,124268,9554,629,132357,288,19621,1180,0,47754,0.001000000000000112
1195000,10233,12176,120193,12274,13169,110022,361,19604,1479,0,47755,0.0009999999999998899
1196002,981,2261,133194,-5048,3381,127634,382,19577,1565,1,47756,0.0010020000000001694
1197000,-1578,-4990,126963,-5107,-5217,146325,228,19577,934,1,47757,0.0009979999999998324
1198000,455,9071,130373,11448,9437,106836,350,19621,934,0,47758,0.001000000000000112
1199001,-2406,2105,132183,-12022,2447,144678,388,19602,1433,1,47759,0.0010010000000000296
1200001,4786,2160,130726,3211,1536,131517,388,19590,1589,1,47760,0.0009999999999998899
1201000,-1412,-1811,127891,8714,-1365,125902,260,19609,1065,0,47761,0.0009989999999999721
1202000,6889,-2801,132496,-8407,-2624,145057,388,19602,1589,0,47762,0.001000000000000112
1203002,-1804,7690,132865,7028,7734,114993,418,19613,1712,1,47763,0.0010019999999999474
1204000,2494,908,126313,-6663,512,138425,288,19613,1712,0,47764,0.0009980000000000544
1205002,675,166,134568,15923,1397,137026,347,19597,1180,0,47765,0.0010019999999999474
1206000,545,-11724,122220,8310,-10487,124720,347,19592,1421,1,47766,0.0009980000000000544
1207000,-2524,3601,127778,-25432,2664,131012,487,19621,1995,1,47767,0.0009999999999998899
1208000,2233,16866,132926,17012,14364,119910,292,19604,1196,0,47768,0.001000000000000112
1209002,8089,3498,120857,11549,-7077,125446,363,19588,1487,1,47769,0.0010019999999999474
1210000,-9384,2169,130566,-11374,8526,123402,292,19588,1487,1,47770,0.0009980000000000544
1211000,14087,-4616,122206,12560,-6738,129742,363,19619,1196,0,47771,0.0009999999999998899
1212003,-9334,17634,124138,-1209,29944,95968,363,19597,1487,0,47772,0.0010030000000000872
1213007,12385,15037,126185,-1723,4443,133158,356,19587,1458,1,47773,0.0010040000000000049
1214000,-700,5259,123212,12412,9557,114156,254,19612,1040,0,47774,0.0009930000000000216
1215000,4549,8592,122843,-2762,4879,123694,377,19599,1544,0,47775,0.0009999999999998899
1216000,7581,3980,131530,-3200,6104,134700,399,19599,1544,1,47776,0.001000000000000112
1217000,-6603,2096,128064,15434,408,121200,258,19599,1634,1,47777,0.0009999999999998899
1218000,13763,1668,129402,-4605,2768,136272,258,19607,1057,0,47778,0.001000000000000112
1219004,-7905,3889,132721,-4646,1768,131785,359,19597,1470,0,47779,0.0010040000000000049
1220000,3187,2594,129853,6321,6265,133311,440,19617,1802,1,47780,0.0009959999999999969
1221000,3044,3146,129835,-146,2285,127709,271,19597,1110,0,47781,0.0009999999999998899
1222002,-824,3786,132849,-2897,6289,138240,330,19597,1110,0,47782,0.0010020000000001694
1223000,68,-6350,128836,4047,-10036,132663,364,19599,1352,1,47783,0.0009979999999998324
1224000,1535,7020,130468,-6809,8048,121827,364,19624,1491,0,47784,0.001000000000000112
1225000,10796,-6380,130486,24837,-9081,146336,309,19600,1266,0,47785,0.0009999999999998899
1226000,-12301,1983,124666,-972,7045,116776,363,19590,1487,1,47786,0.001000000000000112
1227000,11792,3670,125797,-29463,1855,128430,355,19620,1454,1,47787,0.0009999999999998899
1228000,-4999,10676,135039,32169,12850,131725,341,19620,1454,0,47788,0.001000000000000112
1229000,9096,-5256,119250,13260,-8455,117393,373,19605,1397,1,47789,0.0009999999999998899
1230000,-4756,3265,126673,-29514,6680,123041,373,19582,1528,1,47790,0.001000000000000112
1231000,7339,2584,128678,14020,409,130202,251,19614,1028,0,47791,0.0009999999999998899
1232000,1077,12617,118457,18968,16285,104586,389,19603,1593,0,47792,0.001000000000000112
1233002,3704,14121,125810,-19717,13877,119411,380,19606,1556,1,47793,0.0010019999999999474
1234002,8394,17369,127714,7586,14736,125976,281,19606,1151,0,47794,0.001000000000000112
1235001,3890,-1987,118412,22464,-601,114868,373,19603,1151,0,47795,0.0009989999999999721
1236000,3661,8585,130166,-11555,9696,125460,448,19596,1528,1,47796,0.0009989999999999721
1237000,-3090,-7305,130376,-8421,-8428,141819,448,19622,1835,1,47797,0.0009999999999998899
1238000,6637,8590,127364,11594,11375,115553,274,19603,1122,0,47798,0.001000000000000112
1239000,889,9381,133480,3642,6364,132504,347,19595,1421,0,47799,0.0009999999999998899
1240000,-4281,-6623,129445,-9245,-6003,145730,426,19595,1745,1,47800,0.001000000000000112
1241000,8081,10418,131620,5665,10332,113446,314,19616,1745,0,47801,0.0009999999999998899
1242000,-4832,-9698,128690,6826,-8214,152473,347,19598,1286,0,47802,0.001000000000000112
1243000,1972,11453,134728,-7083,11287,121013,347,19591,1421,1,47803,0.0009999999999998899
1244001,2903,-4610,126416,-5562,-5969,134541,311,19615,1274,1,47804,0.0010010000000000296
1245000,1908,5967,135340,16145,5313,128649,386,19602,1581,0,47805,0.0009989999999999721
1246000,1030,-14222,120510,16812,-11890,137056,375,19602,1536,1,47806,0.001000000000000112
1247000,-2325,3879,127034,-31172,1745,119031,231,19571,1536,1,47807,0.0009999999999998899
1248000,4725,18200,136049,10965,20650,126602,341,19620,946,0,47808,0.001000000000000112
1249000,3872,-6822,117317,29629,-9475,134128,341,19601,1397,1,47809,0.0009999999999998899
1250000,-1105,11332,131519,-22130,10911,106541,403,19595,1651,1,47810,0.001000000000000112
1251000,4561,-5319,123517,9703,-5462,126949,285,19603,1167,0,47811,0.0009999999999998899
1252000,920,16696,122943,6963,17533,99938,381,19598,1560,0,47812,0.001000000000000112
1253000,9978,12126,124420,-16292,11081,129440,425,19598,1560,1,47813,0.0009999999999998899
1254000,3366,8657,125241,32284,8507,121421,283,19628,1741,1,47814,0.001000000000000112
1255000,3093,1387,118248,-6350,11149,112066,283,19597,1159,0,47815,0.0009999999999998899
1256000,5951,18182,135279,-12107,10731,138583,355,19591,1454,1,47816,0.001000000000000112
1257000,-4835,-6716,127829,18040,-5548,124227,401,19625,1642,1,47817,0.0009999999999998899
1258000,6091,1106,125578,1653,5020,126960,293,19602,1200,0,47818,0.001000000000000112
1259000,1465,1856,134593,-16623,-3788,144722,356,19602,1200,0,47819,0.0009999999999998899
1260000,2146,5843,128613,19014,12695,120465,343,19587,1458,1,47820,0.001000000000000112
1261002,3468,4485,129709,-149,761,131114,343,19618,1405,0,47821,0.0010019999999999474
1262000,903,-260,132668,-14520,-36,146345,369,19604,1511,0,47822,0.0009980000000000544
1263000,-3005,-4595,128379,8862,-3411,125403,357,19587,1462,1,47823,0.0009999999999998899
1264000,282,9468,129441,169,5639,124677,237,19615,971,1,47824,0.001000000000000112
1265001,9097,-2863,131287,15370,-1537,139614,355,19615,971,0,47825,0.0010010000000000296
1266000,-7632,-3922,126223,-4396,-7121,127251,399,19601,1454,1,47826,0.0009989999999999721
1267001,4347,-2798,124526,-15320,4802,121903,399,19587,1634,1,47827,0.0010010000000000296
1268000,-652,18764,134497,23128,14524,134269,280,19602,1147,0,47828,0.0009989999999999721
1269000,7970,-4975,120550,6938,-5541,114507,351,19594,1438,0,47829,0.0009999999999998899
1270000,-4418,7172,125047,-22577,7929,122179,445,19619,1823,1,47830,0.001000000000000112
1271000,10862,-4616,129281,19679,-4598,135768,294,19619,1823,0,47831,0.0009999999999998899
1272001,-4093,13142,118656,7109,17024,100093,343,19586,1204,0,47832,0.0010010000000000296
1273000,7101,12702,125108,-16844,13065,125139,343,19599,1405,1,47833,0.0009989999999999721
1274000,8120,19373,126332,16320,17347,120540,322,19623,1319,1,47834,0.001000000000000112
1275000,3460,1040,118718,12925,-174,116714,326,19598,1335,0,47835,0.0009999999999998899
1276001,7141,6473,131505,-8834,8227,127871,368,19587,1507,1,47836,0.0010010000000000296
1277000,-5352,-7351,127813,-2301,-10026,140760,289,19587,1507,1,47837,0.0009989999999999721
1278000,4453,8835,129236,9738,15129,111885,384,19617,1184,0,47838,0.001000000000000112
1279006,2750,9677,131716,-7415,2502,142597,378,19604,1573,0,47839,0.0010059999999998404
1280000,-6196,-3436,130966,371,-692,132520,378,19584,1548,1,47840,0.0009940000000001614
1281002,10450,7140,130910,4502,6249,125848,248,19615,1016,0,47841,0.0010019999999999474
1282000,-2735,-10465,129579,1271,-8990,146260,371,19603,1520,0,47842,0.0009980000000000544
1283000,-2640,11430,132971,-910,12195,120245,388,19603,1589,1,47843,0.0009999999999998899
1284000,4485,-6020,126130,-6797,-9324,137610,261,19606,1589,1,47844,0.001000000000000112
1285000,4072,13286,135837,16351,13735,123048,345,19606,1069,0,47845,0.0009999999999998899
1286000,-3841,-15570,122309,16465,-14716,140764,345,19598,1413,1,47846,0.001000000000000112
1287000,4012,2380,124645,-32731,1844,118855,466,19627,1909,1,47847,0.0009999999999998899
1288000,-1201,16415,136198,17735,18528,127195,268,19602,1098,0,47848,0.001000000000000112
1289000,10982,-2244,120198,19616,-5646,129344,350,19602,1433,0,47849,0.0009999999999998899
1290000,-6999,2237,125892,-16224,2143,113603,361,19597,1433,1,47850,0.001000000000000112
1291000,7553,2252,128079,6338,1880,136987,327,19619,1479,0,47851,0.0009999999999998899
1292000,3804,12361,119773,3396,14307,104457,327,19599,1339,0,47852,0.001000000000000112
1293000,531,9824,123940,6361,8671,120936,353,19590,1446,1,47853,0.0009999999999998899
1294000,10544,15878,124577,1673,14465,119267,225,19618,922,1,47854,0.001000000000000112
1295000,-3280,4665,121287,-3620,3234,120899,370,19618,1515,0,47855,0.0009999999999998899
1296000,13733,8634,131982,16257,11929,123126,387,19600,1515,1,47856,0.001000000000000112
1297000,-12511,-4518,126687,-5943,-4526,133910,240,19587,1585,1,47857,0.0009999999999998899
1298000,12568,1964,129245,-4876,1565,134023,240,19615,983,0,47858,0.001000000000000112
1299000,-4539,8885,132712,5656,3617,124746,358,19602,1466,0,47859,0.0009999999999998899
1300000,2685,251,128768,-5797,3556,142893,417,19600,1708,1,47860,0.001000000000000112
1301000,6547,-532,130925,15445,-1869,120389,269,19603,1102,0,47861,0.0009999999999998899
1302002,-4715,1937,130411,-7659,-7863,146849,355,19603,1102,0,47862,0.0010019999999999474
1303000,5748,1615,132456,-550,10184,123682,437,19602,1454,1,47863,0.0009980000000000544
1304000,-6405,6957,128092,4946,-5877,127389,437,19624,1790,1,47864,0.001000000000000112
1305000,11799,-4695,131705,-5480,-706,144475,286,19600,1171,0,47865,0.0009999999999998899
1306000,-7479,-2935,126342,31694,-4740,120034,358,19594,1466,1,47866,0.001000000000000112
1307000,3078,-1590,124155,-23636,6508,129312,415,19620,1700,1,47867,0.0009999999999998899
1308000,1302,18749,137232,33395,14698,124496,316,19620,1700,0,47868,0.001000000000000112
1309000,6799,-5400,119173,-10,-7952,124508,367,19602,1294,0,47869,0.0009999999999998899
1310000,-4791,1013,126827,-16625,579,122618,367,19580,1503,1,47870,0.0009999999999998899
1311001,11616,2701,128173,10544,7594,126651,229,19615,938,0,47871,0.0010010000000000296
1312000,-5689,10920,119858,18378,8790,110126,410,19602,1679,0,47872,0.0009989999999999721
1313002,8831,16001,124535,-20802,21943,113819,370,19602,1515,1,47873,0.0010020000000001694
1314001,3224,21181,127448,8491,11686,128264,254,19602,1515,1,47874,0.0009989999999999721
1315002,5616,-5294,116870,26618,2530,116015,376,19613,1040,0,47875,0.0010010000000000296
1316000,7254,13361,131089,-15475,7907,123954,376,19600,1540,1,47876,0.0009979999999998324
1317000,-7554,-13421,129272,-7440,-10613,142736,422,19611,1728,1,47877,0.001000000000000112
1318001,9469,9585,127572,13037,11257,118865,260,19603,1065,0,47878,0.0010010000000000296
1319001,-2810,5366,131639,2761,1102,133820,331,19602,1356,0,47879,0.0009999999999998899
1320000,-1631,8672,132806,-5763,10029,133263,452,19602,1356,1,47880,0.0009989999999999721
1321002,6675,-7975,127971,-3113,-11310,133996,288,19621,1851,0,47881,0.0010020000000001694
1322000,-3832,3538,131817,7841,8700,127617,288,19599,1180,0,47882,0.0009979999999998324
1323000,5568,-1134,130728,1561,-3276,143192,346,19595,1417,1,47883,0.001000000000000112
1324002,-4159,-391,126592,-12882,58,122744,367,19618,1503,1,47884,0.0010019999999999474
1325000,6420,15632,137411,25151,13394,128385,346,19610,1417,0,47885,0.0009980000000000544
1326000,463,-22307,121492,-1842,-21469,145570,368,19610,1507,1,47886,0.0009999999999998899
1327000,-404,10432,127984,-11454,13223,104100,273,19581,1507,1,47887,0.001000000000000112
1328000,3709,279,131994,7511,-2107,149554,375,19621,1118,0,47888,0.0009999999999998899
1329000,6504,7244,122404,11952,7148,110092,375,19604,1536,0,47889,0.001000000000000112
1330000,-10823,3531,127865,-7688,1586,122679,391,19593,1601,1,47890,0.0009999999999998899
1331000,14436,262,127496,-2894,1854,136549,270,19608,1106,0,47891,0.001000000000000112
1332000,-7007,16853,120977,19074,19488,98311,391,19608,1601,0,47892,0.0009999999999998899
1333000,10995,6281,123000,-6405,4582,130442,402,19598,1601,1,47893,0.001000000000000112
1334000,3320,22143,124878,-1042,19577,109327,281,19623,1646,1,47894,0.0009999999999998899
1335000,5693,6896,122957,15436,7680,119639,281,19597,1151,0,47895,0.001000000000000112
1336000,3592,-5020,129699,4169,-2942,132987,342,19597,1401,1,47896,0.0009999999999998899
1337000,-3883,179,129373,-12697,946,127625,432,19620,1769,1,47897,0.001000000000000112
1338000,2987,-10,128315,6055,-239,135521,276,19620,1130,0,47898,0.0009999999999998899
1339000,2178,21781,133384,6444,19972,115260,350,19601,1130,0,47899,0.001000000000000112
1340000,936,-9007,127950,-16255,-8740,142994,368,19593,1433,1,47900,0.0009999999999998899
1341000,4596,-2416,130826,18307,-803,133880,368,19621,1507,0,47901,0.001000000000000112
1342000,1477,384,129468,5028,3704,130349,336,19599,1376,0,47902,0.0009999999999998899
1343001,-4950,7844,132855,-11029,4068,136342,357,19585,1462,1,47903,0.0010010000000000296
1344001,1143,7286,130900,-5325,9509,121974,226,19622,926,1,47904,0.001000000000000112
1345000,9500,-7168,128773,5791,-8790,134403,376,19622,926,0,47905,0.0009989999999999721
1346000,-7468,-11021,126055,31361,-4579,137017,381,19604,1540,1,47906,0.0009999999999998899
1347000,5731,-1567,126666,-22866,-8309,110592,381,19581,1560,1,47907,0.001000000000000112
1348000,-228,24551,133263,-14387,28539,137275,271,19614,1110,0,47908,0.0009999999999998899
1349000,6802,-4116,122379,47079,-6955,114540,386,19593,1581,0,47909,0.001000000000000112
1350000,-1566,1326,121240,-20181,-8073,128727,432,19615,1769,1,47910,0.0009999999999998899
1351000,6328,-997,131156,-9620,11609,126225,280,19615,1769,0,47911,0.001000000000000112
1352000,1404,14079,121916,23163,6337,106971,337,19598,1147,0,47912,0.0009999999999998899
1353000,-964,3924,119873,8457,17140,117439,337,19599,1380,1,47913,0.001000000000000112
1354000,9943,25446,129252,-4189,9806,126086,366,19623,1499,1,47914,0.0009999999999998899
1355000,2637,-8549,116933,22882,3119,121541,304,19598,1245,0,47915,0.001000000000000112
1356002,9716,18138,130646,6792,11783,117027,362,19595,1483,1,47916,0.0010019999999999474
1357002,-5762,-9022,128408,-24119,-5972,143383,351,19595,1483,1,47917,0.001000000000000112
1358000,7872,5705,127323,9957,6334,122971,328,19624,1438,0,47918,0.0009979999999998324
