t_us,ax,ay,az,ax1,ay1,az1,shunt_raw,bus_raw,curr_raw,pg_rpm,seq,dt
0,9695,4528,127562,1348,621,125465,39,19236,160,1,17641,
1002,8757,-2522,127102,-1068,-3850,128390,42,19235,172,1,17642,0.0010019999999999999
2000,8647,-4047,127499,1068,-5171,130422,49,19233,201,1,17643,0.0009980000000000002
3000,6968,-404,128005,-2356,1935,126220,57,19234,233,0,17644,0.001
4000,7026,6969,128966,-4782,5769,123979,42,19234,172,0,17645,0.001
5000,8172,304,127402,1940,-3074,129181,45,19238,172,0,17646,0.001
6000,8911,-2776,126697,-460,-1662,127402,46,19236,184,0,17647,0.001
7000,9236,317,127128,180,199,125414,46,19236,188,0,17648,0.0009999999999999992
8000,8991,1894,127479,476,1205,125871,46,19238,188,0,17649,0.0010000000000000009
9000,9789,340,127884,-1680,-779,128549,45,19238,184,0,17650,0.0009999999999999992
10000,7747,-178,127491,-78,-205,127315,45,19238,184,0,17651,0.0010000000000000009
11000,7333,2277,128125,-1938,800,125930,45,19238,184,0,17652,0.0009999999999999992
12000,8223,-363,127407,-380,-1357,127405,50,19235,184,0,17653,0.0010000000000000009
13000,8430,-275,127403,537,-525,127158,50,19236,205,0,17654,0.0009999999999999992
14001,9006,2544,128160,-1733,2084,126072,57,19233,233,1,17655,0.0010010000000000002
15001,8294,459,127456,-88,-313,126653,42,19237,172,1,17656,0.0009999999999999992
16045,9764,-559,127307,1665,-1301,128056,46,19237,188,1,17657,0.0010440000000000015
17000,7757,-516,127811,-1693,-1183,126842,44,19237,188,1,17658,0.0009549999999999975
18000,8033,1700,127774,-1145,951,126232,39,19234,180,1,17659,0.0010000000000000009
19000,7982,549,128220,10,-800,127562,39,19238,160,1,17660,0.0010000000000000009
20000,9909,1066,127497,699,608,125114,38,19236,156,1,17661,0.0010000000000000009
21002,9791,1954,127642,28,955,126982,42,19238,172,1,17662,0.0010019999999999994
22001,8980,-227,127191,889,-1257,127554,47,19235,192,1,17663,0.0009989999999999999
23000,8380,-1374,127332,-842,-1197,128316,58,19235,192,0,17664,0.0009989999999999999
24000,7026,855,127947,-2741,3033,125008,43,19235,238,0,17665,0.0010000000000000009
25001,8684,4293,128721,-423,908,126115,43,19239,176,0,17666,0.0010009999999999984
26001,8195,-1132,127358,-593,-4438,129332,46,19235,188,0,17667,0.0010000000000000009
27000,8719,-3310,126933,67,-1695,126825,43,19237,176,0,17668,0.0009989999999999999
28000,9627,3003,128080,-698,-462,126218,44,19235,180,0,17669,0.0009999999999999974
29000,9161,2757,128256,-127,1678,126357,45,19235,180,0,17670,0.0010000000000000009
30000,8362,2627,128240,-3535,-2712,128400,45,19236,184,0,17671,0.0010000000000000009
31002,6534,-2037,127481,-331,349,127153,45,19236,184,0,17672,0.0010019999999999994
32002,7450,2596,128005,166,1477,125907,46,19240,188,0,17673,0.0009999999999999974
33000,8660,499,127069,-1339,-705,126319,52,19235,213,1,17674,0.0009980000000000058
34003,9666,1063,128191,292,567,127074,40,19238,164,1,17675,0.001002999999999997
35003,11008,-66,128164,474,-1300,127421,46,19238,164,1,17676,0.0010000000000000009
36000,8026,-799,127841,-525,-2234,127500,47,19235,188,1,17677,0.0009969999999999979
37000,5798,-2147,127925,-3178,-2006,128848,47,19240,192,1,17678,0.0010000000000000009
38000,6588,962,127601,-3259,2733,125153,43,19239,176,1,17679,0.0010000000000000009
39000,8755,5320,128051,1132,3002,125943,40,19239,164,1,17680,0.0010000000000000009
40002,9512,1088,126834,738,-355,126159,41,19238,168,1,17681,0.001001999999999996
41000,10138,-968,126624,297,-2422,126444,45,19238,168,1,17682,0.0009979999999999989
42000,8858,-1435,127495,-419,-1443,127802,52,19236,184,1,17683,0.0010000000000000009
43001,7536,927,128221,-2238,1039,126861,52,19234,213,0,17684,0.0010010000000000019
44000,5407,1537,128449,-4030,29,127722,58,19240,238,0,17685,0.0009989999999999999
45000,7702,1607,127699,-933,663,126187,42,19237,172,0,17686,0.0010000000000000009
46000,8526,593,126879,419,-999,126393,42,19238,172,0,17687,0.0010000000000000009
47001,9649,-1950,126697,630,-2936,126794,44,19238,172,0,17688,0.0010010000000000019
48000,10664,154,127293,839,612,126562,42,19233,180,0,17689,0.0009989999999999999
49000,8887,2393,127814,-582,2357,125847,42,19237,172,0,17690,0.000999999999999994
50000,7782,2771,128261,-1423,927,127154,42,19236,172,0,17691,0.0010000000000000009
51000,6449,-729,127538,-1401,-1553,128011,41,19237,168,0,17692,0.0010000000000000009
52000,7633,-483,127365,-711,-1125,126923,45,19241,184,0,17693,0.0010000000000000009
53000,8475,1308,127459,-257,682,125741,46,19241,188,1,17694,0.0010000000000000009
54000,10947,2138,127469,364,963,126425,44,19236,188,1,17695,0.0010000000000000009
55001,9392,-680,127488,-864,-2142,127854,49,19236,180,1,17696,0.001000999999999995
56000,6966,238,127899,-1676,-386,127311,49,19235,201,1,17697,0.0009989999999999999
57000,6750,733,127989,-1709,-16,127657,43,19239,176,1,17698,0.0010000000000000009
58000,6766,1801,128185,-1943,646,126266,40,19239,164,1,17699,0.0010000000000000009
59001,9341,1859,127740,-470,675,126509,38,19239,156,1,17700,0.0010010000000000019
60000,8974,-138,127343,1008,-985,126212,41,19237,156,1,17701,0.0009989999999999999
61000,8743,-330,127565,323,-851,126903,47,19236,168,1,17702,0.0010000000000000009
62001,7197,-1473,127986,-2424,-1822,128545,47,19236,192,1,17703,0.0010010000000000019
63000,7084,2205,128645,-3111,1867,126444,52,19239,213,0,17704,0.0009989999999999999
64000,8371,1081,128037,-880,-404,127651,42,19237,172,0,17705,0.0010000000000000009
65000,7937,1925,127967,-225,874,127337,44,19237,180,0,17706,0.0010000000000000009
66002,8752,-3814,126611,-1380,-5494,127218,44,19241,180,0,17707,0.001001999999999989
67000,8717,775,127016,751,768,125735,43,19235,180,0,17708,0.0009979999999999989
68000,7843,2656,128503,-1276,1351,127836,43,19239,176,0,17709,0.0010000000000000009
69000,7763,688,127945,-1933,83,126467,40,19236,164,0,17710,0.0010000000000000009
70002,7191,1272,128014,-1472,-1430,128796,40,19238,164,0,17711,0.0010020000000000029
71000,8247,-1158,127288,-233,489,125246,42,19236,172,0,17712,0.0009979999999999989
72000,8503,2196,127278,-156,201,126348,50,19236,172,0,17713,0.0010000000000000009
73000,7741,575,127461,-1762,188,126777,45,19236,205,1,17714,0.0010000000000000009
74000,8347,1716,127712,445,1099,126221,45,19235,184,1,17715,0.0010000000000000009
75000,8389,-367,127618,-1113,-2189,128863,44,19236,180,1,17716,0.0010000000000000009
76000,7367,-74,127909,-2382,-391,126135,42,19239,172,1,17717,0.0010000000000000009
77001,8285,-302,127727,751,-741,127949,39,19240,160,1,17718,0.0010010000000000019
78001,8515,1496,128118,-325,1026,126527,37,19240,160,1,17719,0.0010000000000000009
79000,9634,1943,127462,-297,1209,125544,37,19238,152,1,17720,0.0009989999999999999
80000,8606,-455,127016,-425,-505,126737,37,19242,152,1,17721,0.0010000000000000009
81000,8978,1141,127216,1290,-458,126370,45,19235,184,1,17722,0.0010000000000000009
82000,7501,309,127253,-1439,404,127515,48,19235,197,0,17723,0.000999999999999987
83007,7449,2172,128233,-5146,1882,126217,44,19238,180,0,17724,0.0010070000000000079
84000,9437,2367,128340,1590,4,126849,43,19238,180,0,17725,0.0009929999999999939
85000,8858,-680,127606,2240,-2234,128028,44,19237,176,0,17726,0.0010000000000000009
86000,8044,-2708,127043,-2272,-3653,127018,44,19239,180,0,17727,0.0010000000000000009
87000,7495,-959,127673,-2196,-148,127297,43,19239,176,0,17728,0.0010000000000000009
88000,9230,3019,128033,9,3824,126204,44,19238,180,0,17729,0.0010000000000000009
89000,7733,4236,128129,-1214,3202,125715,42,19236,172,0,17730,0.0010000000000000009
90000,7015,904,127993,-2182,-2026,128511,42,19236,172,0,17731,0.0010000000000000009
91000,7386,-2803,127173,-712,-2378,127413,45,19238,172,0,17732,0.0010000000000000009
92000,7483,286,127952,-419,87,127110,45,19236,184,0,17733,0.0010000000000000009
93000,8663,1294,127548,-2333,-1677,127342,56,19236,229,1,17734,0.0010000000000000009
94000,10225,1329,127225,4635,4030,122088,42,19233,172,1,17735,0.0010000000000000009
95000,9098,4416,127962,-6470,-3680,131620,46,19237,188,1,17736,0.0010000000000000009
96000,10179,-3545,127648,1484,-874,126394,43,19237,188,1,17737,0.0010000000000000009
97000,6792,4129,128233,4527,-418,126928,39,19240,176,1,17738,0.000999999999999987
98000,8668,-1115,128641,-9058,-404,127922,39,19236,160,1,17739,0.0010000000000000009
99000,7849,-1443,128267,3260,-4804,127524,40,19235,164,1,17740,0.0010000000000000009
100000,8126,-2948,126531,5080,-624,129133,43,19240,176,1,17741,0.0010000000000000009
101001,7420,9215,127209,-9687,10075,117852,48,19236,197,1,17742,0.0010010000000000019
102000,7489,8171,128545,-1015,3943,127204,54,19236,221,0,17743,0.0009989999999999999
103001,11202,-6472,126618,3694,-7483,132242,44,19233,221,0,17744,0.0010010000000000019
104000,8100,-1502,128992,600,-1341,126289,44,19240,180,0,17745,0.0009989999999999999
105000,9204,-2227,127919,-6285,-2794,127417,44,19236,180,0,17746,0.0010000000000000009
106000,8231,-17,127753,5478,-1486,126772,43,19236,176,0,17747,0.0010000000000000009
107000,8418,-1466,127286,-2005,-564,128373,43,19236,176,0,17748,0.0010000000000000009
108001,8306,9257,127730,-2507,8573,122286,42,19236,172,0,17749,0.0010010000000000019
109000,7216,1002,126821,-2066,-1186,126784,40,19240,172,0,17750,0.0009989999999999999
110001,10707,-125,128045,1627,-917,127144,46,19238,164,0,17751,0.0010010000000000019
111000,9569,-2463,127795,4781,-3344,129356,46,19236,188,0,17752,0.0009989999999999999
112000,7758,260,128615,-2872,-629,126518,50,19233,205,1,17753,0.000999999999999987
113000,7397,-928,126836,-3997,-1801,125758,47,19239,192,1,17754,0.0010000000000000009
114000,10677,2390,128182,1757,3317,126111,46,19235,188,1,17755,0.0010000000000000009
115000,8294,4063,128004,-454,2183,126407,49,19235,188,1,17756,0.0010000000000000009
116000,6335,-3367,126972,-3666,-4175,128908,45,19237,201,1,17757,0.0010000000000000009
117000,8723,-1758,128020,-879,1579,127013,45,19237,184,1,17758,0.0010000000000000009
118000,9590,4488,128451,2727,3279,124933,41,19237,168,1,17759,0.0010000000000000009
119000,9396,1458,127020,264,-2592,128403,42,19236,172,1,17760,0.0010000000000000009
120002,7771,-1925,126965,-3415,-942,125680,44,19236,180,1,17761,0.0010020000000000029
121000,9181,1325,127385,1878,1190,127095,52,19236,180,1,17762,0.0009979999999999989
122000,8069,1726,128558,-1046,521,127042,58,19234,213,0,17763,0.0010000000000000009
123000,5972,111,128242,-4347,-2579,128667,58,19236,238,0,17764,0.0010000000000000009
124000,8886,-1685,127615,1360,-572,127704,46,19236,188,0,17765,0.0010000000000000009
125000,7856,2396,127888,2335,1405,125766,48,19233,197,0,17766,0.0010000000000000009
126000,9869,-245,127008,-1354,-2548,127132,48,19236,197,0,17767,0.0010000000000000009
127001,8207,52,126647,-1887,2044,124932,47,19236,197,0,17768,0.0010010000000000019
128000,9823,4441,128540,-868,2573,126188,43,19232,192,0,17769,0.0009989999999999999
129000,9322,700,127597,751,-376,127677,43,19235,176,0,17770,0.0010000000000000009
130002,7158,-1140,128081,-1379,-3199,129376,46,19236,188,0,17771,0.0010020000000000029
131000,7606,-4851,127229,-1842,-1804,127032,48,19236,197,0,17772,0.0009979999999999989
132000,8780,4227,128276,-451,3687,124957,53,19233,217,0,17773,0.0010000000000000009
133000,9255,584,127334,1251,-940,127804,57,19233,217,1,17774,0.0010000000000000009
134000,8813,1518,126797,-2387,2411,124174,43,19238,233,1,17775,0.0009999999999999731
135000,8893,1729,127712,-1930,-190,127255,43,19234,176,1,17776,0.0010000000000000009
136001,8212,-301,128004,1373,-1641,127884,43,19236,176,1,17777,0.0010010000000000019
137000,8489,-2386,127655,873,-4524,130462,44,19236,180,1,17778,0.0009989999999999999
138000,6672,-603,128232,-2418,1428,125422,38,19231,156,1,17779,0.0010000000000000009
139000,9979,4761,127860,-505,2594,124412,40,19231,156,1,17780,0.0010000000000000009
140000,9862,634,126834,2893,-804,127225,44,19236,164,1,17781,0.0010000000000000009
141000,9085,965,127185,-625,156,126525,44,19233,180,1,17782,0.0010000000000000009
142002,7526,114,127191,-2786,111,126811,51,19235,209,0,17783,0.0010020000000000029
143001,6480,3207,128447,-1792,2161,126335,50,19238,205,0,17784,0.0009989999999999999
144001,10004,-1838,128518,1631,-3935,130147,46,19236,188,0,17785,0.0010000000000000009
145000,7809,-2000,127328,45,-1387,126202,47,19236,192,0,17786,0.0009989999999999999
146000,8685,769,127650,-1816,84,126218,47,19232,192,0,17787,0.0010000000000000009
147000,8823,-232,126891,-460,-496,126011,44,19235,192,0,17788,0.0010000000000000009
148001,10189,3012,128084,-368,3081,126971,44,19241,180,0,17789,0.0010010000000000019
149000,7218,1899,127755,-212,992,126634,44,19235,180,0,17790,0.0009989999999999999
150000,6772,1001,127581,-3150,-827,126580,47,19237,192,0,17791,0.0010000000000000009
151000,8195,-2893,127524,785,-3808,129813,50,19237,205,0,17792,0.0010000000000000009
152000,8794,74,127510,813,635,125762,55,19234,205,1,17793,0.0010000000000000009
153000,9653,3649,128091,-1180,3312,125420,45,19239,225,1,17794,0.0010000000000000009
154000,9580,1719,127664,-202,452,126179,45,19235,184,1,17795,0.0010000000000000009
155000,7823,-2612,127792,-1351,-4045,129257,47,19236,192,1,17796,0.0010000000000000009
156001,6446,-1155,128030,-339,-955,127887,47,19233,192,1,17797,0.0010010000000000019
157000,6649,2330,128257,-2903,1346,126111,42,19233,172,1,17798,0.0009989999999999999
158000,9371,1255,127369,-737,357,126910,41,19237,172,1,17799,0.0010000000000000009
159000,9855,1632,127136,1509,1049,126160,42,19236,168,1,17800,0.0010000000000000009
160000,10411,420,126885,1816,-519,125786,42,19236,172,1,17801,0.0010000000000000009
161000,7812,161,127173,-1772,-846,127368,47,19233,192,1,17802,0.0010000000000000009
162000,6695,780,128432,-4197,121,128254,54,19239,221,0,17803,0.0010000000000000009
163000,6046,1626,128274,-1914,1075,126580,50,19237,205,0,17804,0.0010000000000000009
164000,7263,3350,128432,-1319,-2197,127179,44,19237,205,0,17805,0.0009999999999999731
165000,9584,-3998,126036,-321,-1631,126478,45,19234,180,0,17806,0.0010000000000000009
166001,10392,337,127169,1394,796,126035,45,19238,184,0,17807,0.0010010000000000019
167000,10511,1698,127108,2030,1721,125261,44,19236,180,0,17808,0.0009989999999999999
168000,8395,2227,128078,-3247,425,127728,41,19238,168,0,17809,0.0010000000000000009
169000,6980,275,128467,-1522,-1569,127775,42,19232,172,0,17810,0.0010000000000000009
170000,7685,763,128163,1056,57,127207,41,19232,172,0,17811,0.0010000000000000009
171000,7825,323,127816,593,-1312,127428,46,19235,168,0,17812,0.0010000000000000009
172000,8272,285,127163,-3834,347,125097,46,19232,188,1,17813,0.0010000000000000009
173000,11524,2199,127142,1825,1331,126691,35,19235,143,1,17814,0.0010000000000000009
174003,9984,1643,127970,642,174,127024,47,19238,192,1,17815,0.0010030000000000039
175002,7550,-262,127835,-2818,-2786,128283,47,19235,192,1,17816,0.0009989999999999999
176002,5386,-1731,127929,-3428,-687,128110,43,19235,192,1,17817,0.0010000000000000009
177000,6967,2073,128519,-327,1956,126395,40,19239,176,1,17818,0.0009979999999999989
178002,9502,2286,127318,1588,788,125827,40,19239,164,1,17819,0.0010020000000000029
179000,8761,1027,127044,-1171,-259,126214,40,19238,164,1,17820,0.0009979999999999989
180000,8932,-1629,127195,-234,-2453,127841,44,19239,180,1,17821,0.0010000000000000009
181000,7951,-155,127797,-941,508,127039,51,19237,209,1,17822,0.0010000000000000009
182000,7250,2818,129054,-2335,1999,127581,54,19237,209,0,17823,0.0010000000000000009
183000,6967,1088,127968,-2168,-408,126436,44,19235,221,0,17824,0.0010000000000000009
184000,8331,340,127724,-1560,-695,127714,44,19237,180,0,17825,0.0010000000000000009
185000,8816,-1712,126838,2565,-2195,126397,44,19237,180,0,17826,0.0010000000000000009
186000,8918,476,126855,-1429,3,126318,45,19237,184,0,17827,0.0010000000000000009
187000,8181,1465,128256,-3374,1196,126837,44,19240,180,0,17828,0.0010000000000000009
188000,8308,2199,128215,387,973,127113,44,19240,180,0,17829,0.0010000000000000009
189001,7706,527,127911,205,-1267,128354,40,19237,180,0,17830,0.0010010000000000019
190000,7229,345,127510,-2335,-40,125532,46,19234,164,0,17831,0.0009989999999999999
191001,8251,-417,127016,-906,-1568,127263,46,19235,188,0,17832,0.0010010000000000019
192000,8634,1600,127554,-163,2161,125228,51,19232,209,1,17833,0.0009989999999999999
193000,7671,3313,127928,465,1356,126242,39,19243,160,1,17834,0.0010000000000000009
194000,8590,-565,127416,-2405,-1554,127473,44,19243,180,1,17835,0.0009999999999999731
195000,7501,-262,128011,-1775,-609,127834,43,19238,180,1,17836,0.0010000000000000009
196001,8846,-3209,127331,2050,-2741,128393,40,19238,176,1,17837,0.0010010000000000019
197000,8472,2258,127742,-1379,1849,125178,40,19233,164,1,17838,0.0009989999999999999
198000,8837,1844,127159,-1078,-241,125557,37,19237,152,1,17839,0.0010000000000000009
199000,10394,203,126481,305,-181,126511,38,19236,156,1,17840,0.0010000000000000009
200000,7906,2308,127452,3279,1140,125912,45,19236,184,1,17841,0.0010000000000000009
201000,7014,540,127836,-4099,-1107,128045,51,19236,184,1,17842,0.0010000000000000009
202000,7204,-687,127571,-3597,-867,127252,41,19231,209,0,17843,0.0010000000000000009
203001,9162,2680,128457,1959,1461,127201,41,19235,168,0,17844,0.0010010000000000019
204000,9860,116,127521,483,-765,126492,44,19236,180,0,17845,0.0009989999999999999
205000,7362,-77,127528,-2145,-1094,125745,42,19239,172,0,17846,0.0010000000000000009
206002,7979,-1537,127532,-1763,-2492,128294,46,19238,188,0,17847,0.0010020000000000029
207000,7608,1624,128037,-176,1329,126639,43,19238,188,0,17848,0.0009979999999999989
208000,8187,376,127130,-673,-1305,126007,42,19235,176,0,17849,0.0010000000000000009
209000,7979,4043,127804,303,3909,124124,42,19239,172,0,17850,0.0010000000000000009
210000,9324,1929,127493,-1627,-177,130837,42,19235,172,0,17851,0.0010000000000000009
211000,8697,-3074,127631,-779,2070,124207,50,19234,205,0,17852,0.0010000000000000009
212004,7233,3816,128433,-856,-115,127057,57,19239,233,1,17853,0.0010040000000000049
213000,7503,-538,129132,-2078,-3256,129424,44,19239,233,1,17854,0.0009959999999999969
214000,7430,-4899,127006,-2398,-7187,129527,46,19236,180,1,17855,0.0010000000000000009
215000,8985,299,128065,6153,8489,122985,46,19233,188,1,17856,0.0010000000000000009
216001,9275,12168,127842,-6765,5637,124048,43,19241,176,1,17857,0.0010010000000000019
217000,11144,-1599,127704,-5024,-4631,128805,40,19238,164,1,17858,0.0009989999999999999
218000,10633,-2151,128190,12942,-2300,128730,39,19237,160,1,17859,0.0010000000000000009
219000,8041,-3785,127502,-2411,-5669,128917,43,19237,160,1,17860,0.0010000000000000009
220000,1933,-2374,127142,-13916,-753,124939,48,19237,176,1,17861,0.0010000000000000009
221000,7425,1877,127486,6747,4928,126559,48,19232,197,1,17862,0.0010000000000000009
222000,8621,11527,127919,-22,11493,122579,58,19231,238,0,17863,0.0010000000000000009
223000,9658,5395,128047,-8647,-3346,125524,44,19231,180,0,17864,0.0010000000000000009
224000,11320,-7153,126772,8018,-9012,130248,44,19238,180,0,17865,0.0009999999999999731
225000,10753,-5954,127980,4422,-5552,130150,45,19238,180,0,17866,0.0010000000000000009
226000,8347,-1120,128840,-7680,139,126148,42,19237,184,0,17867,0.0010000000000000009
227000,5811,2444,127949,2368,1747,127865,42,19236,172,0,17868,0.0010000000000000009
228000,5455,4746,127244,-3712,6536,123039,41,19241,168,0,17869,0.0010000000000000009
229000,7733,9461,127546,-6385,3491,123487,42,19237,172,0,17870,0.0010000000000000009
230002,12149,-1720,126617,9760,-3354,129284,44,19239,180,0,17871,0.0010020000000000029
231000,9106,-1874,127788,2043,-2269,127677,51,19239,180,1,17872,0.0009979999999999989
232000,10250,-2764,127646,-9470,-2168,127255,40,19235,209,1,17873,0.0010000000000000009
233001,10346,881,128950,6864,101,129478,40,19240,164,1,17874,0.0010010000000000019
234002,7388,-1635,127035,-599,-2462,127423,47,19239,192,1,17875,0.0010010000000000019
235000,5053,2699,127429,-8607,3078,124201,48,19237,197,1,17876,0.0009979999999999989
236000,7066,3012,127907,-619,1075,127231,41,19238,168,1,17877,0.0010000000000000009
237003,10807,1262,127488,3530,1320,126408,40,19238,164,1,17878,0.0010030000000000039
238000,10235,2430,128056,1327,555,126306,44,19236,164,1,17879,0.0009969999999999979
239000,8667,-810,127240,-730,-2215,127170,49,19240,180,1,17880,0.0010000000000000009
240000,7951,-3265,127281,-721,-4755,129619,49,19237,201,1,17881,0.0010000000000000009
241000,8656,-1193,128248,-1008,346,126966,52,19235,213,0,17882,0.0010000000000000009
242000,7074,6525,128382,-2400,5765,123867,52,19237,213,0,17883,0.0010000000000000009
243000,7779,2426,128047,-3959,-352,126814,44,19237,180,0,17884,0.0010000000000000009
244000,8633,-3034,127286,133,-4529,129467,47,19235,180,0,17885,0.0010000000000000009
245001,8871,-2867,126647,4955,-2580,128188,46,19240,192,0,17886,0.0010010000000000019
246000,8715,4367,128176,-2076,4423,123496,46,19237,188,0,17887,0.0009989999999999999
247000,9663,992,127432,-2911,-1005,128174,46,19234,188,0,17888,0.0010000000000000009
248000,9425,-209,127314,1348,-462,127118,44,19236,180,0,17889,0.0010000000000000009
249000,8157,3807,128431,666,2926,125897,44,19236,180,0,17890,0.0010000000000000009
250000,7112,-112,127708,-3691,-1697,126290,45,19236,180,0,17891,0.0010000000000000009
251000,7193,-2387,127629,-665,-3693,129308,56,19239,184,0,17892,0.0010000000000000009
252000,8699,-957,127947,476,-919,128750,56,19233,229,1,17893,0.0010000000000000009
253000,8013,5197,127689,-957,4731,124939,50,19233,205,1,17894,0.0010000000000000009
254000,10223,468,126878,236,-1256,128122,45,19240,184,1,17895,0.0010000000000000009
255001,9251,-1357,126655,-392,-1648,126076,45,19242,184,1,17896,0.0010009999999999741
256001,9077,1216,128144,764,667,127448,42,19242,184,1,17897,0.0010000000000000009
257001,7558,2103,128590,-924,-179,126438,40,19240,172,1,17898,0.0010000000000000009
258000,8324,-648,127694,-1339,-3514,129012,40,19240,164,1,17899,0.0009990000000000276
259000,8999,-2195,127398,205,976,126116,42,19238,172,1,17900,0.0010000000000000009
260000,9294,3585,127712,2150,874,125742,48,19239,197,1,17901,0.0010000000000000009
261000,8976,6,126515,-1113,-42,126622,53,19235,217,0,17902,0.0010000000000000009
262002,7804,2025,127495,-1999,3316,125727,43,19235,217,0,17903,0.0010020000000000029
263006,9615,3023,128465,1496,-352,126850,43,19236,176,0,17904,0.0010039999999999494
264000,8226,-1060,127916,-210,-3707,128850,43,19232,176,0,17905,0.0009940000000000504
265000,7299,-2533,128047,-1210,-5526,127560,45,19235,184,0,17906,0.0010000000000000009
266000,8467,-2549,126963,-167,-383,127225,47,19233,192,0,17907,0.0010000000000000009
267000,9262,4836,128174,-1243,6215,123217,44,19236,180,0,17908,0.0010000000000000009
268000,9429,4185,127900,-275,-412,127719,43,19236,180,0,17909,0.0009999999999999454
269000,7484,-1404,126905,-1215,-961,127309,46,19239,176,0,17910,0.0010000000000000009
270000,7624,1296,127931,-806,-155,126887,46,19238,188,0,17911,0.0010000000000000009
271000,8185,-806,127500,479,-1434,127552,50,19236,205,1,17912,0.0010000000000000009
272000,8900,1477,128269,-263,1286,126541,45,19243,184,1,17913,0.0010000000000000009
273000,10511,-495,127461,627,-1911,127981,45,19234,184,1,17914,0.0010000000000000009
274000,7181,453,127642,-2088,186,125929,46,19234,184,1,17915,0.0010000000000000009
275000,7227,-289,127620,-1916,-1490,128215,47,19232,188,1,17916,0.0010000000000000009
276000,6839,970,127818,-1701,1833,126075,47,19238,192,1,17917,0.0010000000000000009
277001,9272,3729,128403,-775,1212,126711,43,19235,176,1,17918,0.0010010000000000296
278001,8874,-529,127210,1192,-991,126692,40,19238,164,1,17919,0.0010000000000000009
279000,9492,-428,126960,735,-2514,126987,42,19237,172,1,17920,0.0009989999999999721
280000,8734,-909,127139,-556,-541,126778,48,19237,197,1,17921,0.0010000000000000009
281000,7352,4037,128312,-3448,3611,125460,53,19237,197,1,17922,0.0010000000000000009
282000,6372,788,128145,-3421,-583,128248,43,19235,217,0,17923,0.0010000000000000009
283000,7569,1459,128656,-164,738,126426,43,19239,176,0,17924,0.0010000000000000009
284000,9378,-1696,127306,100,-3002,127969,45,19236,184,0,17925,0.0010000000000000009
285000,9041,-1888,127108,1226,-2063,126415,44,19241,180,0,17926,0.0010000000000000009
286000,10213,170,126904,226,-345,127036,41,19241,168,0,17927,0.0010000000000000009
287003,8438,2309,127855,-759,2711,125697,39,19239,168,0,17928,0.0010030000000000316
288001,7927,5096,128332,-1940,3042,125758,40,19236,160,0,17929,0.0009979999999999989
289000,7370,-699,127380,-630,-2121,128616,40,19236,164,0,17930,0.0009989999999999721
290000,7198,-342,127914,-221,-1586,126790,40,19240,164,0,17931,0.0010000000000000009
291002,8966,-1046,127733,-86,-1931,127813,49,19238,201,1,17932,0.0010020000000000029
292000,9347,1749,127552,996,1173,125323,42,19238,172,1,17933,0.0009979999999999989
293000,9936,626,127913,-996,-1361,127576,47,19232,172,1,17934,0.0010000000000000009
294000,7252,472,127360,-1542,423,126627,46,19232,192,1,17935,0.0010000000000000009
295000,6498,1715,128063,-1801,493,127323,46,19236,188,1,17936,0.0010000000000000009
296001,7275,335,127694,-2023,141,127137,41,19236,168,1,17937,0.0010010000000000296
297000,9135,1297,127493,-170,955,125667,38,19237,156,1,17938,0.0009989999999999721
298000,9075,-1504,127328,1604,-2375,128099,40,19235,164,1,17939,0.0010000000000000009
299000,7934,-372,127081,-1035,-1758,125227,46,19235,164,1,17940,0.0010000000000000009
300000,7182,-1492,127513,-1577,-1892,127999,50,19232,188,1,17941,0.0010000000000000009
301000,7507,3842,128433,-3709,3590,124060,50,19236,205,0,17942,0.0010000000000000009
302000,7886,3446,128567,-70,2514,129270,44,19242,180,0,17943,0.0010000000000000009
303000,8543,-1256,127513,517,-2117,126508,45,19236,184,0,17944,0.0010000000000000009
304000,8236,-2174,126932,-530,-3480,127605,44,19237,180,0,17945,0.0010000000000000009
305000,8535,-626,127306,-527,1510,126022,43,19237,180,0,17946,0.0010000000000000009
306000,8419,3067,128264,-577,2012,126459,42,19236,176,0,17947,0.0010000000000000009
307000,7502,1777,128007,-1442,-469,127965,42,19234,172,0,17948,0.0010000000000000009
308000,7602,1470,127931,-3470,-92,126547,41,19238,168,0,17949,0.0010000000000000009
309000,7864,-426,127479,1345,-665,127395,42,19235,172,0,17950,0.0010000000000000009
310000,9014,680,127308,-589,-784,126613,45,19237,184,0,17951,0.0010000000000000009
311000,8043,176,127020,-2729,787,125979,53,19237,184,1,17952,0.0010000000000000009
312000,7804,2131,127979,596,1279,126766,40,19239,217,1,17953,0.0010000000000000009
313001,9077,415,126913,68,-1298,126807,40,19240,164,1,17954,0.0010009999999999741
314000,7003,898,127901,-4029,149,126738,43,19240,176,1,17955,0.0009990000000000276
315000,8085,-1106,127707,455,-2313,128100,38,19237,156,1,17956,0.0010000000000000009
316000,8634,1075,128084,368,1725,126396,37,19236,152,1,17957,0.0010000000000000009
317004,10031,1938,127859,522,-319,126281,38,19236,152,1,17958,0.0010040000000000049
318004,8748,-436,126677,-1140,-342,125791,42,19236,156,1,17959,0.0010000000000000009
319000,8456,2280,127422,994,141,127067,42,19237,172,1,17960,0.0009959999999999969
320000,7902,481,127323,-1764,203,126590,45,19236,184,1,17961,0.0010000000000000009
321000,6945,1741,127733,-3671,1145,126834,52,19235,213,0,17962,0.0010000000000000009
322002,8711,2164,128295,-299,234,127087,42,19238,172,0,17963,0.0010020000000000029
323000,9501,-405,127435,729,-1551,127285,45,19238,172,0,17964,0.0009979999999999989
324000,8580,-2340,127387,276,-3221,127691,44,19232,184,0,17965,0.0010000000000000009
325000,8406,-401,127466,-1491,-291,126747,44,19232,180,0,17966,0.0010000000000000009
326000,7850,1874,127941,-1431,2176,126537,43,19239,176,0,17967,0.0010000000000000009
327000,7367,2884,128240,-2167,1779,127153,41,19239,168,0,17968,0.0010000000000000009
328000,7141,2385,128175,-1513,615,127155,41,19241,168,0,17969,0.0009999999999999454
329000,7324,-277,127715,-1150,-921,127373,45,19241,184,0,17970,0.0010000000000000009
330000,8947,-4307,126567,706,-7336,128029,49,19236,184,0,17971,0.0010000000000000009
331001,8647,3562,127985,2424,6415,122634,46,19235,201,1,17972,0.0010010000000000296
332000,10903,3661,127661,-6062,-1801,129458,46,19233,188,1,17973,0.0009989999999999721
333003,8893,-575,127826,-206,2438,125984,44,19237,180,1,17974,0.0010030000000000316
334000,8507,2827,128460,5920,275,127454,47,19242,192,1,17975,0.0009969999999999701
335000,6706,-1831,127665,-3556,-3367,129029,45,19242,184,1,17976,0.0010000000000000009
336000,7238,-6013,127702,-10476,-6076,127666,41,19238,184,1,17977,0.0010000000000000009
337000,12500,3996,129290,12771,4976,127305,41,19241,168,1,17978,0.0010000000000000009
338002,7776,5729,126429,-1073,5129,121944,41,19239,168,1,17979,0.0010020000000000029
339002,7288,4478,128079,-11780,1437,125211,43,19239,176,1,17980,0.0010000000000000009
340002,8247,-6809,125785,7795,-7226,132075,51,19234,209,1,17981,0.0010000000000000009
341000,8135,3680,129464,-125,3702,125556,57,19234,233,0,17982,0.0009979999999999989
342000,9049,66,128669,-7008,-1460,126720,43,19237,233,0,17983,0.0010000000000000009
343000,8757,-2208,127497,5197,-3078,127457,44,19237,176,0,17984,0.0010000000000000009
344000,8721,-601,127281,528,-1250,128226,44,19236,180,0,17985,0.0010000000000000009
345000,7993,1537,127105,-6233,756,125213,42,19241,172,0,17986,0.0010000000000000009
346000,9094,3592,127091,4361,3206,125251,42,19236,172,0,17987,0.0010000000000000009
347000,7377,3416,128384,403,1904,126681,41,19239,168,0,17988,0.0010000000000000009
348000,9531,-379,127543,-7419,-1153,127459,45,19239,168,0,17989,0.0010000000000000009
349000,9313,-1889,128527,6471,-3279,130225,45,19235,184,0,17990,0.0010000000000000009
350001,7350,-1552,126590,3464,-1828,123646,45,19234,184,1,17991,0.0010010000000000296
351000,8402,4837,128327,-10260,2271,126081,54,19237,221,1,17992,0.0009989999999999721
352000,10889,1212,127478,2285,-1027,128765,41,19237,168,1,17993,0.0010000000000000009
353000,9096,-938,127360,4002,-2093,126716,47,19235,192,1,17994,0.0010000000000000009
354000,6540,-491,127618,-4264,-795,126993,45,19235,192,1,17995,0.0010000000000000009
355000,7126,-625,127839,-2336,-865,128125,42,19234,184,1,17996,0.0010000000000000009
356000,9190,1396,127912,268,2340,126597,42,19237,172,1,17997,0.0010000000000000009
357001,9805,4132,128006,329,3201,124300,42,19237,172,1,17998,0.0010009999999999741
358000,8546,2511,126977,198,-1044,126639,43,19238,176,1,17999,0.0009990000000000276
359000,7796,-3266,127038,-2775,-5418,129163,49,19233,201,1,18000,0.0010000000000000009
360000,8656,-1732,128161,824,45,128005,55,19233,201,0,18001,0.0010000000000000009
361000,7247,2576,128769,-1478,2706,126490,46,19236,225,0,18002,0.0010000000000000009
362003,7775,3757,127874,-2491,1039,125856,46,19236,188,0,18003,0.0010029999999999761
363002,7938,-2022,127113,250,-2154,128799,48,19239,197,0,18004,0.0009990000000000276
364000,9111,-2997,126134,2840,1289,125008,47,19237,192,0,18005,0.0009979999999999989
365000,9331,3443,127835,-1041,2426,125332,46,19237,188,0,18006,0.0010000000000000009
366000,9163,-640,127059,-3166,-2658,127519,45,19237,188,0,18007,0.0010000000000000009
367000,7895,1738,128442,274,834,128159,43,19239,184,0,18008,0.0010000000000000009
368001,7580,-132,127996,-160,-1750,128482,43,19235,176,0,18009,0.0010009999999999741
369000,7514,287,127419,-1178,-350,125536,47,19235,192,0,18010,0.0009990000000000276
370000,7377,-429,126977,-906,-1502,128002,51,19234,209,0,18011,0.0010000000000000009
371000,9831,2556,127712,-1222,3606,123675,58,19235,238,1,18012,0.0010000000000000009
372001,8563,3769,127947,1079,610,127251,44,19235,238,1,18013,0.0010009999999999741
373000,9544,-1727,127431,-99,-2797,127968,46,19236,180,1,18014,0.0009990000000000276
374001,7327,-489,127492,-1047,-1573,126795,46,19231,188,1,18015,0.0010009999999999741
375000,7988,-810,128223,-903,-779,128451,44,19238,180,1,18016,0.0009990000000000276
376000,8489,2101,128121,443,806,126302,41,19233,168,1,18017,0.0010000000000000009
377000,9715,-52,127297,-231,-886,127354,39,19236,160,1,18018,0.0010000000000000009
378000,9739,3801,127393,199,4128,122944,43,19236,176,1,18019,0.0010000000000000009
379000,8833,1437,127486,1291,-1881,128380,49,19232,176,1,18020,0.0010000000000000009
380000,8397,-2650,126801,-2149,-2082,128212,57,19235,201,0,18021,0.0010000000000000009
381001,6535,1788,128562,-2270,1245,126493,57,19235,233,0,18022,0.0010009999999999741
382000,9298,2298,128465,-84,1523,126626,43,19240,176,0,18023,0.0009990000000000276
383000,8675,49,127802,-353,-1429,127298,44,19237,180,0,18024,0.0010000000000000009
384000,8566,-4191,127064,208,-5080,129010,47,19237,192,0,18025,0.0010000000000000009
385000,9302,2166,127746,-968,3085,123848,44,19237,192,0,18026,0.0010000000000000009
386001,8589,3846,128302,-219,2068,126859,43,19237,180,0,18027,0.0010009999999999741
387000,8551,878,127966,-1200,-480,127229,43,19235,176,0,18028,0.0009989999999999721
388000,7031,-278,127560,-999,-1504,128509,44,19235,180,0,18029,0.0010000000000000009
389000,7738,365,128124,-462,384,126373,48,19236,197,0,18030,0.0010000000000000009
390000,8675,1555,127656,-96,125,126388,53,19236,217,1,18031,0.0010000000000000009
391000,9170,-186,127830,-1154,-348,127995,42,19236,217,1,18032,0.0010000000000000009
392000,10690,2151,127685,859,1351,125295,48,19233,172,1,18033,0.0010000000000000009
393000,6865,-569,127962,-933,-1745,128473,48,19233,197,1,18034,0.0010000000000000009
394000,6832,-1868,127894,-1897,-2646,128372,46,19235,188,1,18035,0.0010000000000000009
395000,6662,-251,127914,-1648,-870,126898,42,19237,172,1,18036,0.0010000000000000009
396000,9306,4780,128105,-1198,4358,124059,41,19237,168,1,18037,0.0010000000000000009
397000,9638,3149,126705,804,2054,127304,43,19237,168,1,18038,0.0010000000000000009
398000,10055,-2250,126495,810,-1831,126812,45,19240,176,1,18039,0.0010000000000000009
399000,9121,-22,127668,110,-1378,127166,45,19234,184,1,18040,0.0010000000000000009
400000,6683,-737,128457,-2120,2290,126500,54,19233,221,1,18041,0.0010000000000000009
401000,6035,3756,129280,-3885,-706,128262,59,19238,242,0,18042,0.0010000000000000009
402000,7399,-2781,127223,596,-1480,127649,42,19236,172,0,18043,0.0010000000000000009
403000,9399,2507,127480,108,2095,124409,42,19236,172,0,18044,0.0010000000000000009
404000,9497,-248,126560,922,-2834,126776,45,19235,172,0,18045,0.0010000000000000009
405000,10886,207,126998,532,1443,125614,45,19236,184,0,18046,0.0010000000000000009
406000,8391,959,128278,-944,-1357,129266,43,19239,176,0,18047,0.0010000000000000009
407000,7813,1332,128141,-1593,2146,124859,41,19231,168,0,18048,0.0010000000000000009
408000,6437,2599,127977,-806,-1008,128271,42,19237,172,0,18049,0.0010000000000000009
409002,7391,-2108,127237,-1470,-1588,126844,46,19237,172,0,18050,0.0010020000000000029
410003,9422,2722,127539,660,1440,125362,44,19239,188,1,18051,0.0010010000000000296
411000,10492,76,126954,472,-425,127506,44,19237,180,1,18052,0.0009969999999999701
412003,10199,2118,127578,-1507,950,124952,44,19239,180,1,18053,0.0010030000000000316
413000,6885,-868,128168,-843,-3501,130256,47,19237,192,1,18054,0.0009969999999999701
414000,6734,-1105,127774,-2616,1025,126707,44,19234,180,1,18055,0.0010000000000000009
415000,5912,2995,128490,-1330,463,126986,37,19234,180,1,18056,0.0010000000000000009
416000,9533,912,127265,-811,1355,125615,38,19239,152,1,18057,0.0010000000000000009
417002,9302,1988,127560,2206,-623,126223,45,19239,156,1,18058,0.0010020000000000029
418002,8602,-2365,127252,-266,-3036,128348,45,19233,184,1,18059,0.0010000000000000009
419001,8430,828,127812,-2272,1165,126111,49,19232,201,1,18060,0.0009989999999999721
420000,5954,1434,128692,-2658,464,128276,54,19239,221,0,18061,0.0009990000000000276
421000,8587,2436,128460,-807,1218,126367,42,19239,172,0,18062,0.0010000000000000009
422001,7513,-152,127653,-154,-1821,127647,43,19238,172,0,18063,0.0010009999999999741
423000,9085,-1171,127219,-1530,-1860,126168,47,19240,176,0,18064,0.0009990000000000276
424000,8870,303,126949,1424,-313,126434,47,19238,192,0,18065,0.0010000000000000009
425000,8252,1050,128295,-2340,754,127352,43,19236,176,0,18066,0.0010000000000000009
426000,8303,1687,128073,-1092,149,127171,40,19236,164,0,18067,0.0010000000000000009
427000,6691,698,127805,-1760,-336,127850,42,19236,172,0,18068,0.0010000000000000009
428000,8243,995,127661,377,439,125872,42,19237,172,0,18069,0.0010000000000000009
429000,8201,91,127083,-1390,-1186,127129,51,19239,172,0,18070,0.0010000000000000009
430000,9147,172,127426,-1128,953,125715,51,19234,209,1,18071,0.0010000000000000009
431000,7591,1186,127975,-459,345,126116,44,19240,180,1,18072,0.0010000000000000009
432000,9193,-185,127263,-245,-1422,128062,42,19235,172,1,18073,0.0010000000000000009
433000,6183,-200,127742,-1765,-2482,127234,45,19235,184,1,18074,0.0010000000000000009
434000,8723,-1518,127772,-1188,-1914,128777,40,19236,184,1,18075,0.0010000000000000009
435001,8108,2880,127895,1992,2101,125323,38,19237,164,1,18076,0.0010009999999999741
436000,9432,2283,127197,-1717,925,125551,38,19238,156,1,18077,0.0009990000000000276
437000,9142,231,126674,-1260,-371,126038,38,19239,156,1,18078,0.0010000000000000009
438000,8085,2344,127466,1909,1217,126226,45,19238,184,1,18079,0.0010000000000000009
439000,8165,-813,127341,-830,-1694,128690,46,19236,188,1,18080,0.0010000000000000009
440000,6043,499,128018,-4008,-2,126562,46,19236,188,0,18081,0.0010000000000000009
441000,9295,2637,128371,-782,1487,127590,46,19236,188,0,18082,0.0010000000000000009
442001,9607,343,127429,1819,-378,126032,46,19237,188,0,18083,0.0010009999999999741
443000,8969,-1508,127088,-606,-2576,126935,45,19234,184,0,18084,0.0009990000000000276
444001,8304,356,127159,270,2360,125638,44,19236,180,0,18085,0.0010009999999999741
445001,7864,3399,128292,-2764,472,128664,43,19242,176,0,18086,0.0010000000000000009
446001,8392,117,128220,-2250,935,126668,40,19242,176,0,18087,0.0010000000000000009
447002,6257,2843,128416,2109,-48,127138,41,19235,164,0,18088,0.0010009999999999741
448000,7398,-1003,127767,-3083,-2209,127457,41,19240,168,0,18089,0.0009979999999999989
449000,8090,-1622,127560,895,-2090,127161,46,19234,188,0,18090,0.0010000000000000009
450007,8045,1939,128462,-2120,3534,126344,56,19240,229,1,18091,0.0010070000000000356
451000,10371,2358,127654,-1758,-1125,125134,40,19240,164,1,18092,0.0009929999999999661
452000,8619,1031,127703,6914,2792,126687,46,19240,164,1,18093,0.0010000000000000009
453002,8546,912,127689,-6223,-4764,131067,45,19237,188,1,18094,0.0010020000000000029
454002,9809,-3717,127066,-2408,1992,124110,45,19239,184,1,18095,0.0010000000000000009
455000,8057,5427,129916,3389,-621,129136,43,19240,176,1,18096,0.0009979999999999989
456000,9926,-2558,127834,1535,-1361,125072,40,19235,164,1,18097,0.0010000000000000009
457000,5283,-1794,126587,-6833,-5602,130108,43,19236,176,1,18098,0.0010000000000000009
458000,7336,-469,127800,3774,5111,125443,47,19236,176,1,18099,0.0010000000000000009
459000,6745,10325,126360,-4178,8889,119742,53,19241,192,1,18100,0.0010000000000000009
460000,11344,6190,129479,-3619,634,129939,53,19235,217,0,18101,0.0010000000000000009
461000,9274,-8859,127198,7293,-11941,130943,43,19240,176,0,18102,0.0010000000000000009
462000,9708,-4218,128045,-1249,-1041,127033,46,19235,188,0,18103,0.0010000000000000009
463000,7863,414,128300,-5654,-788,126152,46,19236,188,0,18104,0.0010000000000000009
464000,6827,2928,127744,5210,1305,125796,44,19236,180,0,18105,0.0010000000000000009
465000,7966,3592,127549,-1819,3587,127526,41,19240,180,0,18106,0.0010000000000000009
466000,6442,5696,127847,-7207,2287,123605,42,19236,168,0,18107,0.0010000000000000009
467000,10506,-1173,125855,3424,-1297,127204,42,19241,172,0,18108,0.0010000000000000009
468001,11068,569,128946,8106,-1362,128320,43,19232,176,0,18109,0.0010010000000000296
469001,8742,-2370,127393,-5689,-2516,126923,49,19235,201,1,18110,0.0010000000000000009
470002,7364,2403,128840,-3494,757,127278,45,19235,184,1,18111,0.0010009999999999741
471000,9549,-1225,127130,2289,-1343,127270,46,19236,184,1,18112,0.0009979999999999989
472000,9384,3856,127831,-1455,3288,124693,47,19236,188,1,18113,0.0010000000000000009
473000,5995,-397,127230,-2050,-2498,128771,47,19241,192,1,18114,0.0010000000000000009
474000,8452,-1531,127521,-2657,-1311,127082,44,19238,180,1,18115,0.0010000000000000009
475000,10195,2243,127771,2084,2540,126484,40,19238,164,1,18116,0.0010000000000000009
476000,9400,4650,128429,3399,2873,125185,42,19238,172,1,18117,0.0010000000000000009
477000,8397,-3457,126073,-3009,-5193,128557,46,19237,172,1,18118,0.0010000000000000009
478000,7774,-1680,127700,-3556,-1122,127037,53,19237,188,1,18119,0.0010000000000000009
479000,9054,2642,128363,3469,2050,126591,53,19234,217,0,18120,0.0010000000000000009
480000,6347,3307,128477,-3772,1968,125902,60,19238,246,0,18121,0.0010000000000000009
481002,7992,-1488,127594,-4085,-3452,129220,44,19239,180,0,18122,0.0010020000000000029
482001,8638,-1890,127385,1908,-1659,128408,47,19235,192,0,18123,0.0009989999999999721
483000,9443,2754,126770,2609,1908,124402,47,19235,192,0,18124,0.0009990000000000276
484001,9286,477,127805,-1705,-473,126748,47,19237,192,0,18125,0.0010009999999999741
485002,8733,1301,127381,-2209,726,126293,47,19238,192,0,18126,0.0010010000000000296
486000,8812,1386,128331,-785,496,127785,45,19240,184,0,18127,0.0009979999999999989
487000,7257,1418,128150,850,362,127206,45,19237,184,0,18128,0.0010000000000000009
488000,7286,-2369,127496,-1317,-3587,129146,48,19234,197,0,18129,0.0010000000000000009
489000,7642,-763,127416,-1889,-1217,125529,50,19234,197,0,18130,0.0010000000000000009
490000,9819,3622,128113,-417,3030,125865,55,19235,205,1,18131,0.0010000000000000009
491000,8640,1604,127292,1446,617,126017,55,19236,225,1,18132,0.0010000000000000009
492003,9588,837,127163,-516,-1096,126593,45,19233,184,1,18133,0.0010029999999999761
493000,8049,-502,127865,-2648,-868,127767,46,19235,188,1,18134,0.0009970000000000256
494000,7685,173,128269,1632,-1235,128514,45,19237,184,1,18135,0.0010000000000000009
495002,7866,-894,127909,-519,-1183,127472,40,19237,184,1,18136,0.0010020000000000029
496002,9011,1998,127836,-275,1445,124944,40,19240,164,1,18137,0.0010000000000000009
497002,10332,1639,127295,939,1114,126506,40,19236,164,1,18138,0.0010000000000000009
498002,10082,-192,126921,821,-347,126835,42,19235,172,1,18139,0.0010000000000000009
499002,8279,837,127292,-2839,889,126677,52,19236,213,0,18140,0.0010000000000000009
500002,5812,3067,128343,-2090,-262,125760,52,19237,213,0,18141,0.0009999999999999454
501000,9239,735,128243,869,-1140,129012,46,19237,213,0,18142,0.0009980000000000544
502000,8563,-1546,128109,1237,-2971,127945,45,19232,188,0,18143,0.0010000000000000009
503000,7974,-1539,127167,-1369,-1502,126332,45,19236,184,0,18144,0.0010000000000000009
504000,8828,672,127713,-1664,840,126260,46,19240,188,0,18145,0.0010000000000000009
505000,9386,2464,127639,303,2071,126047,44,19236,180,0,18146,0.0010000000000000009
506001,9152,2410,127854,-354,1398,126995,44,19238,180,0,18147,0.0010009999999999186
507000,6421,1595,127804,-1528,-280,126700,45,19238,180,0,18148,0.0009990000000000832
508000,7499,-1366,127529,-1824,-2889,128479,50,19234,184,0,18149,0.0010000000000000009
509000,8432,-1128,127688,1574,-832,127352,50,19234,205,1,18150,0.0010000000000000009
510000,9117,2643,128289,-594,2313,125441,56,19240,229,1,18151,0.0010000000000000009
511000,10538,2500,127379,-308,401,126061,41,19241,168,1,18152,0.0010000000000000009
512002,7203,-779,127834,-1420,-2588,128325,48,19236,197,1,18153,0.0010019999999999474
513001,7447,-2274,127692,-764,-2055,128541,46,19236,188,1,18154,0.0009989999999999721
514000,6362,1650,127985,-1815,1723,126249,42,19235,188,1,18155,0.0009990000000000832
515000,8669,3004,128231,-1763,1744,126270,41,19237,172,1,18156,0.0010000000000000009
516000,9369,322,126653,836,-630,126656,41,19236,168,1,18157,0.0010000000000000009
517000,10397,-421,126654,1773,-747,126304,42,19235,172,1,18158,0.0010000000000000009
518000,9215,962,127628,-206,129,126166,48,19236,197,1,18159,0.0010000000000000009
519000,7026,53,127418,-3682,-750,127119,53,19236,217,1,18160,0.0010000000000000009
520000,6458,1046,128810,-2953,279,128423,49,19234,217,0,18161,0.0010000000000000009
521000,6933,777,128280,500,321,126894,42,19238,201,0,18162,0.0010000000000000009
522000,8778,-289,127370,-614,-1571,126617,42,19236,172,0,18163,0.0010000000000000009
523000,9202,-796,126864,218,-1861,126136,44,19235,180,0,18164,0.0010000000000000009
524001,11169,263,126777,858,-56,126547,44,19230,180,0,18165,0.0010009999999999186
525000,8958,3336,128461,814,2446,125769,43,19230,176,0,18166,0.0009990000000000832
526000,7859,1687,128060,-2185,152,127205,40,19237,176,0,18167,0.0010000000000000009
527000,7083,-204,127622,-1891,-945,127728,41,19236,164,0,18168,0.0010000000000000009
528000,7024,121,128002,404,-918,127640,41,19235,168,0,18169,0.0010000000000000009
529000,8980,107,127242,-23,-553,126454,48,19233,197,1,18170,0.0010000000000000009
530002,8773,1419,127392,-454,277,125582,37,19240,152,1,18171,0.0010019999999999474
531001,10693,1564,128291,-330,1268,127195,45,19234,184,1,18172,0.0009989999999999721
532000,7902,126,127389,-150,-578,127232,46,19234,184,1,18173,0.0009990000000000832
533000,6576,-839,128246,-2445,-1426,128504,43,19239,188,1,18174,0.0010000000000000009
534000,6775,282,127336,-2322,-482,126887,43,19237,176,1,18175,0.0010000000000000009
535000,9566,1070,127614,-241,465,125797,38,19237,156,1,18176,0.0010000000000000009
536000,8895,2478,127447,1765,1653,125965,40,19235,164,1,18177,0.0009999999999998899
537000,8528,-1910,126928,-969,-3019,128413,42,19232,172,1,18178,0.0010000000000000009
538000,8178,-303,127512,-1783,-822,126302,50,19232,172,1,18179,0.0010000000000000009
539000,7315,1564,128732,-1084,673,128163,53,19235,205,0,18180,0.0010000000000000009
540000,7782,2413,128522,-1590,1932,125342,53,19237,217,0,18181,0.0010000000000000009
541002,8016,1249,127837,-43,-2157,128526,44,19235,180,0,18182,0.0010020000000000584
542000,8744,-2948,126873,-2174,-2613,126447,45,19237,184,0,18183,0.0009979999999999434
543000,8108,1223,127432,920,755,125860,45,19236,184,0,18184,0.0010000000000000009
544000,8295,555,128026,-3691,720,127739,46,19236,184,0,18185,0.0010000000000000009
545000,8309,2451,127909,-1077,1348,125873,44,19237,188,0,18186,0.0010000000000000009
546000,7423,785,128221,-220,-1798,129662,44,19235,180,0,18187,0.0010000000000000009
547001,8483,-737,127383,226,521,124706,41,19238,168,0,18188,0.0010010000000000296
548000,7660,1810,127209,-1912,-1416,127308,42,19234,172,0,18189,0.0009989999999999721
549000,8936,-191,127472,-1168,1455,125882,53,19235,217,1,18190,0.0010000000000000009
550000,7004,3222,127808,436,1881,125830,40,19235,217,1,18191,0.0010000000000000009
551000,8781,-304,127119,-988,-1714,128867,44,19236,164,1,18192,0.0010000000000000009
552000,6849,1123,127904,-2739,612,124909,44,19237,180,1,18193,0.0010000000000000009
553000,8277,-2663,127728,1007,-3658,130693,44,19236,180,1,18194,0.0010000000000000009
554000,8979,835,127808,982,2276,124423,36,19240,147,1,18195,0.0010000000000000009
555000,9263,2874,127810,-1953,805,126374,36,19238,147,1,18196,0.0010000000000000009
556000,9251,354,126600,-976,985,125404,42,19238,172,1,18197,0.0010000000000000009
557000,8042,2828,127203,2510,125,127050,45,19236,172,1,18198,0.0010000000000000009
558000,7943,-1404,127607,-2238,-1781,128617,51,19238,184,1,18199,0.0010000000000000009
559000,6362,1533,127799,-3632,1511,125635,51,19234,209,0,18200,0.0010000000000000009
560000,8695,1385,128225,85,-536,128457,38,19236,156,0,18201,0.0010000000000000009
561000,9949,992,127523,1766,398,125648,42,19237,172,0,18202,0.0010000000000000009
562000,8107,-659,127587,-2182,-2484,127533,43,19237,176,0,18203,0.0010000000000000009
563000,8046,-624,127560,-1922,-1231,127110,46,19235,176,0,18204,0.0010000000000000009
564000,7227,1761,128013,46,1573,126632,44,19240,188,0,18205,0.0010000000000000009
565000,7733,2103,128518,-2066,-384,127569,44,19236,180,0,18206,0.0010000000000000009
566000,7471,935,127749,-1670,-1591,127328,40,19235,164,0,18207,0.0010000000000000009
567000,8057,-182,127491,2959,732,124102,44,19241,180,0,18208,0.0010000000000000009
568000,9707,4357,127828,-1915,1684,127994,47,19241,192,0,18209,0.0010000000000000009
569000,8953,-2268,127290,-3325,-944,126213,58,19237,192,1,18210,0.0010000000000000009
570001,8203,5302,128974,259,3728,125229,45,19239,238,1,18211,0.0010010000000000296
571000,7752,-3237,128136,1729,-5029,131539,45,19238,184,1,18212,0.0009989999999999721
572000,6758,-2920,126816,-470,-2967,125880,46,19240,188,1,18213,0.0010000000000000009
573000,8456,260,128090,-582,-431,130220,45,19239,184,1,18214,0.0010000000000000009
574000,9492,4037,128120,-5250,5644,120177,39,19239,160,1,18215,0.0010000000000000009
575001,11653,7531,128138,2287,3851,127137,41,19239,160,1,18216,0.0010010000000000296
576002,7715,-8334,126861,4836,-9058,130947,45,19235,168,1,18217,0.0010010000000000296
577000,4377,1643,127438,-4220,1142,123825,45,19238,184,1,18218,0.0009979999999999434
578002,8201,1518,127776,-5220,872,130052,49,19233,201,1,18219,0.0010020000000000584
579000,7668,5602,128395,2349,5119,121467,54,19235,221,0,18220,0.0009979999999999434
580000,10460,418,127831,-2427,-846,129656,42,19241,172,0,18221,0.0010000000000000009
581000,9837,-1573,127530,3041,-1937,126798,44,19241,172,0,18222,0.0010000000000000009
582000,8662,-3344,127296,546,-4801,129177,44,19240,180,0,18223,0.0010000000000000009
583000,9143,320,128008,-2920,342,124410,44,19238,180,0,18224,0.0010000000000000009
584000,7893,3519,128301,2303,2557,128512,42,19236,172,0,18225,0.0010000000000000009
585000,8001,1769,127595,-2884,453,126215,39,19235,160,0,18226,0.0010000000000000009
586000,7817,222,126405,-1864,-509,126390,42,19237,172,0,18227,0.0010000000000000009
587000,9375,1701,127917,3126,3000,125708,44,19237,172,0,18228,0.0010000000000000009
588000,10132,4265,127608,-1612,611,125102,50,19234,180,0,18229,0.0010000000000000009
589000,8897,-2268,128325,245,-4773,131642,50,19235,205,1,18230,0.0010000000000000009
590000,9988,-2923,127318,404,-1669,126707,38,19236,156,1,18231,0.0010000000000000009
591000,7692,1173,127416,-4038,1347,125761,46,19237,188,1,18232,0.0010000000000000009
592000,7383,1993,128294,364,-583,128192,46,19237,188,1,18233,0.0010000000000000009
593001,8104,22,126796,-1191,454,126154,42,19237,188,1,18234,0.0010010000000000296
594000,7835,4068,128070,-2679,4504,125691,40,19238,172,1,18235,0.0009989999999999721
595000,10636,3302,127916,3346,-78,125398,40,19239,164,1,18236,0.0010000000000000009
596000,8528,-2463,126767,1021,-4560,129233,44,19239,180,1,18237,0.0010000000000000009
597000,8964,-3769,127969,-2492,-2891,128351,47,19236,192,1,18238,0.0010000000000000009
598000,7941,1898,127951,211,3544,125475,53,19233,217,1,18239,0.0010000000000000009
599000,6633,3281,128293,-3986,1573,127701,50,19233,217,0,18240,0.0010000000000000009
600000,9045,171,127942,-811,-119,126640,45,19238,205,0,18241,0.0010000000000000009
601000,8361,489,127110,130,-921,126718,45,19237,184,0,18242,0.0010000000000000009
602000,8694,-1963,127167,983,-2559,127644,46,19235,188,0,18243,0.0010000000000000009
603000,9241,1164,127467,-1347,1282,124677,47,19235,192,0,18244,0.0010000000000000009
604002,9801,428,127964,1135,-1143,129814,44,19236,180,0,18245,0.0010019999999999474
605002,7272,1967,128160,-1749,2451,124637,42,19236,172,0,18246,0.0010000000000000009
606000,7721,1456,127860,-2225,-1851,128595,44,19239,172,0,18247,0.0009980000000000544
607000,7495,-1541,127333,794,-773,126425,49,19237,180,0,18248,0.0010000000000000009
608000,8638,2755,128099,-1012,1081,125710,49,19238,201,0,18249,0.0010000000000000009
609002,8983,-899,127735,-371,-1574,128604,56,19231,229,1,18250,0.0010019999999999474
610000,7481,695,127477,-412,-172,126133,44,19236,180,1,18251,0.0009980000000000544
611000,10639,184,127018,801,-293,127498,44,19236,180,1,18252,0.0010000000000000009
612001,7501,3322,127972,-1575,2913,124594,44,19237,180,1,18253,0.0010010000000000296
613003,8557,-919,127626,-139,-2981,129118,40,19239,180,1,18254,0.0010019999999999474
614001,8055,-1338,127620,-223,-1090,127637,40,19235,164,1,18255,0.0009980000000000544
615000,9599,2142,128339,-892,1695,125573,42,19237,172,1,18256,0.0009989999999999721
616000,9605,286,127298,1656,-388,126716,40,19241,164,1,18257,0.0010000000000000009
617000,9077,1453,127433,157,-470,126929,46,19241,188,1,18258,0.0010000000000000009
618000,8296,-1274,126993,-1656,-1211,128069,52,19236,188,1,18259,0.0010000000000000009
619000,7104,4721,128163,-1667,3964,124286,44,19237,213,0,18260,0.0010000000000000009
620000,9928,1467,127659,-995,-107,127610,44,19235,180,0,18261,0.0010000000000000009
621000,8138,-1327,127977,551,-2429,128329,46,19235,188,0,18262,0.0010000000000000009
622000,8695,-2330,127665,-961,-3270,127654,47,19240,192,0,18263,0.0010000000000000009
623000,8417,364,127659,-24,53,126756,45,19236,184,0,18264,0.0010000000000000009
624000,8497,1548,127749,-1685,727,126463,42,19236,184,0,18265,0.0010000000000000009
625001,8985,2348,127567,-553,1759,125903,42,19237,172,0,18266,0.0010009999999999186
626000,6975,2312,127712,-682,1270,126556,42,19232,172,0,18267,0.0009990000000000832
627000,8466,-1328,127316,-1752,-2328,127686,46,19238,188,0,18268,0.0010000000000000009
628000,7721,-198,127747,917,-886,127219,52,19233,213,1,18269,0.0010000000000000009
629000,8804,1140,128113,-1369,440,126274,45,19241,184,1,18270,0.0010000000000000009
630000,10419,1890,127352,-121,384,126891,46,19241,184,1,18271,0.0010000000000000009
631000,7627,-1492,127747,-919,-2470,128766,46,19236,188,1,18272,0.0010000000000000009
632000,7627,-516,127611,-1819,-1170,125244,46,19236,188,1,18273,0.0010000000000000009
633000,6452,2202,127750,-1099,1556,127366,44,19236,180,1,18274,0.0010000000000000009
634000,9306,2209,127971,-1105,1709,126177,42,19236,172,1,18275,0.0010000000000000009
635000,8642,-970,126296,-1049,-1223,127117,38,19236,156,1,18276,0.0010000000000000009
636000,9171,-66,127504,1576,-158,126458,43,19236,156,1,18277,0.0010000000000000009
637000,9613,791,126929,-1180,-1008,125642,49,19237,176,1,18278,0.0010000000000000009
638001,7092,-863,127799,-543,-595,129225,49,19239,201,1,18279,0.0010009999999999186
639001,5985,2347,128545,-5371,1395,125741,54,19238,221,0,18280,0.0010000000000000009
640002,7027,1212,127723,-596,528,126790,41,19238,168,0,18281,0.0010010000000000296
641001,8631,810,127899,1877,-728,127038,43,19235,176,0,18282,0.0009989999999999721
642000,10045,-1294,126755,-792,-3079,126407,44,19235,176,0,18283,0.0009990000000000832
643000,10444,-1170,127138,731,108,126889,42,19234,180,0,18284,0.0010000000000000009
644000,8641,1644,128408,1568,323,127256,42,19239,172,0,18285,0.0010000000000000009
645000,8235,1266,127597,-3359,1173,126163,41,19236,168,0,18286,0.0010000000000000009
646000,6924,2793,128065,-1517,1886,127083,42,19241,172,0,18287,0.0010000000000000009
647000,7509,241,127394,959,-1653,127271,44,19236,180,0,18288,0.0010000000000000009
648000,8723,491,127151,-983,121,126299,48,19236,197,1,18289,0.0010000000000000009
649000,8741,107,127810,900,-810,127248,41,19235,197,1,18290,0.0010000000000000009
650000,10773,-338,128049,166,-608,126547,47,19240,168,1,18291,0.0010000000000000009
651000,6432,1242,128684,-2539,-879,128333,47,19235,192,1,18292,0.0010000000000000009
652000,6039,-2050,128215,-2325,-1875,128772,46,19236,188,1,18293,0.0010000000000000009
653000,6604,2726,127748,-1012,2066,125074,39,19236,160,1,18294,0.0010000000000000009
654000,9097,2410,127512,-1205,1745,126260,37,19236,152,1,18295,0.0010000000000000009
655003,10373,990,127001,1220,-332,125688,38,19235,152,1,18296,0.0010029999999999761
656000,9464,-849,126934,1995,-1927,127518,46,19240,156,1,18297,0.0009969999999999146
657000,8263,-606,127813,-2598,-944,127710,46,19232,188,1,18298,0.0010000000000000009
658000,6221,529,128356,-2281,58,126950,53,19237,217,0,18299,0.0010000000000000009
659000,6595,2167,128605,-897,1623,127799,42,19238,172,0,18300,0.0010000000000000009
660000,8677,1514,127696,-1270,1200,126021,45,19238,184,0,18301,0.0010000000000000009
661000,8842,267,127404,-616,-723,126100,43,19237,184,0,18302,0.0010000000000000009
662002,8982,-1173,127379,2095,-2253,127473,42,19237,176,0,18303,0.0010020000000000584
663000,8148,-1246,127564,-2027,-1460,127559,42,19235,172,0,18304,0.0009979999999999434
664000,8217,1507,128140,-1800,465,127366,42,19235,172,0,18305,0.0010000000000000009
665000,7424,1620,127877,-673,1598,126564,39,19238,160,0,18306,0.0010000000000000009
666000,7968,1102,127640,-1816,141,125715,43,19236,176,0,18307,0.0010000000000000009
667000,8497,1060,127269,-899,-750,127359,45,19236,176,0,18308,0.0010000000000000009
668000,8479,-889,127063,-583,-2614,126553,53,19232,184,1,18309,0.0010000000000000009
669000,7023,1713,128260,-1019,1011,126161,53,19236,217,1,18310,0.0010000000000000009
670000,8702,994,127404,-1018,-1117,127831,41,19238,168,1,18311,0.0010000000000000009
671000,8052,-1215,127351,-1788,-1617,127009,44,19235,180,1,18312,0.0010000000000000009
672000,7518,2189,127816,449,1297,126492,42,19236,172,1,18313,0.0010000000000000009
673001,9272,1465,127383,-659,381,126675,37,19236,172,1,18314,0.0010010000000000296
674000,9428,1515,127530,-432,950,125022,38,19232,152,1,18315,0.0009989999999999721
675000,9104,1010,127438,126,-89,127669,38,19234,156,1,18316,0.0010000000000000009
676000,8392,-428,127044,260,-1350,126420,41,19236,168,1,18317,0.0010000000000000009
677001,6973,1060,128009,-487,133,128203,43,19238,176,1,18318,0.0010010000000000296
678000,6991,-152,127463,-3488,-1218,126115,56,19237,229,0,18319,0.0009989999999999721
679000,9076,4801,128035,-1473,3677,125790,45,19237,229,0,18320,0.0010000000000000009
680000,9803,554,127581,2336,-2555,127943,44,19234,184,0,18321,0.0010000000000000009
681000,8843,-2392,127081,-1132,-1917,125828,44,19235,180,0,18322,0.0010000000000000009
682000,8000,102,127766,-997,-1279,128241,43,19234,176,0,18323,0.0010000000000000009
683000,7360,154,127901,-58,1088,127065,42,19238,172,0,18324,0.0010000000000000009
684000,7319,3217,127995,-3064,966,126564,43,19236,176,0,18325,0.0010000000000000009
685000,7197,2984,128880,-1177,2359,126707,44,19236,176,0,18326,0.0010000000000000009
686000,8532,1407,127545,-365,-1643,126896,45,19240,180,0,18327,0.0010000000000000009
687006,7553,-2013,127808,-1257,-4003,128470,45,19237,184,0,18328,0.0010060000000000624
688000,9475,-3538,126101,1940,-75,123957,52,19234,213,1,18329,0.0009939999999999394
689000,8460,7221,128883,58,6622,125804,41,19238,168,1,18330,0.0010000000000000009
690000,9888,-1770,126581,-6035,-5120,129522,46,19235,188,1,18331,0.0010000000000000009
691000,9446,2574,129039,3277,4770,124711,46,19235,188,1,18332,0.0010000000000000009
692000,7374,1066,128147,4432,-4008,129667,42,19240,188,1,18333,0.0010000000000000009
693002,6140,-3124,128245,-14203,-4086,126872,42,19237,172,1,18334,0.0010020000000000584
694000,11300,-4741,127713,8558,-4299,130436,39,19233,160,1,18335,0.0009979999999999434
695002,7542,3847,127384,5161,6453,123641,41,19240,168,1,18336,0.0010020000000000584
696002,7276,9928,126940,-15850,7740,120493,43,19234,176,1,18337,0.0010000000000000009
697001,8882,-861,127065,5623,-5592,131714,51,19234,209,1,18338,0.0009989999999999721
698002,8150,-3971,126289,5097,-1278,128235,54,19232,209,0,18339,0.0010010000000000296
699002,8968,4091,129714,-9912,-84,125395,45,19240,221,0,18340,0.0010000000000000009
700000,9755,-2887,127534,4299,-2769,127304,45,19237,184,0,18341,0.0009979999999999434
701000,8441,62,127467,4853,-1684,128802,46,19235,188,0,18342,0.0010000000000000009
702000,7644,-1026,127722,-9167,2233,124833,44,19236,180,0,18343,0.0010000000000000009
703000,8875,6044,127930,1591,3533,125507,43,19236,176,0,18344,0.0010000000000000009
704000,8260,-17,126751,4836,-324,127302,41,19239,176,0,18345,0.0010000000000000009
705000,9735,3154,128242,-8470,1807,124465,42,19236,168,0,18346,0.0010000000000000009
706000,10035,-1008,128669,6229,-2515,130182,42,19237,172,0,18347,0.0010000000000000009
707000,6952,-3361,127030,2343,-4935,128469,46,19233,188,0,18348,0.0010000000000000009
708000,8148,751,127782,-8223,2343,124633,54,19238,221,1,18349,0.0010000000000000009
709000,10063,5633,128292,673,3705,126284,45,19238,184,1,18350,0.0010000000000000009
710000,9841,-294,126862,4058,-1871,127741,48,19236,184,1,18351,0.0010000000000000009
711000,6885,-1524,127864,-5355,-2582,127525,46,19234,197,1,18352,0.0010000000000000009
712000,8145,-1448,127515,131,-1602,127852,46,19237,188,1,18353,0.0010000000000000009
713000,7821,3667,128296,599,2920,125985,41,19236,168,1,18354,0.0010000000000000009
714000,9663,2027,127921,-41,763,127325,39,19236,160,1,18355,0.0010000000000000009
715001,8316,1831,126862,-504,1204,124550,43,19239,176,1,18356,0.0010010000000000296
716000,7808,524,127472,-498,-1161,127393,50,19239,176,1,18357,0.0009989999999999721
717000,8778,-2681,128066,-1844,-3156,128096,57,19236,205,0,18358,0.0010000000000000009
718000,7519,1461,128756,388,378,127251,57,19232,233,0,18359,0.0010000000000000009
719001,8606,1761,128741,-2448,1137,127340,45,19236,184,0,18360,0.0010010000000000296
720002,7944,1506,127422,-1421,20,125984,45,19236,184,0,18361,0.0010009999999999186
721000,8872,-3353,125829,1569,-4268,128850,44,19238,180,0,18362,0.0009980000000000544
722000,9290,3316,127372,454,3120,123251,46,19238,180,0,18363,0.0010000000000000009
723000,9349,2667,127589,-2565,1551,127973,45,19235,188,0,18364,0.0010000000000000009
724000,8896,-363,128004,-931,-1285,127825,45,19234,184,0,18365,0.0010000000000000009
725003,7424,-263,128211,1107,-1048,128568,43,19233,176,0,18366,0.0010029999999999761
726000,7524,-238,127539,-1474,-1129,125451,45,19236,184,0,18367,0.0009970000000000256
727000,7253,693,127887,-1310,-2074,128200,50,19236,205,0,18368,0.0010000000000000009
728000,9467,-1258,127067,-610,1273,125544,61,19236,205,1,18369,0.0010000000000000009
729000,8647,5027,127756,-919,4178,124179,43,19233,250,1,18370,0.0010000000000000009
730000,9829,1901,127451,941,-2148,128251,43,19240,176,1,18371,0.0010000000000000009
731000,7730,-2619,127401,-1377,-3703,128389,44,19236,180,1,18372,0.0010000000000000009
732000,7894,-2243,128144,391,-11,128341,45,19236,184,1,18373,0.0010000000000000009
733000,8601,1995,128581,-354,1882,125540,40,19237,164,1,18374,0.0010000000000000009
734001,9547,2277,127719,-121,-746,127060,41,19237,164,1,18375,0.0010010000000000296
735000,9108,-917,126247,-122,-2447,126937,43,19237,168,1,18376,0.0009989999999999721
736001,9994,3893,127708,1632,3588,124802,43,19236,176,1,18377,0.0010010000000000296
737000,8192,1595,127511,-1367,-2237,128698,50,19236,205,0,18378,0.0009989999999999721
738000,6751,-880,127839,-3619,-388,127155,55,19239,225,0,18379,0.0010000000000000009
739002,8933,1205,128382,479,-509,127730,44,19236,180,0,18380,0.0010019999999999474
740000,9039,671,128042,740,201,125682,45,19236,184,0,18381,0.0009980000000000544
741000,8629,-900,127392,-98,-3854,128386,46,19234,184,0,18382,0.0010000000000000009
742000,8420,-2953,126936,-1925,-1135,127024,43,19237,188,0,18383,0.0010000000000000009
743000,9093,5319,128151,-731,5174,124209,43,19233,176,0,18384,0.0010000000000000009
744001,8538,2928,128015,72,-112,127799,43,19239,176,0,18385,0.0010009999999999186
745000,7310,-682,127684,-1442,-2181,127992,44,19236,180,0,18386,0.0009990000000000832
746000,7629,-2612,127594,-848,-2928,128513,49,19236,201,0,18387,0.0010000000000000009
747001,8722,1952,127783,290,2819,124412,55,19236,201,1,18388,0.0010009999999999186
748000,9288,3129,128082,-420,956,126971,43,19233,225,1,18389,0.0009990000000000832
749001,10311,-1013,126890,-609,-1288,127095,43,19239,176,1,18390,0.0010009999999999186
750000,7598,1248,128012,-1531,-149,126903,50,19237,205,1,18391,0.0009990000000000832
751000,6119,-997,127769,-920,-1888,128547,46,19237,188,1,18392,0.0010000000000000009
752000,7383,-859,127789,-2065,-663,127427,45,19237,184,1,18393,0.0010000000000000009
753000,9079,1735,128298,-786,1921,126907,38,19242,184,1,18394,0.0010000000000000009
754000,9300,3794,126592,854,3059,123745,41,19240,156,1,18395,0.0010000000000000009
755000,9887,617,126971,228,-1479,127167,41,19233,168,1,18396,0.0010000000000000009
756000,8593,-2264,127116,114,-2433,127375,45,19236,184,1,18397,0.0010000000000000009
757000,7488,500,127900,-2419,36,126935,51,19234,209,1,18398,0.0010000000000000009
758000,5712,2149,128875,-2844,1194,127261,56,19238,229,0,18399,0.0010000000000000009
759000,7070,567,128312,-1754,-437,127798,44,19238,229,0,18400,0.0010000000000000009
760000,9204,-1781,127199,764,-2207,127546,43,19237,180,0,18401,0.0010000000000000009
761000,9795,1839,127251,1451,1208,124537,43,19240,176,0,18402,0.0010000000000000009
762000,10821,-214,126533,-179,-1203,127064,43,19236,176,0,18403,0.0010000000000000009
763000,8254,1190,127968,-562,690,126335,42,19233,172,0,18404,0.0010000000000000009
764002,8177,1997,128432,-820,1058,127838,41,19238,168,0,18405,0.0010019999999999474
765002,6500,756,127760,-1305,-106,126959,42,19238,168,0,18406,0.0010000000000000009
766000,6902,33,127636,-1559,-1075,127507,48,19238,172,0,18407,0.0009980000000000544
767000,9309,-2734,126530,39,-2669,127921,48,19235,197,1,18408,0.0010000000000000009
768000,9429,3515,127618,172,2548,124143,45,19238,184,1,18409,0.0010000000000000009
769000,11195,-673,127579,1115,-1627,127474,46,19236,188,1,18410,0.0010000000000000009
770000,7667,228,128033,-1264,-597,128433,47,19238,192,1,18411,0.0010000000000000009
771000,5474,-1200,128121,-1211,-2414,128540,42,19238,192,1,18412,0.0010000000000000009
772000,6189,1979,127917,-3529,985,125698,38,19238,172,1,18413,0.0010000000000000009
773000,8376,2445,127687,-1266,1605,126611,38,19238,156,1,18414,0.0010000000000000009
774000,9738,978,127248,1052,73,125626,39,19235,160,1,18415,0.0009999999999998899
775000,9459,-236,127252,1751,-2904,128152,42,19234,172,1,18416,0.0010000000000000009
776000,7695,-1264,127612,-3257,215,126741,47,19234,192,1,18417,0.0010000000000000009
777000,7337,1867,128569,-3639,747,127459,54,19234,192,0,18418,0.0010000000000000009
778000,6478,1945,128570,94,1694,127093,41,19236,221,0,18419,0.0010000000000000009
779000,8523,1000,127914,-1894,-1435,127293,41,19236,168,0,18420,0.0010000000000000009
780000,7760,-2429,126764,-505,-2561,126696,44,19235,180,0,18421,0.0010000000000000009
781000,9127,618,127224,928,840,125852,46,19236,188,0,18422,0.0010000000000000009
782000,9062,1050,127768,-1050,938,127128,45,19237,184,0,18423,0.0010000000000000009
783000,8615,2415,127973,-2568,524,126758,42,19237,184,0,18424,0.0010000000000000009
784000,7133,-28,128138,-768,-405,128627,41,19237,172,0,18425,0.0010000000000000009
785001,7596,-323,127618,214,-543,125509,41,19236,168,0,18426,0.0010010000000000296
786000,8234,792,127282,-1101,-637,127656,42,19236,172,0,18427,0.0009989999999999721
787000,8026,307,127344,-2134,1105,125202,49,19236,201,1,18428,0.0010000000000000009
788000,8269,2809,127584,-321,1814,125920,46,19240,188,1,18429,0.0010000000000000009
789000,9119,882,127398,839,-707,128187,42,19240,172,1,18430,0.0010000000000000009
790002,7162,-407,127566,-2898,-1593,126734,43,19236,172,1,18431,0.0010020000000000584
791002,7661,-2717,127592,-613,-2868,129064,42,19240,176,1,18432,0.0010000000000000009
792000,8642,2618,128102,620,2718,124991,42,19237,172,1,18433,0.0009979999999999434
793000,9703,1804,127398,-264,148,126559,36,19238,147,1,18434,0.0010000000000000009
794002,8803,800,126743,-1740,1013,125129,38,19239,156,1,18435,0.0010020000000000584
795000,8629,1518,127310,1161,-465,126809,45,19239,184,1,18436,0.0009979999999999434
796000,8025,-291,127374,-377,-516,127487,49,19235,184,1,18437,0.0010000000000000009
797000,6626,1097,127725,-3303,-255,127170,46,19229,201,0,18438,0.0010000000000000009
798000,8108,1280,127907,-1143,147,127315,46,19239,188,0,18439,0.0010000000000000009
799000,9999,857,127453,1319,358,126394,45,19237,184,0,18440,0.0010000000000000009
800000,8153,-1375,127673,-86,-2672,126926,44,19239,180,0,18441,0.0010000000000000009
801000,8457,58,127223,-2514,-1629,127281,44,19235,180,0,18442,0.0010000000000000009
802001,6829,-957,127116,1239,-1789,126126,42,19235,180,0,18443,0.0010010000000000296
803002,9315,6509,128789,-553,5450,126032,41,19236,172,0,18444,0.0010010000000000296
804001,7970,-520,127455,-2886,-2186,128150,41,19238,168,0,18445,0.0009989999999999721
805000,7121,2240,128719,-1535,2163,125338,45,19236,184,0,18446,0.0009989999999999721
806000,7425,-310,128195,812,-2119,128619,48,19234,197,0,18447,0.0010000000000000009
807000,6910,-938,127859,-3193,-1506,126687,54,19234,221,1,18448,0.0010000000000000009
808000,7062,-2155,127773,-1917,-2128,128813,42,19234,221,1,18449,0.0010000000000000009
809000,11056,289,126298,-125,155,126413,45,19234,172,1,18450,0.0010000000000000009
810001,8400,8737,128042,7719,8442,121353,45,19236,184,1,18451,0.0010010000000000296
811000,9510,-2260,126903,-8173,-5167,132514,46,19235,188,1,18452,0.0009989999999999721
812000,9828,-2550,128573,-1442,-1061,124946,42,19235,172,1,18453,0.0010000000000000009
813000,9565,1540,129159,6496,-777,130123,39,19233,160,1,18454,0.0010000000000000009
814002,6419,-2828,127527,-2997,-2964,124175,42,19233,160,1,18455,0.0010020000000000584
815001,4752,-2495,126259,-6824,-4010,127579,47,19239,172,1,18456,0.0009989999999999721
816000,9549,6553,127700,4408,7054,121696,47,19234,192,1,18457,0.0009989999999999721
817000,7583,10264,126825,-1416,8857,123645,51,19235,209,0,18458,0.0010000000000000009
818000,9856,1683,129132,-7557,1187,129112,46,19237,188,0,18459,0.0010000000000000009
819000,13497,-10507,126130,6359,-11316,131597,43,19236,176,0,18460,0.0010000000000000009
820001,7378,-3466,129925,8930,-4344,128502,44,19236,176,0,18461,0.0010010000000000296
821000,8050,-2613,126602,-12486,114,124646,43,19241,180,0,18462,0.0009989999999999721
822000,5110,5708,128220,3335,7955,125982,43,19236,176,0,18463,0.0010000000000000009
823000,8078,7883,127052,-2517,5213,124083,41,19238,168,0,18464,0.0010000000000000009
824000,10012,4180,127272,-3574,188,124923,43,19236,176,0,18465,0.0010000000000000009
825000,9127,-3292,126662,6132,-5341,130388,42,19236,172,0,18466,0.0010000000000000009
826002,11298,-2442,128283,-1734,-1992,126204,50,19236,172,0,18467,0.0010020000000000584
827000,8705,-1184,128328,-380,-1624,130206,49,19234,205,1,18468,0.0009979999999999434
828000,8666,377,128597,293,-463,126887,49,19240,201,1,18469,0.0010000000000000009
829000,6589,2137,126610,-5236,2378,124469,46,19237,188,1,18470,0.0010000000000000009
830000,7899,3493,128621,-1383,1134,126963,47,19233,192,1,18471,0.0010000000000000009
831000,7701,-358,126529,2821,-1891,127836,42,19237,172,1,18472,0.0010000000000000009
832000,8775,457,128508,-4402,946,126891,41,19237,168,1,18473,0.0010000000000000009
833002,10547,3430,128371,4883,3125,125445,41,19239,168,1,18474,0.0010019999999999474
834000,8488,-1267,127008,507,-3162,129206,46,19238,168,1,18475,0.0009980000000000544
835002,8610,-2749,127365,-4244,-1025,127420,46,19234,188,1,18476,0.0010019999999999474
836002,7618,-529,127249,-630,-270,125962,52,19232,213,1,18477,0.0010000000000000009
837000,8450,3669,128774,-1311,3989,126382,58,19235,238,0,18478,0.0009980000000000544
838000,8049,3435,129291,-3062,-915,126598,46,19235,188,0,18479,0.0010000000000000009
839000,8522,-5006,126373,-86,-5268,130985,46,19236,188,0,18480,0.0010000000000000009
840002,7929,463,127479,2906,653,125106,47,19235,188,0,18481,0.0010019999999999474
841000,9809,1336,126806,-1942,712,125946,47,19234,192,0,18482,0.0009980000000000544
842000,10251,3273,127987,206,2598,125488,47,19236,192,0,18483,0.0010000000000000009
843001,8219,1879,127845,-577,70,127166,43,19237,176,0,18484,0.0010010000000000296
844000,8138,161,128156,-2910,-472,127146,46,19237,188,0,18485,0.0009989999999999721
845000,6401,-1397,127928,1105,-3296,128614,46,19236,188,0,18486,0.0010000000000000009
846000,7673,-1968,128015,-939,-1589,128230,52,19236,188,0,18487,0.0010000000000000009
847000,8610,2772,127683,-2524,2160,125378,52,19234,213,1,18488,0.0010000000000000009
848000,8442,1902,127308,-413,802,126070,59,19241,242,1,18489,0.0010000000000000009
849001,11432,1764,126387,2837,625,125606,46,19237,188,1,18490,0.0010010000000000296
850002,8237,-157,127336,-2371,-1107,126589,45,19234,184,1,18491,0.0010009999999999186
851000,8203,325,128099,-751,-428,127198,43,19234,184,1,18492,0.0009980000000000544
852000,6904,-613,128359,119,-2455,129648,40,19236,176,1,18493,0.0010000000000000009
853000,8800,-1313,127820,-1324,-1419,127192,40,19234,164,1,18494,0.0010000000000000009
854000,9371,3405,127849,1227,2361,125168,41,19234,168,1,18495,0.0010000000000000009
855000,9744,578,126369,141,-510,125884,45,19240,184,1,18496,0.0010000000000000009
856000,9466,1155,127217,-702,432,126445,51,19236,209,1,18497,0.0010000000000000009
857000,7147,1524,127290,-1124,608,126753,52,19236,209,0,18498,0.0010000000000000009
858000,8639,3730,127930,-1409,2526,125652,44,19236,213,0,18499,0.0010000000000000009
859000,7546,-1572,127969,-783,-3275,129333,44,19236,180,0,18500,0.0010000000000000009
860000,8439,-4148,127347,420,-4457,128458,47,19239,192,0,18501,0.0010000000000000009
861000,8698,3,127388,26,-411,126405,45,19232,184,0,18502,0.0010000000000000009
862000,8735,2625,127485,-2029,1921,125100,46,19235,188,0,18503,0.0010000000000000009
863002,9222,3843,127823,-795,2854,127242,45,19235,188,0,18504,0.0010019999999999474
864002,7292,763,127818,-434,-118,127403,46,19234,184,0,18505,0.0010000000000000009
865002,7648,214,127491,-932,-767,127654,46,19236,188,0,18506,0.0010000000000000009
866000,7329,-1681,127759,-218,-2549,128148,48,19236,197,1,18507,0.0009980000000000544
867000,8545,1656,128420,-1649,1247,124826,56,19236,229,1,18508,0.0010000000000000009
868000,11187,2056,127799,257,-136,127539,43,19235,176,1,18509,0.0010000000000000009
869000,7810,1836,128268,-1160,-237,126001,50,19235,176,1,18510,0.0010000000000000009
870000,6721,-1706,126872,-2028,-4400,129672,46,19234,205,1,18511,0.0010000000000000009
871000,6904,-1349,127899,-1905,2387,126084,46,19234,188,1,18512,0.0010000000000000009
872000,8237,5721,129117,-371,2230,126012,42,19238,172,1,18513,0.0010000000000000009
873000,9001,-1139,126970,-333,-2117,127863,39,19236,160,1,18514,0.0010000000000000009
874000,9364,892,127302,651,-253,125520,41,19238,168,1,18515,0.0010000000000000009
875000,9690,-1369,126586,442,-1030,127250,46,19238,168,1,18516,0.0010000000000000009
876000,7917,3394,128068,-2757,3671,124411,54,19234,188,1,18517,0.0010000000000000009
877001,6505,1077,128596,-3436,-2742,130159,54,19235,221,0,18518,0.0010009999999999186
878000,6164,-1593,128307,-1120,-325,126821,49,19236,201,0,18519,0.0009990000000000832
879000,8642,704,128116,1314,-1764,127300,43,19242,176,0,18520,0.0010000000000000009
880000,9288,-1400,126887,102,-1031,125954,44,19237,180,0,18521,0.0010000000000000009
881000,10300,1046,126866,-105,490,125969,43,19237,176,0,18522,0.0010000000000000009
882000,9229,741,127680,-152,1049,127006,41,19233,176,0,18523,0.0010000000000000009
883000,9067,4902,128065,-347,3293,125072,41,19234,168,0,18524,0.0010000000000000009
884000,6857,-688,127575,-1546,-2650,128961,41,19238,168,0,18525,0.0010000000000000009
885000,7038,-824,128022,-1260,-871,127079,41,19235,168,0,18526,0.0010000000000000009
886000,8378,-1240,127369,457,-2604,127887,48,19230,197,1,18527,0.0010000000000000009
887000,8522,1001,127566,384,2028,125298,37,19230,152,1,18528,0.0010000000000000009
888000,11013,3314,128203,-498,738,125567,47,19236,152,1,18529,0.0010000000000000009
889000,7652,-1194,127208,-528,-1600,128255,48,19235,192,1,18530,0.0010000000000000009
890000,7040,918,128214,-1670,9,127139,48,19238,197,1,18531,0.0010000000000000009
891000,6774,193,127738,-2147,-578,127694,43,19239,176,1,18532,0.0010000000000000009
892002,8422,2887,128166,-1206,2572,125244,39,19237,160,1,18533,0.0010019999999999474
893000,9011,254,127401,1282,-1947,127414,40,19236,164,1,18534,0.0009979999999999434
894000,8903,-573,127128,124,-887,126505,46,19236,164,1,18535,0.0010000000000000009
895000,8501,-252,127572,-1801,-1394,127506,51,19235,188,1,18536,0.0010000000000000009
896000,7273,1387,128017,-1458,1975,126139,51,19235,209,0,18537,0.0010000000000000009
897000,7261,3968,128844,-2128,2332,127262,50,19236,205,0,18538,0.0010000000000000009
898000,8770,-1996,127060,310,-2956,128213,41,19239,168,0,18539,0.0010000000000000009
899000,7677,857,127509,-243,-237,125660,45,19236,184,0,18540,0.0010000000000000009
900001,8960,-2368,126756,-152,-2357,127465,46,19236,184,0,18541,0.0010010000000000296
901000,8681,1128,127486,-1091,249,124583,44,19238,188,0,18542,0.0009989999999999721
902000,8540,888,128120,-1354,-260,129231,44,19237,180,0,18543,0.0010000000000000009
903000,7404,3129,128185,-1819,2040,124154,42,19237,172,0,18544,0.0010000000000000009
904000,7533,-1721,127073,844,-3168,130031,40,19236,164,0,18545,0.0010000000000000009
905000,8758,1463,127676,-1510,1352,125191,46,19238,188,0,18546,0.0010000000000000009
906000,8131,1631,127155,-470,319,125255,51,19238,188,1,18547,0.0010000000000000009
907000,7979,711,127722,-1465,353,128344,38,19235,209,1,18548,0.0010000000000000009
908000,8725,1701,126893,-78,449,124802,38,19236,156,1,18549,0.0010000000000000009
909000,7699,-777,127736,-4161,-1338,128730,45,19236,184,1,18550,0.0010000000000000009
910001,7912,1572,127857,869,575,127362,43,19237,176,1,18551,0.0010010000000000296
911000,8336,-1755,127842,1420,-2474,128838,39,19240,160,1,18552,0.0009989999999999721
912000,9704,414,127452,-2649,-209,124451,37,19240,160,1,18553,0.0010000000000000009
913000,8699,2455,127212,1548,1530,125803,40,19238,152,1,18554,0.0010000000000000009
914000,9356,2596,127154,-622,881,125996,40,19236,164,1,18555,0.0010000000000000009
915000,7260,72,127095,27,-1292,127902,45,19233,184,1,18556,0.0010000000000000009
916002,6783,-294,127535,-2908,510,127471,49,19232,201,0,18557,0.0010020000000000584
917002,7935,2994,128342,-1636,1146,125991,42,19242,172,0,18558,0.0010000000000000009
918000,9558,-269,127889,869,-1857,128607,42,19242,172,0,18559,0.0009979999999999434
919000,8750,-1245,127672,-270,-2394,126088,45,19240,172,0,18560,0.0010000000000000009
920000,7608,-402,127284,-2747,-124,127441,45,19236,184,0,18561,0.0010000000000000009
921000,8388,1700,128063,-37,1739,126435,43,19239,176,0,18562,0.0010000000000000009
922000,7230,2437,127466,-1675,770,126954,42,19235,172,0,18563,0.0010000000000000009
923000,7042,2126,128647,-3293,742,128100,41,19235,168,0,18564,0.0010000000000000009
924000,8132,-2757,126502,2241,-5051,126567,44,19235,180,0,18565,0.0010000000000000009
925000,8375,1778,127692,2110,4611,124141,50,19235,180,0,18566,0.0010000000000000009
926000,9659,3359,127786,-5246,-1456,128489,55,19238,205,1,18567,0.0010000000000000009
927000,8013,-1018,127481,-1734,2148,125605,55,19240,225,1,18568,0.0010000000000000009
928000,9569,2517,128071,4874,-344,128051,45,19234,184,1,18569,0.0010000000000000009
929000,6869,-821,128301,-731,-2854,128974,47,19238,192,1,18570,0.0010000000000000009
930002,6577,-4462,127234,-5440,-5281,128453,40,19238,164,1,18571,0.0010020000000000584
931001,9188,-806,127670,996,1579,127018,39,19240,164,1,18572,0.0009989999999999721
932002,11129,9552,128800,235,9378,121533,39,19240,160,1,18573,0.0010010000000000296
933000,9431,2069,127637,114,-3125,126988,39,19237,160,1,18574,0.0009979999999999434
934000,6010,-3896,126422,324,-5698,129476,44,19238,180,1,18575,0.0010000000000000009
935000,7821,-1134,127699,-3142,-211,127071,48,19238,197,1,18576,0.0010000000000000009
936000,7204,6654,129345,-3190,5738,124625,56,19238,229,0,18577,0.0010000000000000009
937000,9060,-118,127829,2967,-1964,128459,44,19240,229,0,18578,0.0010000000000000009
938001,9954,-1527,127331,543,-994,127118,45,19236,180,0,18579,0.0010010000000000296
939000,7657,1198,127922,-2863,-450,125759,45,19235,184,0,18580,0.0009989999999999721
940000,10365,-3811,126889,11,-3969,128123,46,19237,188,0,18581,0.0010000000000000009
941000,8325,3353,128074,3590,4104,125355,41,19240,168,0,18582,0.0010000000000000009
942000,7435,3097,128290,-3767,1373,128090,39,19240,160,0,18583,0.0010000000000000009
943000,7499,811,127167,-4759,461,125153,44,19240,160,0,18584,0.0010000000000000009
944000,9625,632,127533,4762,-656,128277,46,19236,180,0,18585,0.0010000000000000009
945000,9049,370,127515,2735,-49,125822,46,19236,188,0,18586,0.0010000000000000009
946000,8811,653,128033,-7105,-783,126140,54,19234,221,1,18587,0.0010000000000000009
947001,10497,-1296,128049,1661,-2290,129564,40,19240,164,1,18588,0.0010010000000000296
948000,8493,1455,127383,5884,685,126163,44,19235,180,1,18589,0.0009989999999999721
949000,6240,1351,128036,-6879,499,126770,46,19235,180,1,18590,0.0010000000000000009
950000,7060,-895,127117,-4473,-1882,127188,43,19236,188,1,18591,0.0010000000000000009
951001,9105,1339,127851,5249,1058,127989,43,19235,176,1,18592,0.0010010000000000296
952000,10341,4060,127875,-242,3395,124294,42,19235,172,1,18593,0.0009989999999999721
953000,8345,349,127285,-3628,-1048,124636,43,19238,176,1,18594,0.0010000000000000009
954000,8130,-3205,127897,2196,-4160,131101,48,19234,197,1,18595,0.0010000000000000009
955000,8163,-2593,127302,547,-3162,128362,53,19234,197,1,18596,0.0010000000000000009
956000,6489,4421,128495,-4926,3659,124857,50,19233,217,0,18597,0.0010000000000000009
957000,8553,3352,128409,-1175,2687,127530,50,19236,205,0,18598,0.0010000000000000009
958000,9847,-2544,126609,2211,-3659,128649,47,19234,192,0,18599,0.0010000000000000009
959003,8731,-1074,127066,-276,-1852,125499,48,19232,197,0,18600,0.0010029999999999761
960000,8856,1615,126994,-1142,744,125312,48,19233,197,0,18601,0.0009970000000000256
961000,8730,1505,128007,380,-812,128891,44,19233,197,0,18602,0.0010000000000000009
962000,8178,-519,128040,-764,-549,127611,42,19239,180,0,18603,0.0010000000000000009
963000,7328,2241,127797,-2183,1188,126019,42,19238,172,0,18604,0.0010000000000000009
964000,7675,960,127709,-602,-738,126325,46,19237,188,0,18605,0.0010000000000000009
965001,8738,55,127473,562,-1147,127153,48,19235,197,0,18606,0.0010010000000000296
966000,9564,-357,127685,-1503,35,127246,57,19233,233,1,18607,0.0009989999999999721
967000,7770,2337,127655,-482,2639,125069,40,19233,164,1,18608,0.0010000000000000009
968000,9901,1772,127619,762,-3235,127987,43,19237,164,1,18609,0.0010000000000000009
969002,8133,-1878,127695,-838,-2328,127843,44,19235,176,1,18610,0.0010019999999999474
970000,8454,1615,128198,-1812,-1662,126735,44,19239,180,1,18611,0.0009980000000000544
971000,7677,556,127824,682,601,127321,40,19238,164,1,18612,0.0010000000000000009
972000,9400,2420,128029,-1364,1519,125655,40,19235,164,1,18613,0.0010000000000000009
973000,10895,1501,127226,1304,602,125757,41,19235,168,1,18614,0.0010000000000000009
974000,8837,1305,127175,2358,-458,127485,49,19231,168,1,18615,0.0010000000000000009
975000,8320,-900,127161,-4589,-1830,127229,52,19236,201,1,18616,0.0010000000000000009
976000,7629,172,127904,-596,20,127507,52,19240,213,0,18617,0.0010000000000000009
977000,8252,2821,127871,1427,2371,126530,44,19237,180,0,18618,0.0010000000000000009
978000,9001,1832,127768,-3801,-372,126146,46,19235,188,0,18619,0.0010000000000000009
979000,8518,-2637,127618,1203,-4311,128716,46,19235,188,0,18620,0.0010000000000000009
980000,9538,-1708,127510,568,-827,126875,45,19238,188,0,18621,0.0010000000000000009
981000,9124,2520,127971,-1070,2165,125719,43,19236,184,0,18622,0.0010000000000000009
982001,7781,2569,128177,-772,1201,126819,43,19238,176,0,18623,0.0010009999999999186
983000,7348,375,127528,-1710,-800,127831,44,19233,180,0,18624,0.0009990000000000832
984000,7596,259,127420,-1155,-320,126718,47,19237,192,0,18625,0.0010000000000000009
985002,8587,2037,128090,942,1207,126390,53,19237,217,1,18626,0.0010019999999999474
986000,9084,-337,127413,-650,-1262,127319,41,19235,217,1,18627,0.0009980000000000544
987000,11083,314,128021,-1714,-645,126766,46,19240,168,1,18628,0.0010000000000000009
988000,8558,50,128016,199,-469,128364,46,19235,188,1,18629,0.0010000000000000009
989000,6317,-769,127308,-207,-1655,126693,50,19235,205,1,18630,0.0010000000000000009
990000,6143,704,128028,-4298,-197,127747,46,19236,188,1,18631,0.0010000000000000009
991000,8247,2607,127802,-1401,2816,126043,39,19236,160,1,18632,0.0010000000000000009
992000,10076,3691,127276,2037,2477,124685,40,19236,160,1,18633,0.0010000000000000009
993002,9556,-1205,127257,379,-2489,127889,44,19240,164,1,18634,0.0010019999999999474
994001,9367,-1603,127296,-487,-1949,126342,44,19236,180,1,18635,0.0009989999999999721
995000,7283,-586,127855,-584,-1298,128400,50,19234,205,1,18636,0.0009990000000000832
996000,6507,2996,128527,-4260,2339,126184,57,19234,233,0,18637,0.0010000000000000009
997000,6195,1477,127995,-1557,494,127144,41,19238,168,0,18638,0.0010000000000000009
998000,8563,-56,127279,297,-672,126504,44,19238,168,0,18639,0.0010000000000000009
999000,10025,418,126989,839,-612,125852,42,19235,180,0,18640,0.0010000000000000009
1000000,10251,-1999,126755,985,-2748,127514,42,19238,172,0,18641,0.0010000000000000009
1001000,9188,2111,128117,-321,1766,125969,44,19238,180,0,18642,0.0009999999999998899
1002000,7807,1070,127878,-1457,148,127773,42,19237,172,0,18643,0.001000000000000112
1003000,7025,1580,127565,-1605,553,126543,40,19233,164,0,18644,0.0009999999999998899
1004000,6898,-2446,127134,-1261,-3422,127909,42,19233,164,0,18645,0.001000000000000112
1005000,8069,2020,127658,-285,1084,125294,51,19238,172,1,18646,0.0009999999999998899
1006000,9392,41,127123,-1516,-874,127269,51,19238,209,1,18647,0.001000000000000112
1007000,10876,832,127828,2211,230,126479,43,19235,176,1,18648,0.0009999999999998899
1008000,7076,208,128020,-1439,-2263,128526,49,19232,201,1,18649,0.001000000000000112
1009000,6368,-932,127627,-1794,724,126306,47,19236,192,1,18650,0.0009999999999998899
1010000,6198,3351,128282,-2280,142,127859,40,19236,192,1,18651,0.001000000000000112
1011000,9391,-495,127393,-2532,466,125892,37,19238,164,1,18652,0.0009999999999998899
1012000,8828,2990,127656,1933,818,125287,37,19236,152,1,18653,0.001000000000000112
1013000,8816,-1272,127109,-1054,-3755,128654,39,19235,160,1,18654,0.0009999999999998899
1014000,8308,-1150,127427,-1592,125,126678,46,19234,188,1,18655,0.001000000000000112
1015000,7056,1116,128594,-2096,-293,128878,52,19233,213,0,18656,0.0009999999999998899
1016000,7412,3575,128484,-651,4557,123836,42,19233,172,0,18657,0.001000000000000112
1017002,8221,2398,127792,-1509,-1145,127953,42,19238,172,0,18658,0.0010019999999999474
1018000,8595,-3644,127087,139,-4339,127556,43,19237,172,0,18659,0.0009980000000000544
1019000,8291,-73,127054,779,677,125625,43,19240,176,0,18660,0.0009999999999998899
1020000,8378,1161,128101,-2789,-652,127842,43,19238,176,0,18661,0.001000000000000112
1021000,9058,2936,128272,-669,2101,125725,43,19241,176,0,18662,0.0009999999999998899
1022000,7413,427,128191,-555,-1745,129834,41,19241,168,0,18663,0.001000000000000112
1023000,8273,-771,127150,-914,245,124537,41,19237,168,0,18664,0.0009999999999998899
1024001,7805,3265,127628,-979,1438,125916,46,19238,168,0,18665,0.0010010000000000296
1025001,8799,-1430,127458,-1267,-1355,127536,46,19233,188,1,18666,0.001000000000000112
1026000,7943,2314,127708,-476,1783,125183,52,19238,213,1,18667,0.0009989999999999721
1027000,8379,489,127573,-172,-1799,129402,41,19236,168,1,18668,0.0009999999999998899
1028001,7320,-691,127368,-2827,-347,125256,43,19236,176,1,18669,0.0010010000000000296
1029000,7915,-118,127801,287,-1617,128983,43,19235,176,1,18670,0.0009989999999999721
1030000,9077,865,128060,283,969,126584,37,19237,176,1,18671,0.001000000000000112
1031000,9524,2396,127359,-1008,1814,124907,37,19241,152,1,18672,0.0009999999999998899
1032000,8646,971,127162,295,-478,127199,37,19236,152,1,18673,0.001000000000000112
1033000,8630,1070,127114,-355,-23,125758,41,19237,168,1,18674,0.0009999999999998899
1034000,8075,-1519,127440,25,-2723,129403,48,19232,197,1,18675,0.001000000000000112
1035000,7055,1429,128073,-1891,-315,125076,53,19232,197,0,18676,0.0009999999999998899
1036000,8536,5069,128163,-2077,2944,126203,40,19235,217,0,18677,0.001000000000000112
1037000,9732,167,127679,260,-2501,127981,40,19236,164,0,18678,0.0009999999999998899
1038000,8220,-747,127811,1758,-1377,126457,44,19239,180,0,18679,0.001000000000000112
1039000,7622,-1340,127581,-2018,-2371,128406,44,19240,180,0,18680,0.0009999999999998899
1040000,7559,298,127484,-2180,170,125553,43,19235,176,0,18681,0.001000000000000112
1041000,7878,2327,128291,-956,875,128783,42,19235,176,0,18682,0.0009999999999998899
1042000,8113,3584,127970,-1875,3239,125072,42,19236,172,0,18683,0.001000000000000112
1043000,7622,1958,127703,-572,572,126784,42,19236,172,0,18684,0.0009999999999998899
1044000,6756,-2914,127417,-1446,-3765,129040,46,19235,188,0,18685,0.001000000000000112
1045000,8405,149,127920,-2100,-308,125707,51,19235,209,1,18686,0.0009999999999998899
1046000,9117,-1240,126770,1456,-1519,127850,39,19238,160,1,18687,0.001000000000000112
1047000,8974,7467,128591,3573,6706,122751,46,19238,160,1,18688,0.0009999999999998899
1048000,10214,-3832,126935,-8921,-4743,130385,44,19236,188,1,18689,0.001000000000000112
1049000,9018,2863,128817,5631,2529,126634,44,19235,180,1,18690,0.0009999999999998899
1050000,6398,-413,128610,2144,-1682,126806,42,19240,172,1,18691,0.001000000000000112
1051000,8943,-843,127499,-10724,-1718,126359,40,19238,164,1,18692,0.0009999999999998899
1052001,7566,-4111,127080,6767,-4898,130610,43,19235,176,1,18693,0.0010010000000000296
1053000,7757,4785,126693,2139,4024,119367,47,19235,176,1,18694,0.0009989999999999721
1054000,8910,7798,126658,-10184,7126,125120,51,19238,192,1,18695,0.001000000000000112
1055000,8200,-440,128237,2272,-5074,131316,51,19231,209,0,18696,0.0009999999999998899
1056000,9105,-3063,127284,3375,-1602,125957,50,19242,205,0,18697,0.001000000000000112
1057000,9276,-2326,128859,-4459,-3920,129173,43,19235,176,0,18698,0.0009999999999998899
1058000,7695,-983,128082,1016,-1671,125775,43,19235,176,0,18699,0.001000000000000112
1059003,8047,-1225,126385,-3250,-716,127850,44,19235,180,0,18700,0.0010029999999998651
1060000,8780,6086,128489,-1268,7806,123870,43,19234,180,0,18701,0.0009970000000001367
1061000,7894,4109,126544,-352,-1132,126149,43,19233,176,0,18702,0.0009999999999998899
1062000,9644,484,127460,-1196,1059,126492,41,19236,168,0,18703,0.001000000000000112
1063000,10077,-631,128286,3403,-3768,128809,42,19233,172,0,18704,0.0009999999999998899
1064001,8588,-2032,127445,1404,-1727,128029,48,19233,197,0,18705,0.0010010000000000296
1065000,7224,-1277,127677,-5508,-1963,127490,57,19233,233,1,18706,0.0009989999999999721
1066000,9257,2503,127658,-129,3885,124519,45,19237,233,1,18707,0.001000000000000112
1067000,10037,3907,127111,1255,2020,126959,47,19239,184,1,18708,0.0009999999999998899
1068000,7171,211,127481,-2314,-2486,127118,47,19234,192,1,18709,0.001000000000000112
1069000,7736,-2675,126835,-2923,-2307,127935,46,19235,188,1,18710,0.0009999999999998899
1070000,8510,2949,128626,1886,4201,126023,43,19237,176,1,18711,0.001000000000000112
1071000,9911,1233,128242,1423,490,126726,41,19237,168,1,18712,0.0009999999999998899
1072000,9011,131,127102,-1737,-1216,126905,44,19236,168,1,18713,0.0009999999999998899
1073000,7178,-1310,126906,-2114,-820,127087,50,19236,180,1,18714,0.001000000000000112
1074000,9266,1464,128073,778,1258,126181,50,19232,205,1,18715,0.0009999999999998899
1075000,6633,1610,128446,-2116,423,127535,57,19235,233,0,18716,0.001000000000000112
1076002,9333,-124,128734,-2869,-1529,128205,44,19238,180,0,18717,0.0010019999999999474
1077000,7951,-358,127302,1107,-1176,127265,45,19236,184,0,18718,0.0009980000000000544
1078000,8169,319,127397,1038,-794,126905,48,19236,184,0,18719,0.0009999999999998899
1079000,9924,-31,126413,-1128,337,125415,48,19236,197,0,18720,0.001000000000000112
1080000,8324,4054,128020,-1218,3213,125620,48,19237,197,0,18721,0.0009999999999998899
1081000,9531,1032,128084,-1122,-306,127595,46,19237,188,0,18722,0.001000000000000112
1082002,7555,-495,128086,560,-1445,127609,44,19238,180,0,18723,0.0010019999999999474
1083000,7283,-1365,128099,-308,-2407,128653,46,19236,188,0,18724,0.0009980000000000544
1084000,7735,-103,127470,-1413,-387,126092,52,19236,188,0,18725,0.0009999999999998899
1085000,8911,1877,127548,-1154,1418,126543,61,19232,213,1,18726,0.001000000000000112
1086000,8593,2318,127271,-155,1462,125474,61,19235,250,1,18727,0.0009999999999998899
1087000,9610,3222,126885,-244,1510,125166,45,19240,184,1,18728,0.001000000000000112
1088000,9103,-793,127761,-1819,-1918,128582,44,19237,180,1,18729,0.0009999999999998899
1089000,7176,-1658,127773,2143,-2493,128196,41,19240,168,1,18730,0.001000000000000112
1090005,8236,360,128234,-1444,-433,127876,41,19240,168,1,18731,0.0010049999999999226
1091009,9092,1697,128151,-1338,1186,125911,40,19238,168,1,18732,0.0010040000000000049
1092000,9960,1274,126778,1447,437,125472,40,19240,164,1,18733,0.0009909999999999641
1093000,9893,1226,126839,848,608,126758,43,19235,176,1,18734,0.001000000000000112
1094000,8178,1714,127242,-407,1001,125389,49,19236,201,1,18735,0.0009999999999998899
1095000,7483,412,127500,-3225,-594,127692,56,19237,229,0,18736,0.001000000000000112
1096000,8418,1022,127949,560,-397,127591,45,19237,229,0,18737,0.0009999999999998899
1097000,9315,-1461,127788,383,-2376,128043,47,19235,184,0,18738,0.001000000000000112
1098000,8181,-1333,127579,83,-1959,126084,47,19236,192,0,18739,0.0009999999999998899
1099000,8882,115,127194,-1377,-532,126813,46,19239,188,0,18740,0.001000000000000112
1100000,9160,2260,127526,-848,1380,125405,45,19233,184,0,18741,0.0009999999999998899
1101001,8220,3684,128134,-77,3045,126933,42,19243,172,0,18742,0.0010010000000000296
1102000,7074,1535,127979,-2408,-3839,127896,45,19243,172,0,18743,0.0009989999999999721
1103000,7426,-1571,127688,-686,-1942,127975,49,19233,184,0,18744,0.001000000000000112
1104000,7549,1323,128457,-505,-1092,126793,49,19238,201,1,18745,0.0009999999999998899
1105000,9922,187,127694,-59,2487,125700,56,19236,229,1,18746,0.001000000000000112
1106000,10981,3163,128160,-78,547,127063,44,19240,180,1,18747,0.0009999999999998899
1107000,7924,-625,127290,-1889,-1973,127156,48,19236,197,1,18748,0.001000000000000112
1108000,6322,-1282,127707,-2478,-1660,128648,46,19236,188,1,18749,0.0009999999999998899
1109000,6172,-573,128540,-1063,-173,127244,44,19239,188,1,18750,0.001000000000000112
1110001,9202,2454,127959,-738,1824,126280,39,19238,180,1,18751,0.0010010000000000296
1111000,9317,1883,127245,1086,947,126093,39,19241,160,1,18752,0.0009989999999999721
1112000,9920,855,126929,73,-158,125420,41,19236,168,1,18753,0.0009999999999998899
1113000,9443,-778,126958,21,-1605,127690,46,19232,188,1,18754,0.001000000000000112
1114000,7137,24,128082,-2051,91,127066,53,19232,217,1,18755,0.0009999999999998899
1115000,6498,1711,128526,-4033,430,127689,58,19238,217,0,18756,0.001000000000000112
1116000,5279,383,128232,-894,-101,127436,42,19242,238,0,18757,0.0009999999999998899
1117000,9158,-84,127527,804,-1730,127038,42,19241,172,0,18758,0.001000000000000112
1118000,9922,-952,126367,1164,-1415,126083,45,19235,184,0,18759,0.0009999999999998899
1119000,10546,1127,126969,-131,1390,125337,45,19240,184,0,18760,0.001000000000000112
1120001,9337,1985,128067,-164,696,126797,44,19240,180,0,18761,0.0010010000000000296
1121000,8286,1569,127859,-1221,-37,127511,41,19235,180,0,18762,0.0009989999999999721
1122002,6810,731,128218,-1225,233,127904,43,19237,168,0,18763,0.0010019999999999474
1123000,6421,227,127598,-991,-1278,126862,43,19238,176,0,18764,0.0009980000000000544
1124000,8987,-187,127183,-610,-584,127046,46,19235,188,1,18765,0.0009999999999998899
1125000,9120,1532,127703,1292,794,125801,43,19239,176,1,18766,0.001000000000000112
1126000,11521,1523,127965,517,889,125635,45,19239,184,1,18767,0.0009999999999998899
1127000,7071,860,127969,-1277,-228,127260,47,19239,184,1,18768,0.001000000000000112
1128000,6352,-1161,128229,-2489,-2299,128687,43,19237,192,1,18769,0.0009999999999998899
1129000,6416,76,127970,-1918,-466,127816,43,19236,176,1,18770,0.001000000000000112
1130000,8190,3108,128157,-880,2548,125627,39,19237,160,1,18771,0.0009999999999998899
1131000,9577,422,127096,265,-634,126041,42,19237,172,1,18772,0.001000000000000112
1132000,9116,4,127026,610,-890,126665,43,19233,176,1,18773,0.0009999999999998899
1133000,8982,-1125,127561,-815,-1903,128045,50,19233,176,1,18774,0.001000000000000112
1134000,6794,1577,128054,-2334,1036,126552,55,19232,205,0,18775,0.0009999999999998899
1135000,6932,3096,128599,-3199,2320,127495,55,19235,225,0,18776,0.001000000000000112
1136000,8868,-1422,126767,1075,-2304,127365,43,19234,176,0,18777,0.0009999999999998899
1137000,8050,-529,127454,-1121,-1456,126614,46,19236,188,0,18778,0.001000000000000112
1138000,8742,-1911,126520,1004,-2840,126228,46,19238,188,0,18779,0.0009999999999998899
1139000,9834,733,127475,-917,137,126608,44,19238,188,0,18780,0.001000000000000112
1140000,8490,2879,128494,-266,1979,127125,41,19237,180,0,18781,0.0009999999999998899
1141000,6981,1209,128055,-1906,162,127434,41,19242,168,0,18782,0.001000000000000112
1142000,7487,-361,127266,-2099,-1336,127613,39,19236,160,0,18783,0.0009999999999998899
1143000,8099,679,127758,384,-102,126576,42,19235,172,0,18784,0.001000000000000112
1144000,8850,15,127078,18,-732,126558,48,19235,197,1,18785,0.0009999999999998899
1145000,7521,3652,127973,-2440,2840,126164,45,19235,197,1,18786,0.001000000000000112
1146000,9582,279,127223,-649,-776,128447,45,19237,184,1,18787,0.0009999999999998899
1147000,7374,-558,127877,-1106,-1362,126796,45,19235,184,1,18788,0.001000000000000112
1148000,7680,-1043,127814,-1806,-1897,128832,43,19242,176,1,18789,0.0009999999999998899
1149000,8172,463,127827,835,1093,125350,40,19239,164,1,18790,0.001000000000000112
1150000,9549,1813,127527,-1363,468,126823,38,19240,156,1,18791,0.0009999999999998899
1151000,9375,813,126985,652,1067,125077,39,19240,156,1,18792,0.001000000000000112
1152001,8737,2906,127167,-400,453,126283,45,19236,160,1,18793,0.0010010000000000296
1153000,8206,-602,127360,160,-701,128035,45,19235,184,1,18794,0.0009989999999999721
1154001,6410,1266,127967,-3050,-1080,126600,50,19233,205,0,18795,0.0010010000000000296
1155001,8013,388,127950,-31,-408,128210,47,19236,192,0,18796,0.0009999999999998899
1156003,9086,1880,128414,889,1753,124626,43,19236,176,0,18797,0.0010019999999999474
1157000,8417,-575,127492,-1218,-3478,128123,44,19236,180,0,18798,0.0009970000000001367
1158000,8309,-1570,127270,-1510,-1140,127089,44,19237,180,0,18799,0.0009999999999998899
1159000,7441,1847,128140,-313,1423,126538,43,19234,180,0,18800,0.001000000000000112
1160000,7824,2011,128027,-2772,-80,127936,43,19238,176,0,18801,0.0009999999999998899
1161000,8012,-396,126757,1410,-223,125173,42,19238,172,0,18802,0.001000000000000112
1162000,8411,3201,127593,1049,3254,126201,45,19235,184,0,18803,0.0009999999999998899
1163000,9507,-326,126961,-3834,-2844,127979,47,19235,192,0,18804,0.001000000000000112
1164000,8462,1098,128333,-418,2388,124835,54,19232,192,1,18805,0.0009999999999998899
1165000,6511,1118,128430,876,-877,127932,42,19237,221,1,18806,0.001000000000000112
1166000,7276,-1050,127787,-5147,-3729,129486,42,19237,172,1,18807,0.0009999999999998899
1167001,8246,-6405,126674,3841,-4686,128134,46,19239,188,1,18808,0.0010010000000000296
1168000,7941,7345,127732,3603,8572,123830,46,19237,188,1,18809,0.0009989999999999721
1169000,9971,6840,128040,-11714,2768,123788,41,19236,168,1,18810,0.001000000000000112
1170000,12274,-632,128436,4467,-2117,127751,40,19236,168,1,18811,0.0009999999999998899
1171003,8538,-3256,127892,7860,-4542,131075,41,19240,164,1,18812,0.0010030000000000872
1172000,5139,-3568,127057,-7929,-4163,126110,41,19233,168,1,18813,0.0009969999999999146
1173000,5568,-7,127310,-5299,668,128020,46,19238,188,1,18814,0.001000000000000112
1174000,8518,8568,128264,4394,9451,122968,54,19233,221,0,18815,0.0009999999999998899
1175000,7700,7763,127552,-3891,4501,125963,45,19239,184,0,18816,0.001000000000000112
1176000,12131,-4125,127146,-3582,-5557,127508,45,19239,184,0,18817,0.0009999999999998899
1177000,9841,-6400,127267,9913,-7191,129692,44,19239,184,0,18818,0.001000000000000112
1178000,9264,-2186,128512,-1685,-1708,128580,44,19237,180,0,18819,0.0009999999999998899
1179001,7270,3078,128740,-7148,2472,124758,42,19232,172,0,18820,0.0010010000000000296
1180000,6770,1787,127424,4381,490,129802,42,19235,172,0,18821,0.0009989999999999721
1181000,6070,6045,126927,-2808,5950,122091,41,19235,168,0,18822,0.001000000000000112
1182003,10326,3285,127600,-7397,1398,124824,45,19235,168,0,18823,0.0010029999999998651
1183007,11526,-2015,127004,10186,-2749,129108,48,19235,184,0,18824,0.0010040000000000049
1184000,9145,-1591,128541,1530,-2656,128192,48,19239,197,1,18825,0.0009930000000000216
1185000,8729,-612,128346,-8276,-1526,127097,47,19237,192,1,18826,0.001000000000000112
1186000,7612,62,128098,5487,-1088,128215,46,19234,188,1,18827,0.0009999999999998899
1187002,7433,-561,127622,-1071,-1124,128237,49,19238,201,1,18828,0.0010019999999999474
1188000,6294,4747,127311,-6125,3732,123080,45,19238,201,1,18829,0.0009980000000000544
1189000,8656,1514,127551,-309,708,127997,40,19234,184,1,18830,0.001000000000000112
1190000,10946,3618,128093,1933,2942,124587,40,19239,164,1,18831,0.0009999999999998899
1191000,9260,-2442,126994,1777,-3436,128777,42,19237,172,1,18832,0.0009999999999998899
1192000,8119,-719,128086,-117,-1520,127103,45,19234,184,1,18833,0.001000000000000112
1193000,7760,-2453,127092,-1764,-3441,127938,51,19238,209,1,18834,0.0009999999999998899
1194000,8049,3470,128600,-3069,2652,124644,59,19238,209,0,18835,0.001000000000000112
1195000,8096,4506,128674,432,4354,126483,45,19238,242,0,18836,0.0009999999999998899
1196002,8249,-1410,127411,-2417,-2543,127823,45,19236,184,0,18837,0.0010020000000001694
1197000,8699,-2222,127259,0,-3242,128211,46,19237,188,0,18838,0.0009979999999998324
1198000,8783,-91,127082,3123,1930,125533,49,19239,201,0,18839,0.001000000000000112
1199000,8795,3951,128062,-1552,1547,126291,47,19236,192,0,18840,0.0009999999999998899
1200000,8937,-887,127390,-2284,-1683,127470,45,19236,184,0,18841,0.001000000000000112
1201000,8727,1906,127585,1083,1834,125913,44,19236,184,0,18842,0.0009999999999998899
1202000,7834,826,127910,-1413,92,127360,47,19235,180,0,18843,0.001000000000000112
1203000,7420,-796,127549,-1953,-1886,126749,47,19235,192,0,18844,0.0009999999999998899
1204000,8431,-2088,127617,-99,-2675,129650,53,19233,217,1,18845,0.001000000000000112
1205000,7851,3102,128462,-1141,2601,122620,58,19238,238,1,18846,0.0009999999999998899
1206000,11007,1781,127155,1947,-2013,128830,45,19238,184,1,18847,0.001000000000000112
1207000,9082,-998,126853,-1713,834,124771,46,19237,184,1,18848,0.0009999999999998899
1208000,8550,2039,127562,-330,-611,127307,42,19238,188,1,18849,0.001000000000000112
1209000,8230,-513,128245,166,0,127958,42,19242,172,1,18850,0.0009999999999998899
1210000,7977,2217,128361,-947,-550,127052,39,19237,160,1,18851,0.001000000000000112
1211001,8903,-3330,127285,440,-3161,128536,41,19237,168,1,18852,0.0010010000000000296
1212000,8843,4092,127751,248,4374,123619,48,19237,197,1,18853,0.0009989999999999721
1213000,9738,-220,127068,855,-3311,129396,51,19237,197,1,18854,0.0009999999999998899
1214000,7908,341,126918,-2075,1265,125545,51,19234,209,0,18855,0.001000000000000112
1215003,8217,3804,128162,-1497,1747,126717,51,19235,209,0,18856,0.0010030000000000872
1216000,8608,1792,128178,262,1158,125927,44,19235,180,0,18857,0.0009969999999999146
1217000,8326,-1589,128134,254,-5043,130090,47,19235,192,0,18858,0.0009999999999998899
1218000,8408,-6220,127213,-66,-4923,129242,45,19236,184,0,18859,0.001000000000000112
1219000,8312,3874,128081,-1796,4062,123547,44,19236,184,0,18860,0.0009999999999998899
1220000,9618,3447,127753,-87,2210,126843,45,19236,180,0,18861,0.001000000000000112
1221001,8059,2233,127674,-884,1308,126377,45,19237,184,0,18862,0.0010010000000000296
1222000,7413,-2299,127266,-1098,-3185,128800,44,19237,180,0,18863,0.0009989999999999721
1223000,7199,2049,127929,-409,2058,125519,48,19233,197,0,18864,0.0009999999999998899
1224000,9249,-57,127772,-1130,-1769,127948,55,19236,225,1,18865,0.001000000000000112
1225001,10607,-1799,128112,2136,-2029,128155,44,19236,225,1,18866,0.0010010000000000296
1226002,8660,2052,127818,-2229,1037,126015,48,19235,180,1,18867,0.0010010000000000296
1227000,6899,-410,127192,-1872,-1378,126807,48,19237,197,1,18868,0.0009979999999998324
1228000,6368,1956,127863,-2148,835,126619,46,19239,188,1,18869,0.001000000000000112
1229000,8431,292,127898,-783,-295,128340,41,19238,168,1,18870,0.0009999999999998899
1230000,8282,3377,127924,612,2624,124341,41,19237,168,1,18871,0.001000000000000112
1231000,9803,-1039,127041,-899,-2126,128051,43,19237,168,1,18872,0.0009999999999998899
1232002,9117,-1538,126907,1685,-1952,126517,49,19234,176,1,18873,0.0010020000000001694
1233000,8000,1275,127877,-1003,515,126584,49,19235,201,1,18874,0.0009979999999998324
1234001,6705,2475,127907,-4167,1768,126393,52,19232,213,0,18875,0.0010010000000000296
1235000,5559,2079,128178,-3422,1159,126477,48,19239,197,0,18876,0.0009989999999999721
1236000,9846,-1805,127255,1169,-2491,129094,45,19235,184,0,18877,0.001000000000000112
1237000,8686,-433,127115,942,-1052,124650,43,19235,184,0,18878,0.0009999999999998899
1238000,10072,-2915,126932,613,-3714,127551,43,19234,176,0,18879,0.001000000000000112
1239000,8804,1456,126884,-1365,580,124802,43,19236,176,0,18880,0.0009999999999998899
1240000,8607,2796,128092,-187,1855,128228,41,19236,168,0,18881,0.001000000000000112
1241000,7664,4233,128087,-2071,3572,123495,40,19238,164,0,18882,0.0009999999999998899
1242000,6509,-118,127528,-389,-4894,131273,41,19236,168,0,18883,0.001000000000000112
1243000,8550,-2997,127665,-895,-1004,126451,48,19236,197,1,18884,0.0009999999999998899
1244000,8725,1143,127742,467,-208,126280,38,19237,197,1,18885,0.001000000000000112
1245000,10266,1519,128508,578,1591,126062,45,19236,156,1,18886,0.0009999999999998899
1246000,7927,1620,127779,-3009,-942,127076,45,19238,184,1,18887,0.001000000000000112
1247000,6495,-1954,127707,-397,-1835,129312,45,19237,184,1,18888,0.0009999999999998899
1248001,7248,2191,128176,-2599,1710,125459,40,19240,164,1,18889,0.0010010000000000296
1249000,8289,1451,127688,-168,775,126513,38,19240,156,1,18890,0.0009989999999999721
1250000,9484,1815,127804,642,-356,126399,39,19240,156,1,18891,0.001000000000000112
1251000,9080,-1782,127073,927,-3101,128399,45,19236,160,1,18892,0.0009999999999998899
1252001,8072,-845,127591,-2186,-90,126760,45,19231,184,1,18893,0.0010010000000000296
1253000,6477,2447,128250,-2291,1155,126570,49,19237,201,0,18894,0.0009989999999999721
1254000,6908,2171,128373,-2529,2004,127178,48,19233,197,0,18895,0.001000000000000112
1255000,8948,1516,127714,1382,-1270,127159,44,19233,180,0,18896,0.0009999999999998899
1256000,8039,-2043,127342,-856,-2042,127530,44,19238,180,0,18897,0.001000000000000112
1257000,9512,706,127201,-508,-323,125354,44,19236,180,0,18898,0.0009999999999998899
1258000,8493,123,127737,388,-887,127491,44,19236,180,0,18899,0.001000000000000112
1259000,8514,2317,128713,-2242,1621,127832,42,19237,172,0,18900,0.0009999999999998899
1260000,7001,-427,127480,-2115,-793,126732,40,19236,164,0,18901,0.001000000000000112
1261000,7473,2121,127792,-546,1402,126237,42,19237,172,0,18902,0.0009999999999998899
1262000,8725,936,127685,-167,-861,126906,43,19237,172,0,18903,0.001000000000000112
1263000,8768,-460,127044,-909,-371,126263,52,19235,176,1,18904,0.0009999999999998899
1264000,8234,1866,128049,-1396,677,126742,52,19236,213,1,18905,0.001000000000000112
1265000,9333,545,127355,62,-333,126508,40,19238,164,1,18906,0.0009999999999998899
1266000,7543,162,127691,-2242,-646,127537,43,19235,176,1,18907,0.001000000000000112
1267000,6676,-767,127460,-2100,-2117,128014,40,19237,164,1,18908,0.0009999999999998899
1268000,8763,1107,127900,237,1276,125907,38,19237,164,1,18909,0.001000000000000112
1269000,9077,1648,127720,527,703,126660,37,19238,156,1,18910,0.0009999999999998899
1270000,9450,-32,126853,-800,-1180,125350,37,19239,152,1,18911,0.001000000000000112
1271000,8903,791,127144,-83,-134,126890,39,19232,160,1,18912,0.0009999999999998899
1272000,8688,1251,127718,216,-353,126973,46,19230,188,1,18913,0.001000000000000112
1273000,6179,1161,127357,-624,29,126756,51,19236,209,0,18914,0.0009999999999998899
1274000,6640,2423,128390,-5289,1273,126690,39,19236,209,0,18915,0.001000000000000112
1275000,10240,568,127950,685,-271,126316,44,19236,160,0,18916,0.0009999999999998899
1276001,8396,-25,127488,2698,-1179,127501,44,19234,180,0,18917,0.0010010000000000296
1277000,9094,-1614,127302,-1650,-2351,126695,44,19236,180,0,18918,0.0009989999999999721
1278000,7605,-208,127589,-1731,-715,126631,42,19236,172,0,18919,0.001000000000000112
1279002,8517,3258,128438,-1298,2354,127598,41,19239,168,0,18920,0.0010019999999999474
1280002,6908,2203,128105,-1356,1525,126308,42,19239,168,0,18921,0.0009999999999998899
1281000,6677,1573,127906,-2330,431,127199,44,19240,172,0,18922,0.0009980000000000544
1282000,7429,-652,127877,-1139,-1788,127754,44,19240,180,0,18923,0.001000000000000112
1283000,9547,-4536,125712,720,-5331,127362,50,19231,205,1,18924,0.0009999999999998899
1284001,8283,6844,128578,2499,6372,122881,52,19236,213,1,18925,0.0010010000000000296
1285000,10626,-892,126156,-5249,-2000,129051,44,19239,180,1,18926,0.0009989999999999721
1286000,9491,2863,128924,-1733,2304,126084,45,19239,180,1,18927,0.001000000000000112
1287000,6787,-676,127977,8390,-1443,130019,43,19235,184,1,18928,0.0009999999999998899
1288001,5870,-2464,127925,-8244,-3486,126465,43,19240,176,1,18929,0.0010010000000000296
1289000,11064,-4507,127832,-6736,-5258,129889,40,19240,164,1,18930,0.0009989999999999721
1290000,8065,5195,127539,16040,4983,123327,39,19234,160,1,18931,0.001000000000000112
1291000,9029,7948,126297,-11248,7877,120063,43,19238,176,1,18932,0.0009999999999998899
1292000,8435,1431,127649,-4863,-5327,131666,48,19238,197,1,18933,0.001000000000000112
1293000,7762,-4856,126562,10580,-1209,128250,58,19236,197,0,18934,0.0009999999999998899
1294000,8238,1571,129251,-6851,-1517,126599,43,19236,238,0,18935,0.001000000000000112
1295000,9513,-1827,128105,4974,-1574,127507,43,19234,176,0,18936,0.0009999999999998899
1296000,7835,439,127916,3958,-2217,127574,44,19232,180,0,18937,0.001000000000000112
1297001,8475,355,127202,-8194,1736,125683,44,19236,180,0,18938,0.0010009999999998076
1298000,9161,3233,126986,1027,1669,125297,43,19236,176,0,18939,0.0009990000000001942
1299001,8188,3196,127457,6160,2584,126605,41,19236,176,0,18940,0.0010009999999998076
1300000,9474,2024,127888,-9888,-39,126246,43,19239,168,0,18941,0.0009990000000001942
1301002,9978,-1034,128352,6271,-2754,129492,43,19235,176,0,18942,0.0010019999999999474
1302001,7022,-3205,127217,3009,-4421,129058,47,19238,192,0,18943,0.0009989999999999721
1303000,9294,2494,127683,-6992,5458,123208,53,19235,217,1,18944,0.0009989999999999721
1304000,8152,3315,127676,594,1317,127426,40,19235,164,1,18945,0.001000000000000112
1305000,11148,585,127586,4754,873,127123,46,19237,164,1,18946,0.0009999999999998899
1306000,6919,-2199,127581,-5035,-2790,126857,48,19235,188,1,18947,0.001000000000000112
1307000,6715,-63,128406,-779,-890,128496,48,19237,197,1,18948,0.0009999999999998899
1308000,8261,190,127212,92,-203,126738,44,19238,180,1,18949,0.001000000000000112
1309000,9884,2774,128432,801,2410,126537,41,19237,168,1,18950,0.0009999999999998899
1310000,8890,2559,127440,204,1626,124718,42,19235,172,1,18951,0.0009999999999998899
1311002,7764,338,127269,-1071,-1221,127116,48,19235,172,1,18952,0.0010020000000001694
1312000,8826,-3897,127710,-3114,-3869,129251,55,19239,197,1,18953,0.0009979999999998324
1313001,7591,1737,128753,1634,1661,126655,55,19232,225,0,18954,0.0010010000000000296
1314007,7711,2050,128737,-1737,1334,127539,48,19238,197,0,18955,0.0010060000000000624
1315000,8280,1,127707,-2846,-1038,126403,48,19238,197,0,18956,0.0009930000000000216
1316000,8959,-2397,126421,2528,-3131,128509,47,19240,192,0,18957,0.0009999999999998899
1317000,9946,2739,127158,769,2996,123920,47,19240,192,0,18958,0.001000000000000112
1318000,8117,2978,127821,-2647,1416,125961,42,19237,192,0,18959,0.0009999999999998899
1319000,9096,-1270,127809,-1503,-1871,128696,42,19237,172,0,18960,0.001000000000000112
1320000,7465,1138,128457,666,137,127297,44,19239,180,0,18961,0.0009999999999998899
1321001,7202,-753,127953,-466,-1730,128368,46,19237,188,0,18962,0.0010010000000000296
1322002,7606,825,127439,-1744,-327,125561,49,19232,201,0,18963,0.0010010000000000296
1323000,9323,-557,127613,-539,-712,127990,57,19232,201,1,18964,0.0009980000000000544
1324000,9707,4799,127831,-1004,4235,123740,40,19235,233,1,18965,0.0009999999999998899
1325000,9813,2203,127193,1073,755,126303,40,19236,164,1,18966,0.001000000000000112
1326000,7792,-2834,127332,-2587,-3676,129501,45,19236,184,1,18967,0.0009999999999998899
1327000,7579,-763,127391,-311,-1730,126577,42,19236,172,1,18968,0.001000000000000112
1328000,8356,608,128584,719,-97,129014,43,19232,176,1,18969,0.0009999999999998899
1329000,9249,1561,127958,-544,871,125657,41,19232,176,1,18970,0.001000000000000112
1330000,9712,547,126556,-380,-370,126268,42,19242,168,1,18971,0.0009999999999998899
1331000,9977,2805,127345,778,2052,125123,42,19239,172,1,18972,0.001000000000000112
1332000,8666,462,127331,936,-152,126637,46,19236,188,1,18973,0.0009999999999998899
1333002,7095,-578,127526,-2674,-1778,127337,54,19234,221,0,18974,0.0010020000000001694
1334000,7582,2347,128069,-1744,538,127310,44,19240,180,0,18975,0.0009979999999998324
1335000,9122,332,127818,780,-366,127324,46,19240,188,0,18976,0.001000000000000112
1336000,8848,-1816,127465,368,-2262,127445,46,19236,188,0,18977,0.0009999999999998899
1337000,9115,-316,126900,-335,-987,126154,45,19236,188,0,18978,0.001000000000000112
1338000,8761,4050,127939,-1255,3660,124944,45,19231,184,0,18979,0.0009999999999998899
1339000,8900,3038,127987,-340,-536,127816,43,19231,176,0,18980,0.001000000000000112
1340000,7307,-814,128120,-870,-530,127377,43,19240,176,0,18981,0.0009999999999998899
1341000,6705,594,127991,-1227,-1893,127581,46,19240,188,0,18982,0.001000000000000112
1342000,8720,-1123,127035,-64,36,126270,51,19233,188,0,18983,0.0009999999999998899
1343000,9006,2777,128175,-194,1953,126157,40,19236,209,1,18984,0.001000000000000112
1344003,11428,729,127954,-726,94,126472,40,19238,164,1,18985,0.0010029999999998651
1345000,8438,2073,127991,-1405,18,126564,48,19237,197,1,18986,0.0009970000000001367
1346000,6014,-3788,127412,-1483,-5499,130560,48,19236,197,1,18987,0.0009999999999998899
1347000,7030,-579,127918,-1348,1188,125722,43,19236,176,1,18988,0.001000000000000112
1348000,7360,4181,128226,-791,2581,126874,40,19237,176,1,18989,0.0009999999999998899
1349000,9491,2033,127353,-1176,1740,124767,41,19237,164,1,18990,0.001000000000000112
1350000,9512,740,126928,1823,-1722,127456,41,19237,168,1,18991,0.0009999999999998899
1351000,9596,-2282,126742,31,-1482,127053,46,19230,188,1,18992,0.001000000000000112
1352000,7847,2807,128099,-1555,1685,125003,53,19236,217,1,18993,0.0009999999999998899
1353003,5880,-443,128388,-3878,-2265,130128,56,19235,229,0,18994,0.0010030000000000872
1354002,6235,635,128156,-1821,693,126229,42,19235,229,0,18995,0.0009989999999999721
1355002,8345,1433,127435,1729,389,127035,43,19240,172,0,18996,0.001000000000000112
1356000,9773,-56,126744,-345,-160,125053,43,19236,176,0,18997,0.0009979999999998324
1357000,10277,-443,126849,160,-1693,126832,43,19237,176,0,18998,0.001000000000000112
1358000,9638,-618,127546,386,-323,127793,45,19237,184,0,18999,0.0009999999999998899
1359000,8674,4727,128397,-876,3715,124928,41,19236,168,0,19000,0.001000000000000112
1360000,6203,-384,127931,-1855,-2105,128711,41,19236,168,0,19001,0.0009999999999998899
1361000,7441,32,127373,-1314,-1006,127209,44,19235,168,0,19002,0.001000000000000112
1362000,8008,-523,127215,821,-1240,127583,44,19238,180,1,19003,0.0009999999999998899
1363001,9097,2865,127589,-1450,2485,124445,51,19240,209,1,19004,0.0010010000000000296
1364000,10808,1021,128044,1143,-96,126893,44,19240,180,1,19005,0.0009989999999999721
1365000,7914,-1253,127758,-1471,-1759,128278,48,19236,197,1,19006,0.001000000000000112
1366000,6787,-144,128332,-884,-1225,127860,47,19236,197,1,19007,0.0009999999999998899
1367000,5890,479,127934,-2579,-141,127756,40,19237,192,1,19008,0.001000000000000112
1368000,8678,2796,128065,-2028,2140,125556,40,19239,164,1,19009,0.0009999999999998899
1369007,9121,588,127067,1119,-464,126705,39,19235,160,1,19010,0.0010069999999999801
1370003,9880,494,127258,922,-275,126208,41,19238,168,1,19011,0.0009959999999999969
1371000,8102,-3448,127539,-376,-4460,128032,48,19236,197,1,19012,0.0009970000000001367
1372000,7335,1403,128020,-2843,625,127200,54,19236,197,0,19013,0.0009999999999998899
1373000,6418,2387,128352,-2028,861,127474,42,19234,221,0,19014,0.001000000000000112
1374000,8619,1851,127896,-202,748,126798,42,19240,172,0,19015,0.0009999999999998899
1375000,7503,36,127363,-1631,-1227,126904,45,19236,184,0,19016,0.001000000000000112
1376000,8910,-1462,126595,349,-1993,126425,45,19234,184,0,19017,0.0009999999999998899
1377000,8815,1424,127760,-277,625,126612,46,19236,188,0,19018,0.001000000000000112
1378001,8387,1669,128145,-1353,888,127139,42,19236,188,0,19019,0.0010010000000000296
1379000,7920,1127,127811,-1931,321,128409,41,19236,172,0,19020,0.0009989999999999721
1380000,7418,-185,127717,-85,-1205,126139,41,19235,168,0,19021,0.0009999999999998899
1381000,8516,1875,127619,-468,1218,126568,42,19235,172,0,19022,0.001000000000000112
1382000,8348,-1171,126902,-848,-1981,126294,47,19235,192,1,19023,0.0009999999999998899
1383000,7931,3159,127815,-2083,2407,125612,53,19241,217,1,19024,0.001000000000000112
1384000,9896,628,127622,479,-1253,127903,42,19241,172,1,19025,0.0009999999999998899
1385000,7303,423,127793,-984,-222,126787,44,19235,172,1,19026,0.001000000000000112
1386000,7487,-1421,127650,-2004,-3724,128988,39,19231,180,1,19027,0.0009999999999998899
1387000,8534,124,127604,369,2104,125377,39,19237,160,1,19028,0.001000000000000112
1388000,9262,3057,127729,-666,1197,126379,36,19238,147,1,19029,0.0009999999999998899
1389000,8982,1214,126662,-972,-170,125085,38,19236,156,1,19030,0.001000000000000112
1390000,9373,1315,127218,1444,963,126738,42,19236,172,1,19031,0.0009999999999998899
1391000,7624,432,127590,-805,-1172,127822,48,19236,172,1,19032,0.001000000000000112
1392000,7057,434,127411,-2974,-577,126868,54,19233,197,0,19033,0.0009999999999998899
1393000,7133,1616,128541,-1050,1076,128012,54,19235,221,0,19034,0.001000000000000112
1394002,9978,882,127867,876,261,125500,44,19236,180,0,19035,0.0010019999999999474
1395000,8507,308,127610,259,-1111,127467,44,19238,180,0,19036,0.0009980000000000544
1396002,8125,-597,127863,-2205,-1753,127242,44,19237,180,0,19037,0.0010019999999999474
1397000,8685,-2973,126460,844,-1974,126404,43,19237,180,0,19038,0.0009980000000000544
1398001,7977,7147,129110,-316,6292,125941,42,19237,176,0,19039,0.0010009999999998076
1399000,8155,-476,127407,-3848,-2930,128793,42,19239,172,0,19040,0.0009990000000001942
1400000,7969,1088,128149,-1455,2071,125135,42,19239,172,0,19041,0.0009999999999998899
1401000,7306,1830,128625,3239,-1077,128543,46,19234,188,0,19042,0.001000000000000112
1402000,7340,-2811,127338,-4940,-3030,127186,53,19233,217,1,19043,0.0009999999999998899
1403000,6276,-1494,128071,-2905,-2158,128487,40,19233,217,1,19044,0.001000000000000112
1404000,10077,967,126956,2451,-917,126911,46,19234,164,1,19045,0.0009999999999998899
1405000,9312,8610,127576,5457,9334,120685,46,19235,188,1,19046,0.001000000000000112
1406000,7052,1432,127611,-7237,-4800,132393,46,19237,188,1,19047,0.0009999999999998899
1407001,11258,-5275,127543,-2305,-1581,125135,42,19237,172,1,19048,0.0010010000000000296
1408001,10626,4840,130376,7263,1087,129265,39,19236,160,1,19049,0.0009999999999998899
1409000,5415,-6324,127097,-1379,-6001,127608,42,19236,160,1,19050,0.0009990000000001942
1410000,5371,638,126740,-11271,-394,124556,46,19236,172,1,19051,0.0009999999999998899
1411000,9090,5216,128386,8179,6112,128865,46,19234,188,1,19052,0.001000000000000112
1412000,6798,9415,126219,-2705,7810,119552,52,19232,213,0,19053,0.0009999999999998899
1413000,11442,1779,128644,-10544,381,127903,50,19240,205,0,19054,0.001000000000000112
1414000,11376,-8802,126693,12384,-10443,130933,43,19236,176,0,19055,0.0009999999999998899
1415000,8479,-3534,129158,3154,-3842,129020,45,19236,176,0,19056,0.001000000000000112
1416000,7271,-4246,127698,-11462,-4794,128587,43,19234,184,0,19057,0.0009999999999998899
1417000,5799,6050,127546,5867,5797,123176,43,19232,176,0,19058,0.001000000000000112
1418000,7090,9203,127304,-4201,7838,125723,44,19239,180,0,19059,0.0009999999999998899
