t_us,ax,ay,az,ax1,ay1,az1,shunt_raw,bus_raw,curr_raw,pg_rpm,seq,dt
0,-9828,-11789,128248,27978,-28298,138734,921,19102,3772,0,33624,
1002,-4337,-12545,121794,-41064,7930,117711,876,19087,3588,1,33625,0.0010019999999999999
2000,-4174,27466,131127,4211,10270,123535,740,19134,3031,0,33626,0.0009980000000000002
3000,20781,2553,117025,20817,11887,108840,911,19140,3731,0,33627,0.001
4000,-2718,27720,125253,-76,19843,105916,959,19140,3928,1,33628,0.001
5000,3147,-6558,122051,-13928,-19607,134917,594,19068,3928,1,33629,0.001
6000,5742,-4513,118687,17108,6373,111486,873,19113,2433,0,33630,0.001
7000,-3166,16449,128426,-9320,2529,129688,873,19119,3576,1,33631,0.0009999999999999992
8000,2998,1249,123126,-10833,2789,118759,958,19169,3924,1,33632,0.0010000000000000009
9000,-5561,3059,124858,7615,-4731,128736,797,19082,3264,0,33633,0.0009999999999999992
10001,4895,-2349,128049,-19451,3682,130361,931,19082,3813,0,33634,0.0010010000000000002
11000,-2065,15063,128011,-1330,8880,120895,1090,19103,3813,1,33635,0.0009989999999999999
12000,966,3447,130427,3386,-10996,141200,779,19174,4464,0,33636,0.0010000000000000009
13000,5591,-5623,131167,-3457,-6928,132474,779,19123,3191,0,33637,0.0009999999999999992
14000,-6601,-7167,133731,-8744,-12333,141472,845,19090,3461,1,33638,0.0009999999999999992
15000,-834,-6099,135182,-12219,-3064,138304,1026,19145,4202,1,33639,0.0010000000000000009
16003,2199,4949,134511,10774,-6486,136485,900,19145,3686,0,33640,0.0010030000000000004
17002,3124,927,128373,9592,4713,123600,862,19126,3686,1,33641,0.0009989999999999999
18000,313,14803,131866,-26622,3924,126653,578,19088,3530,1,33642,0.0009979999999999989
19000,19857,-18412,125810,15572,-15188,137325,578,19123,2367,0,33643,0.0010000000000000009
20001,-3179,12519,132975,22543,9478,118530,1084,19133,4440,0,33644,0.0010009999999999984
21000,-5306,-4508,120360,-37342,-6961,124210,952,19097,3899,1,33645,0.0009989999999999999
22000,-3151,23432,129486,5257,15931,115184,646,19121,2646,0,33646,0.0010000000000000009
23001,15563,-6358,119995,22723,-15432,131591,820,19121,2646,0,33647,0.0010010000000000019
24002,3585,13609,120521,373,21479,98133,1042,19106,3358,1,33648,0.0010009999999999984
25002,-5939,20050,127841,-17651,8693,119058,1042,19124,4268,1,33649,0.0010000000000000009
26000,9907,-18067,115789,2388,-19917,132115,766,19096,3137,0,33650,0.0009979999999999989
27000,-3441,16637,125575,7599,9962,115449,751,19114,3076,1,33651,0.0010000000000000009
28000,1012,8353,126110,-8076,3426,124539,800,19156,3277,1,33652,0.0009999999999999974
29000,-2160,4811,123519,-6020,-143,120627,867,19156,3277,0,33653,0.0010000000000000009
30000,4224,-10848,128099,-15265,-12927,141115,798,19074,3551,0,33654,0.0010000000000000009
31000,1214,7435,127760,10920,5667,122971,798,19094,3268,1,33655,0.0010000000000000009
32000,-3436,16154,129807,-9864,4938,124207,773,19144,3166,0,33656,0.0010000000000000009
33000,7254,-7179,132320,-11099,-13140,144986,892,19146,3653,0,33657,0.0010000000000000009
34000,-4894,-8224,134587,7337,-9872,138502,921,19079,3772,1,33658,0.000999999999999994
35000,-7039,-8342,133244,-19518,-10425,139668,669,19079,3772,1,33659,0.0010000000000000009
36000,-1662,8725,135781,7497,5819,124004,986,19125,2740,0,33660,0.0010000000000000009
37002,4463,-255,128341,3426,-12006,141297,986,19130,4038,1,33661,0.0010020000000000029
38000,13239,1170,129599,-19789,-353,124827,929,19147,3805,1,33662,0.0009979999999999989
39000,3670,26458,136159,21565,22626,117309,755,19102,3092,0,33663,0.0010000000000000009
40000,-2948,-17664,122901,5670,-20105,138778,955,19118,3911,0,33664,0.0010000000000000009
41001,-13133,-5075,126170,-26659,-9672,122049,1056,19118,3911,1,33665,0.001000999999999995
42000,7748,-278,121960,1979,-9942,122478,758,19158,4325,0,33666,0.0009989999999999999
43000,13984,31440,122081,29413,27849,89826,758,19111,3105,0,33667,0.0010000000000000009
44000,1179,16984,126436,-14026,17318,132202,801,19096,3281,1,33668,0.0010000000000000009
45000,2894,-15801,118101,-2988,-18188,123706,1207,19171,4944,1,33669,0.0010000000000000009
46000,-1679,5276,120700,12950,7755,116013,857,19120,3510,0,33670,0.0010000000000000009
47000,1356,21029,126201,-18449,14973,117531,835,19120,3510,1,33671,0.0010000000000000009
48000,-85,8147,124099,3281,-2755,124354,570,19101,3420,1,33672,0.0010000000000000009
49000,353,-9358,125123,-513,-9901,137241,570,19129,2335,0,33673,0.000999999999999994
50000,2237,555,130635,-21030,-14,126654,1022,19119,4186,0,33674,0.0010000000000000009
51000,-6419,1247,124979,9713,1726,125028,928,19094,3801,1,33675,0.0010000000000000009
52000,1692,15510,129392,-26017,5399,130134,592,19133,2425,0,33676,0.0010000000000000009
53000,8208,130,132324,1736,-5898,140689,789,19133,3232,0,33677,0.0010000000000000009
54000,1101,-3163,133766,11386,-4704,133410,1013,19120,3232,1,33678,0.0010000000000000009
55000,-9834,-4444,135495,-24828,-9807,138674,728,19120,4149,1,33679,0.0010000000000000009
56000,3191,-16381,131274,20564,-22253,145684,728,19105,2982,0,33680,0.000999999999999994
57000,-3421,5426,129498,-2639,5036,123807,799,19115,3272,1,33681,0.0010000000000000009
58000,10995,10990,130055,-30530,6740,127513,961,19167,3936,1,33682,0.0010000000000000009
59000,10112,16281,133884,46409,10793,123479,836,19167,3424,0,33683,0.0010000000000000009
60000,-4333,-10542,123187,-13071,-21042,133354,756,19077,3424,0,33684,0.0010000000000000009
61002,-6211,-5032,122806,-24444,3704,119157,847,19090,3096,1,33685,0.0010020000000000029
62000,3144,20349,128908,22443,5164,125534,847,19145,3469,0,33686,0.0009979999999999989
63000,17002,-3926,116372,12484,713,115359,856,19129,3506,0,33687,0.0010000000000000009
64000,-5133,22734,126697,-12655,19354,106320,892,19082,3653,1,33688,0.0010000000000000009
65000,2867,-279,121479,-17204,-7259,128811,824,19131,3375,1,33689,0.0010000000000000009
66000,3424,4500,119908,22882,6741,112360,1006,19131,3375,0,33690,0.0010000000000000009
67000,347,14611,126182,-7937,1500,125424,902,19153,4120,1,33691,0.000999999999999987
68000,-1030,-394,123163,-13182,-731,120838,902,19135,3694,1,33692,0.0010000000000000009
69000,-1441,2006,126474,676,-2662,128041,714,19108,2924,0,33693,0.0010000000000000009
70002,3089,-3543,129155,-7852,-3562,135629,1073,19121,4395,0,33694,0.0010020000000000029
71000,-5030,8226,125996,-2689,5136,119669,1005,19155,4116,1,33695,0.0009979999999999989
72000,2484,9967,129279,-8303,-626,133708,733,19155,4116,0,33696,0.0010000000000000009
73000,8659,2433,132323,-2521,-2656,135259,717,19105,3002,0,33697,0.0010000000000000009
74000,-1363,-12291,133581,1550,-16713,142849,717,19102,2937,1,33698,0.0010000000000000009
75000,-7629,-8130,135186,-15656,-9337,137462,1150,19171,4710,1,33699,0.0010000000000000009
76000,65,-65,132176,14490,-5155,132598,826,19107,3383,0,33700,0.0010000000000000009
77000,-1523,1053,126839,-8571,-9946,138837,803,19096,3289,1,33701,0.0010000000000000009
78000,14523,11948,131729,-17499,10693,119133,676,19096,3289,1,33702,0.0010000000000000009
79000,913,11700,130444,40251,5042,128359,966,19140,2769,0,33703,0.0010000000000000009
80000,-3707,-12750,123515,-17416,-15320,129959,966,19110,3956,0,33704,0.0010000000000000009
81000,-6243,-6337,125522,-22394,-11286,128782,908,19087,3719,1,33705,0.0010000000000000009
82000,5531,6014,121392,23888,-914,127906,617,19133,2527,0,33706,0.000999999999999987
83000,13919,31338,123231,6392,28486,96600,846,19132,3465,0,33707,0.0010000000000000009
84000,-346,5527,124364,-7441,1330,122254,983,19132,3465,1,33708,0.0010000000000000009
85000,4959,-9650,118230,-3109,-11320,124938,665,19079,4026,1,33709,0.0010000000000000009
86002,-3332,12163,123696,4923,8585,113859,665,19105,2724,0,33710,0.0010020000000000029
87000,3550,20681,127123,-14746,11336,118421,871,19118,3567,1,33711,0.0009979999999999989
88002,-2224,-2085,123430,3015,-5424,131704,988,19170,4047,1,33712,0.0010020000000000029
89001,-4658,-9662,125186,3464,-13436,131379,827,19077,3387,0,33713,0.0009989999999999999
90000,1013,9260,129835,-27312,7105,123202,849,19077,3387,0,33714,0.0009989999999999999
91000,-4277,7408,127180,9028,3353,126592,999,19098,3477,1,33715,0.0010000000000000009
92001,7320,14079,129978,-5250,4840,134419,999,19164,4092,0,33716,0.0010010000000000019
93000,5459,-7090,130542,-9841,-11867,140861,795,19125,3256,0,33717,0.0009989999999999999
94000,247,-10921,133082,10850,-11393,137159,873,19090,3576,1,33718,0.0010000000000000009
95000,-9775,-7293,133935,-10860,-6477,137915,902,19134,3694,1,33719,0.0010000000000000009
96000,4498,-1533,132339,-12245,-5460,138442,960,19134,3932,0,33720,0.0010000000000000009
97000,1793,14656,131065,16730,10294,122684,889,19139,3932,1,33721,0.000999999999999987
98000,8687,5446,127961,-24027,-2495,129677,684,19111,3641,1,33722,0.0010000000000000009
99000,11207,4013,131681,35669,1215,127770,684,19111,2801,0,33723,0.0010000000000000009
100000,-7255,-8884,127124,-3704,-18267,134261,1118,19133,4579,0,33724,0.0010000000000000009
101001,-2788,-2766,123301,-22207,6974,117377,984,19133,4030,1,33725,0.0010010000000000019
102000,-1243,26168,129524,16899,11357,122266,712,19133,2916,0,33726,0.0009989999999999999
103000,15765,-1423,117270,5692,800,116163,775,19105,2916,0,33727,0.0010000000000000009
104000,-3080,15186,123186,-2205,13639,107925,1094,19106,3174,1,33728,0.0010000000000000009
105000,-467,2435,123534,-14584,-5070,128031,1094,19145,4481,1,33729,0.0010000000000000009
106000,6946,4883,120329,14118,7633,112415,808,19076,3309,0,33730,0.0010000000000000009
107000,-1964,17273,125923,-2972,3552,125427,727,19107,2978,1,33731,0.0010000000000000009
108000,2691,-4568,122011,-11844,-5288,124235,762,19107,3121,1,33732,0.0010000000000000009
109005,-5205,-571,124088,2309,-3738,125234,918,19134,3121,0,33733,0.001004999999999992
110000,3335,2359,129525,-13127,2627,132807,868,19105,3760,0,33734,0.0009950000000000098
111000,-2070,12977,128659,-1442,10663,121024,868,19090,3555,1,33735,0.0010000000000000009
112002,4103,8408,130102,-6485,-5462,138302,676,19138,2769,0,33736,0.001001999999999989
113000,5295,-11204,128800,567,-13104,137053,926,19136,3793,0,33737,0.0009979999999999989
114003,-5025,-7134,133627,-4793,-12239,138251,941,19071,3854,1,33738,0.0010030000000000039
115002,-5188,-8782,134925,-15740,-8366,142065,626,19071,3854,1,33739,0.0009989999999999999
116002,5032,8136,133609,14977,2364,130958,914,19112,2564,0,33740,0.0010000000000000009
117002,-3011,11751,129458,4995,3529,126683,914,19125,3743,1,33741,0.0010000000000000009
118001,8925,5246,130260,-32944,-860,127386,957,19162,3920,1,33742,0.0009989999999999999
119000,10157,-6427,130592,35467,-10572,135374,799,19092,3272,0,33743,0.0009989999999999999
120001,-7640,-7833,127600,8694,-9178,128627,962,19099,3940,0,33744,0.0010010000000000019
121000,-4878,5142,124956,-41721,3075,118272,1106,19099,3940,1,33745,0.0009989999999999999
122000,1271,19364,127244,18088,9799,123916,775,19175,4530,0,33746,0.0010000000000000009
123000,20546,3324,116663,19787,914,116031,775,19121,3174,0,33747,0.0010000000000000009
124000,-4868,17656,123353,-3462,15783,105152,837,19094,3428,1,33748,0.0010000000000000009
125000,1404,836,123016,-18757,-4126,124960,941,19147,3854,1,33749,0.0010000000000000009
126000,2985,-3691,120091,9734,-6106,121888,927,19118,3797,0,33750,0.0010000000000000009
127000,-1681,18478,126925,1780,9463,121421,861,19118,3797,1,33751,0.0010000000000000009
128001,-1565,2848,122984,-10214,-479,121439,634,19109,3526,1,33752,0.0010010000000000019
129001,-7405,-704,124546,-5753,-4425,125493,634,19117,2597,0,33753,0.0010000000000000009
130000,8717,-1239,129235,-15701,-3243,135593,1101,19136,4509,0,33754,0.0009989999999999999
131001,-3926,10388,127557,15083,6660,121254,954,19132,3907,1,33755,0.0010010000000000019
132000,6702,12877,130108,-14234,3321,128456,688,19115,2818,0,33756,0.0009989999999999999
133001,3663,-11403,130614,-10389,-15663,143937,792,19115,2818,0,33757,0.0010009999999999741
134000,-4795,-8520,133633,11861,-11708,139849,1054,19109,3244,1,33758,0.0009989999999999999
135000,-7355,-6835,133391,-22233,-9443,133169,1054,19138,4317,1,33759,0.0010000000000000009
136000,32,9357,134857,5209,5276,129564,784,19089,3211,0,33760,0.0010000000000000009
137000,5583,3744,126144,6705,-4758,137145,719,19110,2945,1,33761,0.0010000000000000009
138000,11042,3558,128965,-23130,-1212,115598,785,19138,3215,1,33762,0.0010000000000000009
139000,1537,13207,133632,27444,12182,138107,919,19138,3215,0,33763,0.0010000000000000009
140000,-8276,-24413,121071,3886,-20009,129318,850,19088,3764,0,33764,0.0010000000000000009
141000,-7361,2570,127027,-34600,7622,123325,803,19084,3481,1,33765,0.0010000000000000009
142000,9075,12790,121796,13206,10653,121014,803,19146,3289,0,33766,0.0010000000000000009
143002,13005,27093,119414,21930,32372,92589,910,19143,3727,0,33767,0.0010020000000000029
144000,3374,13127,125315,-3787,-9930,131766,938,19071,3842,1,33768,0.0009979999999999989
145000,909,-18800,117196,9582,-13159,123910,680,19071,2785,1,33769,0.0010000000000000009
146000,1486,10903,124147,-4766,12949,114176,914,19125,2785,0,33770,0.0010000000000000009
147002,-603,20846,128107,-4883,10126,123978,926,19130,3743,1,33771,0.0010020000000000029
148000,-5586,2905,123575,-5400,-2642,122295,926,19152,3793,1,33772,0.0009979999999999989
149000,-1568,-8419,126148,-9557,-10552,137633,778,19087,3186,0,33773,0.0010000000000000009
150000,-2595,3040,130056,7985,3215,124332,942,19112,3858,0,33774,0.0010000000000000009
151002,-4178,6347,126038,-9270,5241,123063,1066,19112,4366,1,33775,0.0010020000000000029
152000,7790,13102,129655,-13667,2615,134785,756,19170,4366,0,33776,0.0009979999999999989
153000,8193,-2004,130203,11298,-5173,136389,812,19118,3096,0,33777,0.0010000000000000009
154003,-2915,-5057,131649,-6879,-8431,135772,812,19096,3326,1,33778,0.0010030000000000039
155000,-10042,-8735,136985,-14737,-11250,142581,1016,19150,4161,1,33779,0.0009969999999999979
156000,4309,-16836,130833,15592,-24377,148367,901,19116,3690,0,33780,0.0010000000000000009
157000,-2755,12480,129790,4054,19172,113602,851,19116,3485,1,33781,0.0010000000000000009
158000,6811,19459,131627,-33207,7078,129238,590,19100,3485,1,33782,0.0010000000000000009
159000,15945,-2857,127268,33748,-1795,127805,1067,19114,2416,0,33783,0.0010000000000000009
160000,-9830,668,127994,14177,-7491,127370,1067,19133,4370,0,33784,0.0010000000000000009
161002,-1821,-5015,122669,-38969,-1654,122898,947,19105,3879,1,33785,0.0010020000000000029
162000,-1125,23602,129541,17520,11947,118413,642,19122,2629,0,33786,0.0009979999999999989
163000,15754,-10733,117401,13941,-12317,129441,815,19105,3338,0,33787,0.0010000000000000009
164003,-4378,19716,122447,-4546,23093,99047,1036,19105,3338,1,33788,0.0010029999999999761
165002,-3334,11187,125044,-15876,1441,124573,747,19127,4243,1,33789,0.0009989999999999999
166002,10229,-4395,118496,10567,-4128,119473,747,19107,3059,0,33790,0.0010000000000000009
167000,-436,19256,125693,3595,10433,120045,735,19112,3010,1,33791,0.0009979999999999989
168000,1115,1322,123979,-11602,-694,124991,848,19148,3473,1,33792,0.0010000000000000009
169000,-7500,-3008,124406,-2069,-6639,125235,883,19074,3617,0,33793,0.0010000000000000009
170000,-508,-4020,130367,-13648,-5191,138464,791,19074,3617,0,33794,0.0010000000000000009
171000,-690,9427,128996,1094,6412,123850,800,19095,3240,1,33795,0.0010000000000000009
172000,1914,12820,129478,-1167,4298,127228,800,19142,3277,0,33796,0.0010000000000000009
173000,8990,-1110,131741,-9586,-4968,136847,867,19141,3551,0,33797,0.0010000000000000009
174001,-5208,-15376,131412,398,-19256,143640,914,19080,3743,1,33798,0.0010010000000000019
175000,-4090,-8380,135360,-12550,-10124,139392,693,19122,2838,1,33799,0.0009989999999999999
176000,-320,4490,134519,13407,445,130813,991,19122,2838,0,33800,0.0010000000000000009
177000,-3231,4917,127037,1482,-3623,134041,921,19136,4059,1,33801,0.0010000000000000009
178000,12490,5665,129026,-33228,2778,124636,921,19145,3772,1,33802,0.0010000000000000009
179000,1944,9530,130832,41409,7004,126434,767,19097,3141,0,33803,0.0010000000000000009
180000,-2387,-8561,123650,1362,-10732,127209,958,19118,3924,0,33804,0.0010000000000000009
181002,-7546,-4683,126252,-36650,-9875,124991,1055,19159,4321,1,33805,0.0010020000000000029
182002,11239,3698,122433,24802,-4977,120646,756,19159,4321,0,33806,0.0010000000000000009
183000,10754,23875,121160,12034,20349,98012,791,19111,3096,0,33807,0.0009979999999999989
184000,-4608,16244,124546,-11216,15213,127207,791,19097,3240,1,33808,0.0010000000000000009
185000,5057,-11494,117175,-6242,-13849,122962,1195,19174,4894,1,33809,0.0010000000000000009
186000,-242,6103,121935,8339,418,114177,848,19117,3473,0,33810,0.0010000000000000009
187000,4097,24650,128543,-8343,12788,119403,832,19104,3408,1,33811,0.0010000000000000009
188000,-4644,678,123990,-4253,-10512,128893,599,19104,2453,1,33812,0.0010000000000000009
189000,-6771,-12778,126722,2418,-9152,137640,1022,19123,2453,0,33813,0.0010000000000000009
190000,-715,3087,130374,-25072,1461,126520,923,19117,4186,0,33814,0.0010000000000000009
191000,-5071,10538,129021,4282,11946,120809,923,19091,3780,1,33815,0.0010000000000000009
192000,11398,14486,131021,-16175,352,135989,585,19125,2396,0,33816,0.0010000000000000009
193000,3873,-11342,129863,-2030,-12888,141659,785,19118,3215,0,33817,0.0010000000000000009
194000,-3175,-7404,132896,7313,-8641,136902,1015,19118,4157,1,33818,0.0009999999999999731
195000,-10580,-5699,134653,-13528,-10191,139045,725,19115,4157,1,33819,0.0010000000000000009
196000,4324,-7181,131110,16963,-5570,135542,835,19105,2969,0,33820,0.0010000000000000009
197000,2409,13855,128255,-12317,9223,125924,835,19109,3420,1,33821,0.0010000000000000009
198000,11568,6683,127950,-9831,8967,123405,955,19168,3911,1,33822,0.0010000000000000009
199000,5092,8541,131905,49480,-2661,131143,829,19078,3395,0,33823,0.0010000000000000009
200000,-7299,-26106,120185,-25419,-28085,135028,753,19078,3084,0,33824,0.0010000000000000009
201000,-5208,4359,127658,-17228,13226,116904,848,19096,3084,1,33825,0.0010000000000000009
202001,8419,18690,125355,21552,9002,125900,853,19151,3473,0,33826,0.0010010000000000019
203000,10796,12065,118892,111,17558,103869,853,19137,3494,0,33827,0.0009989999999999999
204001,-4930,16207,124340,-5649,6699,117925,909,19087,3723,1,33828,0.0010010000000000019
205000,4152,-7238,119115,-3754,-9988,125856,831,19138,3404,1,33829,0.0009989999999999999
206002,3619,9239,124694,15782,8758,113039,1013,19150,4149,0,33830,0.0010020000000000029
207003,160,8637,126700,-11103,-1665,129695,904,19150,4149,1,33831,0.0010010000000000019
208000,-5323,2300,124470,-7280,2667,119769,756,19136,3703,1,33832,0.0009969999999999979
209000,-4883,-2356,128359,3223,-5076,132940,756,19103,3096,0,33833,0.0010000000000000009
210002,-4809,7673,130102,-14119,7817,125844,1096,19118,4489,0,33834,0.0010020000000000029
211000,-1706,8394,129217,-8076,2894,126057,1006,19150,4120,1,33835,0.0009979999999999989
212000,8729,12,128633,6830,-6499,137076,732,19106,2998,0,33836,0.0010000000000000009
213000,525,-4694,130189,-4439,-6409,132273,758,19106,2998,0,33837,0.0010000000000000009
214000,-3760,-8471,131474,-11819,-11194,141485,1177,19100,3105,1,33838,0.0010000000000000009
215000,-5345,1698,136814,-3775,1083,135849,1177,19173,4821,1,33839,0.0010000000000000009
216000,8362,-5817,129370,13373,-12639,140643,829,19108,3395,0,33840,0.0010000000000000009
217000,-4031,14407,131362,-781,10141,119553,800,19099,3277,1,33841,0.0010000000000000009
218000,10125,-4489,128746,-29101,-11673,137343,674,19132,2761,1,33842,0.0010000000000000009
219000,8514,-6100,128258,40682,-5528,130523,965,19132,2761,0,33843,0.0010000000000000009
220000,-11367,6120,127330,1537,2488,121450,892,19114,3952,0,33844,0.0010000000000000009
221002,-2975,1676,122861,-37775,-1194,123492,892,19082,3653,1,33845,0.0010019999999999751
222000,3297,19384,125569,21132,11304,118929,621,19132,2543,0,33846,0.0009980000000000266
223000,16717,-6539,116719,12649,-8242,126345,836,19125,3424,0,33847,0.0010000000000000009
224000,-6849,27157,125103,-1839,25879,95401,972,19108,3981,1,33848,0.0009999999999999731
225000,3355,-2934,123882,-17109,-6290,129613,686,19108,3981,1,33849,0.0010000000000000009
226001,4702,-7359,121025,12619,-11340,123994,878,19115,2810,0,33850,0.0010010000000000019
227000,-1210,18870,127647,1351,12104,117594,878,19125,3596,1,33851,0.0009989999999999999
228002,-6749,7587,124776,-13066,5696,122129,996,19175,4079,1,33852,0.0010020000000000029
229000,-4960,-667,126909,-6683,-2636,136029,806,19080,3301,0,33853,0.0009979999999999989
230000,3421,-4135,129685,-10184,-6662,131124,840,19107,3440,0,33854,0.0010000000000000009
231000,-5175,12015,129221,13150,7221,118253,899,19107,3440,1,33855,0.0010000000000000009
232000,6793,3449,129863,-15461,-1703,141142,823,19160,3682,0,33856,0.0010000000000000009
233000,3825,-9596,133572,-10155,-7110,141085,880,19125,3371,0,33857,0.0010000000000000009
234002,-8108,-6362,131705,10778,-7079,138286,880,19089,3604,1,33858,0.0010020000000000029
235000,-1375,-3596,132424,-24098,1098,129870,858,19139,3514,1,33859,0.0009979999999999989
236000,-1312,7991,133969,17745,-3876,136531,960,19137,3932,0,33860,0.0010000000000000009
237002,11382,-17587,122305,-3826,-13789,135875,885,19137,3625,1,33861,0.0010020000000000029
238000,10701,21230,135745,16000,31289,111712,692,19130,3625,1,33862,0.0009979999999999989
239000,2239,2683,129893,24610,-14609,138729,1135,19109,2834,0,33863,0.0010000000000000009
240000,-11150,-16613,121802,-29255,-10284,123590,1135,19129,4649,0,33864,0.0010000000000000009
241000,-6625,1707,129692,-8951,-4547,133370,994,19136,4071,1,33865,0.0010000000000000009
242000,13619,13756,119637,25108,22711,105693,708,19105,2900,0,33866,0.0010000000000000009
243001,5111,36847,125953,-7455,26760,101348,738,19105,3023,0,33867,0.0010010000000000019
244000,7215,-11244,121390,944,-22300,139256,1121,19100,3023,1,33868,0.0009989999999999999
245000,-3069,-10800,117607,15084,-3825,116075,807,19148,4591,1,33869,0.0010000000000000009
246000,1155,15305,127192,-12722,13925,117489,807,19096,3305,0,33870,0.0010000000000000009
247000,1768,20466,127255,-2880,10686,118795,764,19102,3129,1,33871,0.0010000000000000009
248000,-8263,-5000,123753,45,-8764,130113,711,19135,2912,1,33872,0.0010000000000000009
249000,554,-4067,129707,-14859,-2916,134115,929,19114,3805,0,33873,0.0010000000000000009
250000,-6418,1964,129157,11739,-1559,125942,885,19114,3805,0,33874,0.0010000000000000009
251000,-3485,5267,128083,-7086,4499,124421,683,19085,3625,1,33875,0.0010000000000000009
252000,7858,8818,130751,-22035,453,135687,683,19136,2797,0,33876,0.0010000000000000009
253000,5143,-6668,131322,11868,-6023,139189,862,19133,3530,0,33877,0.0010000000000000009
254000,-5016,332,133142,-442,-741,130687,964,19067,3948,1,33878,0.0010000000000000009
255001,-8009,-3665,137622,-20638,-10893,143932,594,19115,2433,1,33879,0.0010009999999999741
256000,4054,-22111,129298,26083,-23759,144537,847,19115,2433,0,33880,0.0009990000000000276
257000,741,17973,132306,-16554,16936,116894,972,19125,3469,1,33881,0.0010000000000000009
258000,11538,5165,130942,-15760,1547,132811,972,19165,3981,1,33882,0.0010000000000000009
259000,1587,8919,130370,49511,6607,122990,788,19089,3227,0,33883,0.0010000000000000009
260000,-5424,-14709,121050,-24327,-19293,133536,896,19102,3670,0,33884,0.0010000000000000009
261000,-6124,14001,129173,-16126,16113,113316,1081,19170,4427,1,33885,0.0010000000000000009
262000,11400,11435,124883,24003,1360,127596,819,19170,4427,0,33886,0.0010000000000000009
263000,7048,-9761,117817,4063,-6258,119640,845,19127,3354,0,33887,0.0010000000000000009
264000,-5444,23611,127668,-10726,20617,105463,845,19096,3461,1,33888,0.0010000000000000009
265000,3865,-2708,119660,-6734,-6351,129159,949,19151,3887,1,33889,0.0010000000000000009
266000,3887,12737,124340,17035,10695,110062,896,19121,3670,0,33890,0.0010000000000000009
267001,738,6287,124351,-8945,-557,128461,867,19112,3551,1,33891,0.0010009999999999741
268000,-6439,4626,123907,-11852,4522,117616,611,19112,3551,1,33892,0.0009989999999999721
269000,1627,-1553,129332,-47,-4549,130391,1089,19118,2502,0,33893,0.0010000000000000009
270000,-4619,-4230,129420,-1414,-5240,136190,1089,19140,4460,0,33894,0.0010000000000000009
271000,-2076,11126,128515,-8944,6872,120050,948,19130,3883,1,33895,0.0010000000000000009
272000,4017,1239,130392,-6171,-3910,136802,683,19115,2797,0,33896,0.0010000000000000009
273000,6135,3063,134220,-1115,1554,131995,803,19101,3289,0,33897,0.0010000000000000009
274000,-6915,-17542,131471,-5113,-20330,145751,1061,19101,3289,1,33898,0.0010000000000000009
275002,-1151,-1927,135441,-9169,-5113,135547,775,19140,4346,1,33899,0.0010020000000000029
276000,-606,118,130618,21644,-3830,138423,775,19089,3174,0,33900,0.0009979999999999989
277000,3733,-3857,125599,-18093,-11103,123600,721,19108,2953,1,33901,0.0010000000000000009
278003,14377,17284,135072,-12605,15315,126079,756,19139,3096,1,33902,0.0010030000000000316
279000,698,-5153,126096,49164,-5447,130474,900,19091,3686,0,33903,0.0009969999999999701
280000,-7972,-3437,126964,-28664,-4259,122606,850,19091,3481,0,33904,0.0010000000000000009
281000,-5630,-4693,127784,-18266,-11042,136644,805,19090,3481,1,33905,0.0010000000000000009
282000,13180,10499,120677,28733,21660,103747,914,19150,3297,0,33906,0.0010000000000000009
283000,2547,29900,126261,1013,18232,110784,914,19146,3743,0,33907,0.0010000000000000009
284000,2172,-6824,119875,-10646,-14012,129657,940,19074,3850,1,33908,0.0010000000000000009
285000,283,-1461,118775,10517,3727,114546,728,19120,2982,1,33909,0.0010000000000000009
286002,-424,15859,127685,-9506,11995,120130,918,19120,3760,0,33910,0.0010020000000000029
287002,5552,13817,126112,-2706,2995,119083,936,19131,3760,1,33911,0.0010000000000000009
288002,-10020,-8195,125029,5839,-11988,133171,776,19159,3834,1,33912,0.0010000000000000009
289000,669,-5550,127993,-18358,-639,130388,776,19094,3178,0,33913,0.0009979999999999989
290000,-3896,9998,131118,7596,4398,124867,935,19106,3829,0,33914,0.0010000000000000009
291000,-4644,7328,129538,-4480,3905,127408,1061,19170,4346,1,33915,0.0010000000000000009
292000,7413,4754,130447,-21641,-3277,134997,764,19170,3129,0,33916,0.0010000000000000009
293000,-309,-8097,133539,7689,-7809,141572,821,19125,3129,0,33917,0.0010000000000000009
294000,-1377,-9699,132396,2064,-11052,137416,1128,19101,3363,1,33918,0.0010000000000000009
295000,-10787,-4606,134567,-13631,-7593,138900,1128,19165,4620,1,33919,0.0010000000000000009
296000,8905,-2233,130540,17043,-449,131685,871,19119,3567,0,33920,0.0010000000000000009
297000,443,12059,128280,-14693,6181,125946,849,19102,3477,1,33921,0.0010000000000000009
298000,15663,157,130413,-5569,5495,125989,578,19124,2367,1,33922,0.0010000000000000009
299000,173,5302,132024,47759,-3769,131918,1018,19124,2367,0,33923,0.0010000000000000009
300000,-5124,-23252,120976,-31421,-21589,132419,941,19139,4169,0,33924,0.0010000000000000009
301000,-6862,15771,131347,-12033,16107,115840,941,19109,3854,1,33925,0.0010000000000000009
302000,10457,7369,122531,21816,1282,128120,640,19123,2621,0,33926,0.0010000000000000009
303000,9760,17262,120495,-1353,22347,99128,840,19114,3440,0,33927,0.0010000000000000009
304001,-5674,10828,124107,-2836,1961,123532,1019,19127,4174,1,33928,0.0010009999999999741
305000,7721,-10255,117628,-3150,-9896,124327,747,19127,4174,1,33929,0.0009990000000000276
306000,-1318,16484,127985,11296,13082,113751,813,19101,3059,0,33930,0.0010000000000000009
307000,1759,3904,125929,-11248,-2434,130173,813,19109,3330,1,33931,0.0010000000000000009
308000,-6066,1009,124610,-3200,973,119030,882,19154,3612,1,33932,0.0010000000000000009
309000,-3312,-5401,128534,26,-7178,134414,845,19078,3461,0,33933,0.0010000000000000009
310000,225,10188,130194,-12159,9551,123748,749,19097,3068,0,33934,0.0010000000000000009
311000,-6131,12473,130926,-1461,7660,125024,792,19097,3068,1,33935,0.0010000000000000009
312000,7389,-3989,130782,-5184,-8943,140227,867,19149,3244,0,33936,0.0010000000000000009
313000,-5186,-8454,131267,-3959,-8760,133133,867,19137,3551,0,33937,0.0010000000000000009
314000,-1680,-7843,133089,-4964,-10358,141510,904,19084,3703,1,33938,0.0010000000000000009
315000,-3790,-121,135752,-7601,-1543,135497,739,19127,3027,1,33939,0.0010000000000000009
316000,10185,-1129,129487,16481,-6668,138070,1028,19144,4210,0,33940,0.0010000000000000009
317000,-1871,13618,131074,-1909,9949,120152,910,19144,4210,1,33941,0.0010000000000000009
318001,11082,-4907,129953,-30641,-5904,132648,735,19134,3727,1,33942,0.0010009999999999741
319000,4262,-8705,129490,46796,-10657,136786,735,19097,3010,0,33943,0.0009990000000000276
320000,-10678,-3893,124936,-4085,-5057,123924,1011,19112,4141,0,33944,0.0010000000000000009
321000,-5320,14234,126792,-37734,8860,118171,1029,19142,4214,1,33945,0.0010000000000000009
322000,8168,16711,124585,24318,13067,119629,741,19106,3035,0,33946,0.0010000000000000009
323000,14136,-6130,116639,11880,-8281,108228,754,19106,3035,0,33947,0.0010000000000000009
324000,-8608,21862,125727,-1055,20098,113088,1183,19096,3088,1,33948,0.0010000000000000009
325000,5348,-6285,121380,-20685,-6687,131633,1183,19167,4845,1,33949,0.0010000000000000009
326000,2558,3639,124210,13994,-3039,116697,836,19117,3424,0,33950,0.0010000000000000009
327000,705,12119,127955,709,582,125985,815,19106,3338,1,33951,0.0010000000000000009
328000,-6655,2189,123937,-12594,4053,118031,626,19130,2564,1,33952,0.0009999999999999454
329000,-2704,-1612,128530,-3706,-8579,136970,983,19130,4026,0,33953,0.0010000000000000009
330002,4871,-3221,129515,-12116,-201,129044,914,19109,4026,1,33954,0.0010020000000000029
331000,-7818,17787,130726,-8179,12946,119044,557,19076,3743,1,33955,0.0009979999999999989
332000,4904,1376,131829,-19354,-9995,142627,557,19129,2281,0,33956,0.0010000000000000009
333000,1129,-11239,133320,8279,-9802,140127,803,19124,3289,0,33957,0.0010000000000000009
334000,-7245,-9374,132747,-1800,-11497,141658,993,19099,4067,1,33958,0.0010000000000000009
335000,-648,-8553,131513,-5993,-1836,129968,694,19099,2842,1,33959,0.0010000000000000009
336000,496,13664,134156,9563,4567,132594,850,19108,2842,0,33960,0.0010000000000000009
337000,12631,-13271,124490,-19881,-11039,134761,1013,19118,3481,1,33961,0.0010000000000000009
338000,9034,23345,137199,14713,30764,111422,1013,19176,4149,1,33962,0.0010000000000000009
339000,3266,-4598,129116,23046,-20898,142987,812,19080,3326,0,33963,0.0010000000000000009
340000,-11362,-18913,122918,-24100,-12208,123313,790,19101,3236,0,33964,0.0010000000000000009
341000,-4652,5699,130871,-11960,-912,130448,936,19154,3834,1,33965,0.0010000000000000009
342000,13319,15127,122053,24688,21329,108486,834,19154,3834,0,33966,0.0010000000000000009
343000,3319,36467,126339,-4896,28779,99214,875,19121,3416,0,33967,0.0010000000000000009
344000,6513,-15484,119074,1735,-23871,140306,875,19089,3584,1,33968,0.0010000000000000009
345000,-2103,-6132,118536,9850,-1095,113732,867,19141,3551,1,33969,0.0010000000000000009
346000,3775,15826,128266,-10249,11444,119870,972,19136,3981,0,33970,0.0010000000000000009
347000,1261,11989,126721,2507,5818,122356,883,19123,3617,1,33971,0.0010000000000000009
348003,-6927,-7163,123882,-4065,-8582,127798,684,19123,3617,1,33972,0.0010030000000000316
349000,-961,-710,129392,-15946,920,132198,1138,19112,2801,0,33973,0.0009969999999999701
350000,-3547,6014,129109,8879,1668,124658,1138,19127,4661,1,33974,0.0010000000000000009
351003,-4810,5404,128073,-450,2990,126899,980,19138,4014,1,33975,0.0010030000000000316
352002,4503,6005,132624,-25353,997,134170,712,19106,2916,0,33976,0.0009989999999999721
353000,4369,-10139,132140,6353,-9707,140032,742,19110,3039,0,33977,0.0009979999999999989
354000,-6361,-1689,134392,9961,-2207,132405,1102,19110,3039,1,33978,0.0010000000000000009
355000,-2268,-5161,137373,-26305,-9879,143107,830,19158,4513,1,33979,0.0010000000000000009
356000,1494,-15493,129985,24311,-18363,142676,830,19097,3399,0,33980,0.0010000000000000009
357000,85,19206,132495,-9389,16976,116938,764,19102,3129,1,33981,0.0010000000000000009
358000,12418,2117,130389,-23801,865,131706,772,19134,3162,1,33982,0.0010000000000000009
359000,-705,5147,130988,52125,2745,125930,940,19109,3850,0,33983,0.0010000000000000009
360000,-3284,-19070,119811,-18647,-21898,134362,899,19109,3850,1,33984,0.0010000000000000009
361000,-9189,17903,130405,-21884,15678,112682,727,19090,3682,1,33985,0.0010000000000000009
362002,12073,11590,125558,21463,6356,126721,727,19136,2978,0,33986,0.0010020000000000029
363002,5506,-5668,118021,9220,-4874,118793,889,19127,3641,0,33987,0.0010000000000000009
364000,-4478,22811,127899,-11124,20974,104665,965,19073,3952,1,33988,0.0009979999999999989
365000,4710,-7630,119048,-8626,-9918,130290,594,19115,2433,1,33989,0.0010000000000000009
366000,2824,10047,123973,19081,5571,112242,871,19115,2433,0,33990,0.0010000000000000009
367000,2095,6573,127737,-11175,3189,127682,965,19125,3567,1,33991,0.0010000000000000009
368001,-6923,5091,124927,-9456,5429,118745,965,19174,3952,1,33992,0.0010009999999999741
369000,60,4,129332,-316,-1024,139455,795,19091,3256,0,33993,0.0009990000000000276
370000,-3122,-4405,129129,-4394,-6151,125394,907,19111,3715,1,33994,0.0010000000000000009
371000,-3425,11013,128849,-2554,5745,125439,1090,19171,4464,1,33995,0.0010000000000000009
372000,4082,3532,133815,-9105,-186,138482,804,19171,3293,0,33996,0.0010000000000000009
373000,4352,-5206,134051,-3681,-5459,138013,854,19122,3293,0,33997,0.0010000000000000009
374000,-7139,-12730,132631,-1562,-14517,143588,976,19094,3498,1,33998,0.0010000000000000009
375000,-2220,-8836,132835,-10149,-736,129345,976,19148,3997,0,33999,0.0010000000000000009
376000,75,8228,131119,19605,-3510,137224,916,19126,3752,0,34000,0.0010000000000000009
377000,8386,-8187,127016,-16805,-37,127230,866,19119,3547,1,34001,0.0010000000000000009
378000,12453,26267,138253,26640,24513,115568,653,19119,2674,1,34002,0.0010000000000000009
379003,2314,-7253,126286,12305,-19863,137710,1125,19118,2674,0,34003,0.0010029999999999761
380002,-9664,-12357,126983,-28504,-10149,124313,968,19148,4608,1,34004,0.0009990000000000276
381002,-2501,-5468,127318,302,-10981,137138,968,19124,3965,1,34005,0.0010000000000000009
382000,9497,18989,123667,20815,32151,97847,706,19114,2892,0,34006,0.0009979999999999989
383000,3556,37595,128953,-10772,21680,108836,769,19108,3150,0,34007,0.0010000000000000009
384000,4365,-18831,117265,2543,-24763,136500,1084,19108,4440,1,34008,0.0010000000000000009
385000,751,-5126,118998,13419,219,114170,785,19131,4440,0,34009,0.0010000000000000009
386000,686,14559,126428,-13438,11454,118632,716,19085,3215,0,34010,0.0010000000000000009
387000,1068,17369,129100,-8382,10748,116992,716,19106,2933,1,34011,0.0009999999999999454
388000,-1500,-6509,126738,7901,-11419,135720,743,19139,3043,1,34012,0.0010000000000000009
389000,-5611,-5982,127227,-4967,-2567,130565,897,19100,3674,0,34013,0.0010000000000000009
390001,-2875,3119,128504,-12186,-1331,124787,854,19093,3498,1,34014,0.0010010000000000296
391000,-1909,6900,130320,72,5608,128452,773,19093,3498,1,34015,0.0009989999999999721
392000,7518,8842,135128,-6544,2792,133651,921,19144,3166,0,34016,0.0010000000000000009
393000,1416,-11972,132966,-5144,-11473,142228,921,19142,3772,0,34017,0.0010000000000000009
394005,-9953,-8248,133630,4055,-8794,135167,944,19078,3866,1,34018,0.0010050000000000336
395000,-1319,-7544,133920,-12515,-12148,141872,617,19122,2527,0,34019,0.0009949999999999681
396000,3264,-2758,130324,17096,-2669,132671,886,19126,3629,0,34020,0.0010000000000000009
397000,3782,17974,134270,-11339,13719,122603,945,19126,3629,1,34021,0.0010000000000000009
398000,11805,-5181,128534,-9008,-2542,130143,759,19156,3870,1,34022,0.0010000000000000009
399000,-2767,6724,133144,44212,3075,127191,759,19097,3109,0,34023,0.0010000000000000009
400000,403,-25445,120237,-21744,-28436,138334,936,19103,3834,1,34024,0.0010000000000000009
401000,-11316,14932,128716,-14004,15899,112110,1084,19178,4440,1,34025,0.0010000000000000009
402001,11848,14178,127182,14444,9848,125214,793,19114,3248,0,34026,0.0010010000000000296
403000,6847,8189,120094,3889,11559,108256,818,19114,3248,0,34027,0.0009989999999999721
404000,-4524,14920,125376,-1508,11019,113691,1046,19094,3350,1,34028,0.0010000000000000009
405000,7449,-14324,117596,-7907,-16665,132272,1046,19153,4284,0,34029,0.0010000000000000009
406000,601,16281,125585,12248,13314,109143,887,19113,3633,0,34030,0.0010000000000000009
407000,2636,6074,129847,-6730,2874,129641,851,19092,3485,1,34031,0.0010000000000000009
408000,-6382,-1592,125324,-9915,92,121241,563,19120,2306,1,34032,0.0010000000000000009
409000,-668,-1808,129849,-435,-4076,131559,1044,19120,2306,0,34033,0.0010000000000000009
410000,-913,1692,128922,-1473,538,130901,929,19123,4276,1,34034,0.0010000000000000009
411000,-5543,16238,130896,-6985,11907,118563,929,19112,3805,1,34035,0.0010000000000000009
412000,2413,-8167,133727,-10185,-10304,142971,693,19113,2838,0,34036,0.0010000000000000009
413000,-2167,-1541,134641,154,-2254,132515,842,19110,3449,0,34037,0.0010000000000000009
414000,-3901,-11356,132511,-2232,-12909,143054,1038,19128,4251,1,34038,0.0010000000000000009
415000,-616,-3256,135750,-13228,-6055,135453,760,19128,3113,0,34039,0.0010000000000000009
416000,6317,1043,128824,22350,-4527,133526,781,19091,3113,0,34040,0.0010000000000000009
417000,-580,4114,130712,-763,1057,123934,822,19110,3199,1,34041,0.0010000000000000009
418000,18036,4080,133860,-34957,5025,128439,822,19153,3367,1,34042,0.0010000000000000009
419000,-919,-1834,129303,51557,-7264,133013,856,19073,3506,0,34043,0.0010000000000000009
420002,-4868,-9266,122781,-4983,-8060,119856,780,19087,3195,1,34044,0.0010020000000000029
421000,-9746,7804,128464,-37475,4354,126432,819,19087,3354,1,34045,0.0009979999999999989
422000,10837,6282,123736,27858,3893,118244,881,19145,3354,0,34046,0.0010000000000000009
423001,10153,17060,122203,6555,23816,101365,910,19139,3608,0,34047,0.0010009999999999741
424000,-7501,14668,125469,-4467,336,124466,910,19079,3727,1,34048,0.0009990000000000276
425000,8377,-13618,118002,244,-14923,125537,791,19126,3240,0,34049,0.0010000000000000009
426000,-2784,9239,124839,3605,12405,117472,1008,19141,4128,0,34050,0.0010000000000000009
427000,4008,11354,130611,-8848,2426,122880,909,19141,3723,1,34051,0.0010000000000000009
428000,-5114,-2264,124871,1560,-2375,123459,743,19148,3723,1,34052,0.0010000000000000009
429000,-1715,-4908,129101,-14520,-7205,137844,949,19106,3043,0,34053,0.0010000000000000009
430001,4348,1105,128868,3723,2215,124657,949,19118,3887,1,34054,0.0010009999999999741
431000,-10163,17611,130281,-2645,11302,121429,1041,19169,4264,1,34055,0.0009990000000000276
432000,6707,-2875,134479,-17402,-11184,141608,772,19114,3162,0,34056,0.0010000000000000009
433000,-3936,-8884,135148,8371,-6524,139079,793,19114,3248,0,34057,0.0010000000000000009
434000,-3728,-9402,133424,-3723,-12563,142178,1105,19096,3248,1,34058,0.0010000000000000009
435000,312,-4652,134370,-8922,-3243,132306,866,19161,4526,0,34059,0.0010000000000000009
436001,868,3814,131086,15999,-1037,131992,866,19123,3547,0,34060,0.0010009999999999741
437000,7492,-4475,129355,-23504,-4239,132456,840,19098,3440,1,34061,0.0009990000000000276
438000,18308,17756,137493,6361,23060,115383,576,19126,2359,1,34062,0.0010000000000000009
439000,-2883,2219,130744,41190,-8957,137568,1013,19121,4149,0,34063,0.0010000000000000009
440001,-8218,-21219,120628,-39841,-19362,125207,927,19121,4149,1,34064,0.0010009999999999741
441000,-8067,9169,131717,-8771,3611,126630,588,19084,3797,1,34065,0.0009990000000000276
442000,11328,5304,123011,30020,7120,118475,588,19121,2408,0,34066,0.0010000000000000009
443000,6320,29483,124729,-3035,30212,96168,799,19120,3272,0,34067,0.0010000000000000009
444000,-3786,-1741,122973,-6959,-8641,133068,1020,19113,4178,1,34068,0.0010000000000000009
445000,7342,-8795,117558,1074,-7370,118934,728,19106,2982,0,34069,0.0010000000000000009
446000,-1365,17510,127278,6762,12376,118379,799,19106,2982,0,34070,0.0010000000000000009
447000,2773,1210,127892,-9042,-1867,125949,865,19112,3272,1,34071,0.0009999999999999454
448000,-1093,-6058,124118,-2128,-5288,123513,865,19157,3543,1,34072,0.0010000000000000009
449002,-434,-1761,129394,282,-2594,135587,852,19070,3490,0,34073,0.0010020000000000029
450000,684,12140,129345,-8908,10363,120777,754,19098,3088,1,34074,0.0009979999999999989
451000,-5069,8714,130697,-10611,3245,129388,846,19149,3465,1,34075,0.0010000000000000009
452002,3902,-5446,134434,1474,-7503,137942,845,19149,3465,0,34076,0.0010020000000000029
453002,-4475,-13142,132015,-4296,-12978,137277,899,19134,3461,0,34077,0.0010000000000000009
454000,-5267,-6190,135382,-7824,-7441,140156,899,19086,3682,1,34078,0.0009979999999999989
455000,4478,3056,137239,477,1092,135993,832,19127,3408,0,34079,0.0010000000000000009
456000,2077,-4748,126893,15769,-10242,135510,1007,19147,4124,0,34080,0.0010000000000000009
457000,-2610,18549,136262,-16271,18171,117484,908,19133,3719,1,34081,0.0010000000000000009
458000,15176,-18411,128199,-15346,-17928,142252,714,19133,3719,1,34082,0.0010000000000000009
459000,-3273,520,130276,54243,-872,128616,978,19106,2924,0,34083,0.0010000000000000009
460000,-1122,-4243,122839,-24538,-5775,125336,978,19119,4006,1,34084,0.0010000000000000009
461000,-4494,20136,127193,-23022,13774,115404,1018,19149,4169,1,34085,0.0010000000000000009
462000,11394,2547,126008,28751,4077,125472,742,19093,3039,0,34086,0.0010000000000000009
463000,7160,-3404,118954,1173,-5848,102035,721,19098,2953,0,34087,0.0010000000000000009
464000,-6960,27813,129191,-4682,27721,117632,1158,19098,4743,1,34088,0.0010000000000000009
465000,8486,-9991,120002,-10426,-9470,128825,830,19179,4743,0,34089,0.0010000000000000009
466000,174,8947,124180,12113,1032,118420,799,19113,3399,0,34090,0.0010000000000000009
467000,-1742,2980,129679,-3109,-3038,125773,799,19099,3272,1,34091,0.0010000000000000009
468000,-5707,4512,126199,-12033,3368,118543,679,19132,2781,1,34092,0.0010000000000000009
469000,2589,-1132,129456,-6579,-6368,138822,955,19102,3911,0,34093,0.0010000000000000009
470000,627,-143,129595,5180,4026,124049,903,19102,3698,1,34094,0.0010000000000000009
471001,-7145,15412,129381,-1814,3759,124521,556,19079,3698,1,34095,0.0010010000000000296
472000,1442,-5762,136216,-5781,-12186,143649,843,19130,2277,0,34096,0.0009989999999999721
473000,2541,-10360,134212,11218,-11165,138902,843,19125,3453,0,34097,0.0010000000000000009
474000,-8316,-8361,133677,-18185,-9765,140083,981,19108,4018,1,34098,0.0010000000000000009
475000,2172,-842,134557,2764,6260,125350,690,19104,2826,0,34099,0.0010000000000000009
476003,1887,9288,130805,1931,-6594,139920,874,19126,3580,0,34100,0.0010029999999999761
477003,13289,-12716,128240,-18962,-2163,125602,995,19126,3580,1,34101,0.0010000000000000009
478000,12328,29720,142399,23935,21469,119275,822,19173,4075,1,34102,0.0009970000000000256
479000,883,-18128,125188,8064,-26765,141808,822,19080,3367,0,34103,0.0010000000000000009
480000,-13318,-6143,128522,-26580,-3273,118879,848,19098,3473,1,34104,0.0010000000000000009
481000,-3356,0,126448,-1078,-7718,136915,1016,19166,4161,1,34105,0.0010000000000000009
482002,8806,22821,125220,24663,31234,95133,817,19129,3346,0,34106,0.0010020000000000029
483000,2686,26749,127604,-8402,13847,113686,879,19129,3346,0,34107,0.0009979999999999989
484001,4684,-21833,117315,2094,-21490,134719,892,19091,3600,1,34108,0.0010009999999999741
485000,647,4706,122394,6489,6846,111092,892,19140,3653,0,34109,0.0009990000000000276
486000,4956,12679,125916,-12389,7105,123892,950,19138,3891,0,34110,0.0010000000000000009
487000,951,7477,127135,7492,3326,118891,883,19134,3617,1,34111,0.0010000000000000009
488000,-2439,-9471,125366,-10364,-9695,132432,694,19115,2842,1,34112,0.0010000000000000009
489000,988,4237,129403,-16415,5371,128475,1121,19115,2842,0,34113,0.0010000000000000009
490000,-2289,1183,127743,19173,-3509,128658,980,19126,4591,1,34114,0.0010000000000000009
491000,-4076,7989,128381,-18565,4869,125612,980,19133,4014,1,34115,0.0010000000000000009
492002,4655,3017,136454,-16679,-897,135451,700,19110,2867,0,34116,0.0010020000000000029
493000,6240,-10926,133108,20183,-9950,140515,737,19103,3019,0,34117,0.0009979999999999989
494000,-9308,-643,136538,-8833,-2257,132950,1109,19149,4542,1,34118,0.0010000000000000009
495000,357,-11724,136618,-17557,-16801,148466,801,19149,4542,0,34119,0.0010000000000000009
496000,-2753,-6909,128769,27317,-8536,132433,762,19098,3281,0,34120,0.0010000000000000009
497000,-776,17504,133881,-21947,14565,120156,762,19105,3121,1,34121,0.0010000000000000009
498000,17510,-2071,130989,-5966,-833,132913,759,19139,3109,1,34122,0.0010000000000000009
499002,714,4392,129837,50748,2088,124774,914,19112,3743,0,34123,0.0010020000000000029
500002,2313,-19004,119721,-24634,-21268,134314,885,19083,3625,1,34124,0.0009999999999999454
501001,-9044,28123,132485,-19454,24009,107578,689,19083,3625,1,34125,0.0009990000000000832
502000,11223,-6463,123896,24932,-8333,135820,942,19132,2822,0,34126,0.0009989999999999721
503000,1866,7069,121300,2659,7901,108926,942,19132,3858,0,34127,0.0010000000000000009
504000,-3818,19620,127480,-13443,18917,110791,948,19077,3883,1,34128,0.0010000000000000009
505001,10512,-7174,117707,1339,-8942,128527,591,19118,2421,0,34129,0.0010009999999999186
506000,1032,12662,124374,10827,7596,112375,902,19125,3694,0,34130,0.0009990000000000832
507000,693,-877,128870,-10373,-1422,131223,962,19125,3940,1,34131,0.0010000000000000009
508000,-3108,6657,127371,-5427,8388,114903,783,19175,3940,1,34132,0.0010000000000000009
509000,-728,-6610,129453,-3648,-7614,135468,950,19082,3207,0,34133,0.0010000000000000009
510000,-2046,751,128971,2295,-1675,121575,950,19106,3891,1,34134,0.0010000000000000009
511000,-5629,11518,128766,-10990,6483,129186,1055,19171,4321,1,34135,0.0010000000000000009
512000,2652,3558,137893,-7731,2492,136521,824,19123,3375,0,34136,0.0010000000000000009
513002,3961,-9351,133625,-3745,-8392,141244,842,19123,3449,0,34137,0.0010019999999999474
514002,-8076,-12936,134776,2737,-10801,141599,943,19094,3449,1,34138,0.0010000000000000009
515000,1742,-5702,134117,-3020,-388,129343,910,19144,3862,0,34139,0.0009980000000000544
516003,-1156,8800,130719,12441,-3421,137029,910,19118,3727,0,34140,0.0010029999999999761
517002,11211,-1469,130871,-14512,4732,121974,847,19102,3469,1,34141,0.0009989999999999721
518000,15276,22104,138683,-1459,12706,122345,613,19117,2511,1,34142,0.0009980000000000544
519000,1357,-12072,127206,2306,-21704,136974,1093,19117,4477,0,34143,0.0010000000000000009
520000,-8729,-12114,128108,-27139,-11069,125208,962,19151,4477,1,34144,0.0010000000000000009
521001,-3548,537,127001,7731,-3302,132639,670,19119,3940,1,34145,0.0010009999999999186
522000,9174,23234,126635,21278,29686,98088,670,19118,2744,0,34146,0.0009990000000000832
523001,547,24869,126543,-12506,10972,114360,800,19106,3277,0,34147,0.0010009999999999186
524003,4433,-18325,117492,-2217,-19744,131071,1061,19137,4346,1,34148,0.0010020000000000584
525000,4343,1460,120929,13507,6089,113892,768,19091,3146,0,34149,0.0009970000000000256
526000,2043,14407,124707,-10177,8472,119854,724,19091,3146,0,34150,0.0010000000000000009
527000,1578,8849,127233,-4590,5205,118299,759,19109,2965,1,34151,0.0010000000000000009
528000,-1055,-3754,127370,-8362,-7883,133997,759,19144,3109,1,34152,0.0010000000000000009
529000,4865,-4183,127831,-3807,-2494,131443,889,19094,3641,0,34153,0.0010000000000000009
530000,-6544,-2858,127062,13087,-6307,127470,834,19088,3416,1,34154,0.0010000000000000009
531000,-3198,7322,128459,-33339,3710,127450,798,19149,3268,1,34155,0.0010000000000000009
532000,6096,10673,138649,-1544,6343,134012,892,19149,3268,0,34156,0.0010000000000000009
533000,3508,-4173,134939,21125,-6329,139096,934,19146,3653,0,34157,0.0010000000000000009
534000,-11305,-10475,133167,-20932,-13273,135246,934,19073,3825,1,34158,0.0010000000000000009
535000,-936,-15496,134227,-507,-17316,144367,693,19133,2838,0,34159,0.0010000000000000009
536000,942,5648,131637,7096,1374,131200,918,19134,3760,0,34160,0.0009999999999998899
537000,10841,12478,134800,-24435,10342,122006,932,19143,3817,1,34161,0.0010000000000000009
538000,7307,19140,138674,29121,17081,123637,752,19143,3817,1,34162,0.0010000000000000009
539000,-4392,-22981,122633,6531,-28955,139556,922,19092,3080,0,34163,0.0010000000000000009
540000,-5555,-11930,126734,-26498,-10971,127096,922,19110,3776,1,34164,0.0010000000000000009
541000,-2535,14614,128119,7946,9154,122911,1065,19164,4362,1,34165,0.0010000000000000009
542000,8999,19224,123853,13721,19376,106536,769,19104,3150,0,34166,0.0010000000000000009
543001,1098,19420,127510,-5824,17384,111953,791,19094,3240,0,34167,0.0010010000000000296
544000,5056,-19579,116540,-2283,-20950,132738,1125,19094,3240,1,34168,0.0009989999999999721
545000,2924,8453,122311,14100,8296,109563,867,19167,4608,0,34169,0.0010000000000000009
546000,3366,13755,126661,-11615,7690,123106,867,19117,3551,0,34170,0.0010000000000000009
547001,-1004,1198,125998,-6051,-261,123196,838,19097,3432,1,34171,0.0010010000000000296
548002,312,-480,128200,3466,513,127460,583,19125,2388,1,34172,0.0010010000000000296
549003,2023,-1856,126757,-8950,-3308,131438,1014,19121,4153,0,34173,0.0010010000000000296
550000,-3573,4901,127738,3678,3030,122535,918,19121,3760,1,34174,0.0009969999999999146
551002,130,5037,129634,-13950,-834,133130,626,19103,3760,1,34175,0.0010020000000000584
552000,1452,5688,137057,-4567,4318,130524,626,19121,2564,0,34176,0.0009979999999999434
553002,678,-5756,135700,-1318,-4470,139581,801,19118,3281,0,34177,0.0010020000000000584
554000,-12721,-17886,132689,-3128,-20024,142251,1018,19122,4169,1,34178,0.0009979999999999434
555000,7623,287,136639,-6197,-2047,134984,742,19099,3039,0,34179,0.0010000000000000009
556000,-1499,-1405,129412,18507,-8214,139036,816,19099,3342,0,34180,0.0010000000000000009
557000,4428,16256,134211,-14558,14080,121330,884,19116,3342,1,34181,0.0010000000000000009
558000,23673,2622,133315,-13598,3231,131812,851,19156,3621,1,34182,0.0010000000000000009
559000,-8363,-4066,129924,54581,-3588,128806,851,19071,3485,0,34183,0.0010000000000000009
560002,168,-18758,122899,-28384,-21121,131210,756,19098,3096,1,34184,0.0010020000000000584
561000,-13065,12207,129750,-18411,12606,118964,877,19149,3592,1,34185,0.0009979999999999434
562000,12919,18368,125960,23566,14281,110424,856,19149,3506,0,34186,0.0010000000000000009
563000,3630,20504,123368,-4205,16768,106355,906,19136,3506,0,34187,0.0010000000000000009
564000,-2405,-870,122924,979,-12802,130047,852,19076,3711,1,34188,0.0010000000000000009
565000,8956,-14646,117779,-1255,-7828,119257,852,19131,3490,0,34189,0.0010000000000000009
566000,-5641,20138,127915,-8266,17043,116048,1007,19142,4124,0,34190,0.0010000000000000009
567001,7020,8829,130849,-3761,-1663,126900,891,19137,3649,1,34191,0.0010010000000000296
568000,-6841,-8234,123930,5546,-10254,127816,735,19137,3010,1,34192,0.0009989999999999721
569001,2071,-4186,128056,-28228,-1481,132372,1013,19103,3010,0,34193,0.0010010000000000296
570000,1450,6554,128049,8771,6471,121642,1014,19120,4149,1,34194,0.0009989999999999721
571000,-1873,15971,130643,-2426,5101,127676,1014,19146,4153,1,34195,0.0010000000000000009
572000,6141,-4783,135396,-12216,-11971,141632,728,19105,2982,0,34196,0.0010000000000000009
573000,-5041,-7977,135858,4518,-9496,137595,734,19099,3006,0,34197,0.0010000000000000009
574000,-5150,-14432,133145,-5754,-14598,142345,1161,19171,4755,1,34198,0.0010000000000000009
575000,-731,-620,135628,-9603,-5061,135867,832,19171,4755,0,34199,0.0010000000000000009
576000,2100,-1457,129001,17892,-1977,130163,816,19112,3408,0,34200,0.0010000000000000009
577000,3133,15965,133053,-24209,9682,123043,816,19099,3342,1,34201,0.0010000000000000009
578000,21216,2835,133026,10969,4717,126356,700,19137,2867,1,34202,0.0010000000000000009
579000,-6779,-1284,129938,39956,-9108,133813,958,19121,3924,0,34203,0.0010000000000000009
580000,-682,-23648,118796,-47473,-22358,129581,910,19082,3727,1,34204,0.0010000000000000009
581000,-9549,22004,132878,1397,19059,116124,570,19082,3727,1,34205,0.0010000000000000009
582001,14731,6582,123275,25702,1446,123778,866,19129,2335,0,34206,0.0010010000000000296
583000,4286,20763,122781,976,23948,98738,866,19128,3547,0,34207,0.0009989999999999721
584000,-4058,4703,124613,-12730,-2184,126857,980,19103,4014,1,34208,0.0010000000000000009
585000,13043,-12139,117327,460,-11591,122746,691,19111,2830,0,34209,0.0010000000000000009
586001,-6314,19597,128661,11679,14380,115200,881,19117,3608,0,34210,0.0010010000000000296
587001,1342,-3125,127383,-18587,-7152,131346,1001,19117,3608,1,34211,0.0010000000000000009
588000,-3668,1727,125511,2822,2641,119183,812,19177,4100,1,34212,0.0009989999999999721
589000,3536,-204,129371,-4966,-1225,135039,812,19083,3326,0,34213,0.0010000000000000009
590000,1159,9343,128078,-7206,7843,121498,857,19095,3510,1,34214,0.0010000000000000009
591002,-4832,9660,131352,-5866,1878,128968,906,19158,3711,1,34215,0.0010020000000000584
592000,4100,-12269,133765,-300,-14826,140731,824,19122,3375,0,34216,0.0009979999999999434
593000,-6886,-1597,135341,333,-437,131988,873,19122,3375,0,34217,0.0010000000000000009
594002,949,-11024,134057,-14051,-13344,147537,859,19083,3576,1,34218,0.0010019999999999474
595000,-145,2320,136353,148,-46,130528,859,19140,3518,0,34219,0.0009980000000000544
596000,6748,-2583,128395,15064,-8194,136189,960,19138,3932,0,34220,0.0010000000000000009
597000,-6303,11564,132887,-5599,9265,123376,889,19129,3641,1,34221,0.0010000000000000009
598000,20288,-11904,128449,-20964,-12273,135416,689,19110,2822,1,34222,0.0010000000000000009
599001,198,9192,131534,44517,7915,126486,1147,19110,2822,0,34223,0.0010010000000000296
600000,-4546,-4534,122151,-7626,-6463,124382,990,19135,4698,1,34224,0.0009989999999999721
601000,-5785,10282,127996,-33141,3358,121370,990,19133,4055,1,34225,0.0010000000000000009
602000,7148,-2851,125290,25828,-2424,129125,708,19110,2900,0,34226,0.0010000000000000009
603000,11477,14176,121037,4248,10494,94070,744,19104,3047,0,34227,0.0010000000000000009
604000,-8201,26403,128438,-3136,30048,123996,1099,19144,4501,1,34228,0.0010000000000000009
605000,11257,-22507,116420,-7530,-23024,130563,823,19144,3371,0,34229,0.0010000000000000009
606000,-3592,10273,123724,5367,102,114717,766,19089,3371,0,34230,0.0010000000000000009
607000,1166,14474,131548,-4739,15156,122348,732,19102,3137,1,34231,0.0010000000000000009
608000,1457,2945,125061,-1606,-4862,123501,732,19146,2998,1,34232,0.0010000000000000009
609000,-1692,-13354,127875,-7292,-14051,142517,929,19108,3805,0,34233,0.0010000000000000009
610000,6260,3243,128883,-2949,9330,120121,876,19087,3588,1,34234,0.0010000000000000009
611000,-9531,19254,130660,5146,5235,124911,691,19087,2830,1,34235,0.0010000000000000009
612000,6505,-6141,135349,-12074,-15049,144598,872,19138,2830,0,34236,0.0010000000000000009
613000,-4161,-8939,135004,8639,-8009,137592,955,19131,3571,0,34237,0.0010000000000000009
614000,-5677,-7746,134178,-19481,-10513,141284,955,19069,3911,1,34238,0.0010000000000000009
615000,960,-5913,133327,3865,-1385,128124,614,19110,2515,0,34239,0.0010000000000000009
616001,768,9003,130970,9830,-1879,134505,863,19120,3535,0,34240,0.0010010000000000296
617000,9980,-7025,127271,-23125,-3265,128253,947,19158,3879,1,34241,0.0009989999999999721
618001,13349,22794,138520,12976,22587,114524,799,19158,3879,1,34242,0.0010010000000000296
619000,4516,-7243,127480,22246,-17930,140053,913,19098,3272,0,34243,0.0009989999999999721
620003,-12668,-13366,122893,-28923,-10799,120303,913,19101,3739,1,34244,0.0010029999999999761
621000,-2643,5913,129677,-12527,-4333,132646,1097,19174,4493,1,34245,0.0009970000000000256
622000,10579,10163,123171,37502,13853,109721,795,19126,3256,0,34246,0.0010000000000000009
623001,4158,32024,126119,-7078,26076,100634,857,19088,3510,0,34247,0.0010010000000000296
624000,3184,-8957,119965,-10963,-14766,134429,990,19088,3510,1,34248,0.0009989999999999721
625000,2743,-5258,117936,9156,-2894,116164,924,19145,4055,0,34249,0.0010000000000000009
626000,3435,17478,126296,-10923,11948,118832,924,19120,3784,0,34250,0.0010000000000000009
627002,-655,9518,129012,4163,3986,121580,857,19119,3510,1,34251,0.0010019999999999474
628002,3659,-10896,123501,-4155,-16143,132633,656,19110,2687,1,34252,0.0010000000000000009
629000,-2455,-6988,128868,-10630,-3653,133599,1115,19146,4567,0,34253,0.0009980000000000544
630002,-1201,13076,129572,-7972,8567,122788,926,19146,4567,1,34254,0.0010019999999999474
631000,-844,7480,130198,-7260,652,130543,674,19123,3793,1,34255,0.0009980000000000544
632000,-436,2405,135865,9993,-2340,132343,674,19115,2761,0,34256,0.0010000000000000009
633000,2921,-13999,131085,-14997,-14335,141143,758,19105,3105,0,34257,0.0010000000000000009
634000,-10288,-3996,135608,-2704,-3717,136153,1065,19131,4362,1,34258,0.0010000000000000009
635000,8806,1692,136412,-440,-3186,139212,799,19084,3272,0,34259,0.0010000000000000009
636002,-2877,-5458,127251,6754,-9608,130589,722,19084,3272,0,34260,0.0010019999999999474
637006,372,21210,136102,-12067,15999,120483,799,19100,2957,1,34261,0.0010040000000000049
638000,19017,-25081,125255,1294,-25515,147382,799,19143,3272,1,34262,0.0009940000000000504
639000,-4576,8856,131423,39417,9107,118042,895,19106,3666,0,34263,0.0010000000000000009
640000,2283,-2670,120921,-31854,-7333,127906,858,19086,3514,1,34264,0.0010000000000000009
641000,-5265,22375,128039,-11331,17177,112258,768,19143,3146,1,34265,0.0010000000000000009
642000,14256,-4938,123711,29056,-8740,131009,928,19143,3146,0,34266,0.0010000000000000009
643000,166,3167,119781,41,3689,114160,931,19144,3801,0,34267,0.0010000000000000009
644000,-2414,28343,128820,-14070,28435,100869,931,19070,3813,1,34268,0.0010000000000000009
645000,10477,-11571,119045,1295,-14475,136361,645,19122,2642,0,34269,0.0010000000000000009
646002,-1002,8963,123300,6938,3126,115571,956,19134,3915,0,34270,0.0010019999999999474
647002,-1657,7143,129576,-9524,4680,123322,908,19149,3719,1,34271,0.0010000000000000009
648002,-3078,2899,126361,-5565,4217,120845,782,19149,3203,1,34272,0.0010000000000000009
649002,4041,-8376,129498,-4567,-9432,135396,950,19097,3203,0,34273,0.0010000000000000009
650000,-3870,3268,128933,6708,-1343,120386,1076,19109,3891,1,34274,0.0009980000000000544
651000,-4158,17428,129671,-17189,12403,127865,1076,19173,4407,1,34275,0.0010000000000000009
652001,3611,-581,135062,-6095,-2380,141741,780,19127,3195,0,34276,0.0010009999999999186
653000,1585,-11746,134192,3113,-11119,140020,831,19091,3404,0,34277,0.0009990000000000832
654000,-6205,-11834,132737,-3893,-12823,138287,1076,19091,4407,1,34278,0.0010000000000000009
655000,-1367,9054,137106,3860,8254,125383,898,19157,4407,0,34279,0.0009999999999998899
656000,2716,-3317,128903,2326,-25883,148671,849,19126,3678,0,34280,0.0010000000000000009
657000,14246,1655,132554,-21071,18416,113888,849,19100,3477,1,34281,0.0010000000000000009
658002,7147,25490,137355,19222,2808,129728,584,19117,2392,1,34282,0.0010020000000000584
659000,-781,-21868,122151,-11722,-20568,132800,1059,19133,4337,0,34283,0.0009979999999999434
660002,-9831,-2998,128429,-22040,-8860,126639,942,19133,3858,1,34284,0.0010020000000000584
661000,1870,-3402,122172,21694,-999,130702,621,19083,3858,1,34285,0.0009979999999999434
662000,7194,39105,126553,9395,40936,86741,819,19121,2543,0,34286,0.0010000000000000009
663001,2211,8861,126254,-19148,-9963,131973,819,19116,3354,0,34287,0.0010010000000000296
664000,4394,-19142,117226,11714,-10409,122955,1023,19125,4190,1,34288,0.0009989999999999721
665000,1071,12033,123592,787,9137,113180,773,19092,3166,0,34289,0.0010000000000000009
666000,2222,14612,125911,-17167,9604,119305,781,19115,3199,0,34290,0.0010000000000000009
667000,-585,6857,125171,6583,-1508,120685,840,19115,3199,1,34291,0.0010000000000000009
668000,3424,-10234,125903,-15030,-10297,136667,868,19148,3440,1,34292,0.0010000000000000009
669000,1322,6598,130831,-4606,6570,123414,868,19070,3555,0,34293,0.0010000000000000009
670000,-7907,-4572,123639,6370,-7810,130072,775,19099,3174,1,34294,0.0010000000000000009
671000,4469,14777,129877,-24373,7661,126486,808,19145,3309,1,34295,0.0010000000000000009
672000,6583,6616,135565,9553,-2114,136896,894,19142,3662,0,34296,0.0010000000000000009
673000,4789,-7731,132634,10477,-10214,135242,926,19142,3662,0,34297,0.0010000000000000009
674000,-10478,-8554,136405,-24472,-10618,139239,728,19078,3793,1,34298,0.0010000000000000009
675000,2006,-16010,132044,5180,-20725,148372,728,19124,2982,0,34299,0.0010000000000000009
676000,-4813,11950,132954,3205,8423,121266,1013,19136,4149,0,34300,0.0010000000000000009
677000,10116,12564,133558,-27175,5515,128274,913,19137,3739,1,34301,0.0010000000000000009
678000,12717,6892,133201,30897,5529,125415,761,19104,3117,1,34302,0.0010000000000000009
679000,-4601,-13268,124658,7486,-17351,132905,923,19104,3117,0,34303,0.0010000000000000009
680000,-2733,-2467,124878,-32997,-3534,122515,1055,19112,3780,1,34304,0.0010000000000000009
681000,-3094,23147,128795,10716,13975,116927,1055,19173,4321,1,34305,0.0010000000000000009
682000,13839,2943,120068,22257,-1167,122933,757,19106,3100,0,34306,0.0010000000000000009
683000,-3449,12966,125440,-5920,13283,107443,776,19106,3178,0,34307,0.0010000000000000009
684000,1586,-5889,121270,-13346,-8514,127919,1144,19160,4685,1,34308,0.0010000000000000009
685004,6154,7405,121015,10081,5124,114146,874,19160,4685,0,34309,0.0010040000000000049
686000,1846,13429,126115,-2605,5561,121805,831,19116,3580,0,34310,0.0009959999999999969
687001,-88,2197,122565,-5127,-1867,123974,831,19098,3404,1,34311,0.0010010000000000296
688002,-68,2031,125685,-5682,1384,122881,620,19124,2539,1,34312,0.0010010000000000296
689000,4228,-3241,128398,-5266,-4906,135847,1016,19120,4161,0,34313,0.0009979999999999434
690000,-3233,7193,127793,2713,3147,123932,918,19103,3760,1,34314,0.0010000000000000009
691000,187,3761,129198,-16752,-3959,132465,624,19103,2556,1,34315,0.0010000000000000009
692001,7063,6284,135272,-179,2076,131830,805,19124,2556,0,34316,0.0010010000000000296
693000,-452,-12924,133153,1869,-12086,142314,1020,19116,3297,1,34317,0.0009989999999999721
694000,-10842,-9774,135788,-10484,-13034,140415,1020,19122,4178,1,34318,0.0010000000000000009
695001,1758,3173,133650,-423,-1517,132755,756,19094,3096,0,34319,0.0010010000000000296
696000,-3796,8416,130679,6184,2342,133417,832,19107,3408,0,34320,0.0009989999999999721
697003,15801,4278,130203,-25982,-261,121518,908,19107,3719,1,34321,0.0010029999999999761
698000,5223,11597,134015,24974,12787,132342,855,19161,3719,0,34322,0.0009970000000000256
699000,-1148,-14852,124133,22624,-14121,128278,774,19076,3502,0,34323,0.0010000000000000009
700000,-8112,-2556,127028,-38503,-9374,127665,774,19098,3170,1,34324,0.0010000000000000009
701000,1303,6483,123650,4117,-1429,124776,811,19151,3322,1,34325,0.0010000000000000009
702000,14570,26805,122178,20966,31172,94858,862,19133,3530,0,34326,0.0010000000000000009
703000,-3198,15416,125986,-6412,-3192,125962,907,19133,3715,1,34327,0.0010000000000000009
704002,7176,-19326,116933,-2211,-16294,125145,798,19079,3715,1,34328,0.0010020000000000584
705000,-806,8861,121178,6265,13524,112071,1031,19127,3268,0,34329,0.0009979999999999434
706000,1517,22871,128754,-11883,11439,120315,1031,19149,4223,0,34330,0.0010000000000000009
707000,136,3041,122833,456,-4713,123035,905,19141,3707,1,34331,0.0010000000000000009
708000,-3469,-10851,124729,-5940,-11777,135127,742,19099,3039,0,34332,0.0010000000000000009
709000,5675,4222,128896,-17349,7775,122865,1041,19113,4264,0,34333,0.0010000000000000009
710000,-4269,8200,127859,11855,2407,126018,1018,19113,4264,1,34334,0.0010000000000000009
711000,5832,8723,130025,-12533,-1926,133481,762,19155,4169,1,34335,0.0010000000000000009
712000,3663,-2744,132095,-7237,-9153,139070,762,19108,3121,0,34336,0.0010000000000000009
713000,-1639,-8930,133746,9650,-11371,138950,776,19102,3178,1,34337,0.0010000000000000009
714000,-10895,-5573,135149,-19960,-5770,134837,1181,19165,4837,1,34338,0.0010000000000000009
715002,3963,-7309,130500,3508,-14284,144497,854,19112,3498,0,34339,0.0010019999999999474
716000,-737,15208,132502,11023,15039,117374,816,19112,3498,0,34340,0.0009980000000000544
717000,11502,11526,130502,-26532,-555,129425,669,19095,3342,1,34341,0.0010000000000000009
718000,14092,-2128,132354,28413,-1509,128325,669,19125,2740,0,34342,0.0010000000000000009
719002,-9227,-9101,127818,5961,-16465,132784,994,19109,4071,0,34343,0.0010019999999999474
720000,-4756,-8568,121940,-34562,-5799,125068,917,19070,3756,1,34344,0.0009980000000000544
721000,-5164,31075,132031,13579,20192,114518,576,19129,2359,1,34345,0.0010000000000000009
722000,19664,-1564,116937,16984,-4830,124119,821,19129,2359,0,34346,0.0010000000000000009
723000,-2176,23927,123985,309,24171,97374,982,19121,3363,1,34347,0.0010000000000000009
724000,2474,-4730,122226,-16978,-11072,131608,982,19110,4022,1,34348,0.0010000000000000009
725001,6546,-4119,118292,9534,-4110,117460,732,19105,2998,0,34349,0.0010010000000000296
726000,-4353,21963,129106,-565,11674,120814,878,19123,3596,1,34350,0.0009989999999999721
727001,4056,-247,122325,-11922,-4130,126674,970,19164,3973,1,34351,0.0010010000000000296
728000,-4493,1205,124743,6576,-2372,121531,827,19164,3973,0,34352,0.0009989999999999721
729000,4247,-6041,127383,-16972,-7251,137352,801,19082,3387,0,34353,0.0010000000000000009
730000,438,16184,129196,-9033,11510,118933,801,19099,3281,1,34354,0.0010000000000000009
731000,966,5904,130582,5955,-4046,136134,878,19152,3596,1,34355,0.0010000000000000009
732000,3750,-5898,130014,-394,-10131,135572,849,19137,3477,0,34356,0.0010000000000000009
733000,-6549,-8431,132632,-11195,-11085,136812,899,19081,3682,1,34357,0.0010000000000000009
734000,-2679,-7473,134644,-11076,-9670,143501,863,19081,3682,1,34358,0.0010000000000000009
735001,5014,10205,134752,4743,6307,129008,1006,19136,3535,0,34359,0.0010010000000000296
736000,-751,484,129390,12691,-9874,134393,1006,19149,4120,1,34360,0.0009989999999999721
737000,5597,15321,132981,-19480,12762,117951,893,19141,3657,1,34361,0.0010000000000000009
738000,14539,-21077,126521,2300,-24848,145020,728,19101,2982,0,34362,0.0010000000000000009
739000,-4711,10592,132662,39122,8937,120651,998,19120,4088,0,34363,0.0010000000000000009
740000,-5980,-1420,121100,-38757,-6208,123706,1011,19120,4141,1,34364,0.0010000000000000009
741000,309,27088,129157,-9510,17071,115367,732,19141,4141,1,34365,0.0010000000000000009
742000,18935,-2706,118445,32624,-2849,124916,711,19102,2998,0,34366,0.0010000000000000009
743000,-491,6167,119143,2508,1704,112690,711,19098,2912,1,34367,0.0010000000000000009
744000,-2551,18642,127654,-15440,20891,128160,1144,19172,4685,1,34368,0.0010000000000000009
745001,5835,-16056,116554,-5709,-21177,124734,843,19103,3453,0,34369,0.0010009999999999186
746002,-1920,23513,126685,9356,12627,116531,800,19103,3277,1,34370,0.0010010000000000296
747002,-1158,3439,124611,-7886,3440,126513,710,19103,3277,1,34371,0.0010000000000000009
748001,-3879,405,123187,-5856,-1792,122898,961,19132,2908,0,34372,0.0009989999999999721
749000,6280,-4553,129180,-9518,-8330,139844,961,19112,3936,0,34373,0.0009990000000000832
750000,138,4426,126920,8306,9942,118609,896,19090,3670,1,34374,0.0010000000000000009
751000,1523,19387,130168,-8620,3159,130594,571,19131,2339,0,34375,0.0010000000000000009
752000,3760,-9459,131171,-13773,-13135,145713,805,19131,3297,0,34376,0.0010000000000000009
753000,-4008,-6146,133937,12489,-8578,136629,987,19120,3297,1,34377,0.0010000000000000009
754000,-7814,-8666,133866,-18958,-12134,140443,701,19103,4042,1,34378,0.0010000000000000009
755000,-540,6781,135045,19983,4717,125621,701,19110,2871,0,34379,0.0010000000000000009
756000,2709,-2384,126338,-6227,-19236,145037,876,19118,3588,1,34380,0.0010000000000000009
757000,15426,5702,129765,-15689,18327,113574,991,19168,4059,1,34381,0.0010000000000000009
758002,-166,21587,133427,41661,4204,129345,826,19075,3383,0,34382,0.0010019999999999474
759000,-4625,-24317,119599,-20219,-23957,134585,796,19075,3383,0,34383,0.0009980000000000544
760000,-9729,-2180,126588,-18648,-3251,124482,926,19097,3260,1,34384,0.0010000000000000009
761000,10270,6205,120703,23813,4046,128569,926,19158,3793,0,34385,0.0010000000000000009
762000,13194,37330,122289,886,39612,87546,820,19127,3358,0,34386,0.0010000000000000009
763000,1954,7171,124559,-10528,-7692,129861,883,19080,3617,1,34387,0.0010000000000000009
764000,3169,-17562,117007,7288,-15141,126034,883,19139,3617,1,34388,0.0010000000000000009
765000,-2927,11009,123480,2795,9005,112439,977,19139,3617,0,34389,0.0010000000000000009
766000,547,21243,127322,-15835,12319,120114,880,19133,4002,1,34390,0.0010000000000000009
767002,-2306,4179,124293,3407,-1101,121902,880,19124,3604,1,34391,0.0010019999999999474
768000,-2721,-7933,126893,-11861,-10466,135730,698,19107,2859,0,34392,0.0009980000000000544
769000,208,3698,130487,-11803,1395,126539,1151,19136,4714,0,34393,0.0010000000000000009
770000,-7941,-49,124623,16101,-2601,125167,974,19140,3989,1,34394,0.0010000000000000009
771000,9152,16166,129683,-23373,6596,129466,708,19140,3989,0,34395,0.0010000000000000009
772000,6582,684,131463,-675,-3218,137921,705,19110,2900,0,34396,0.0010000000000000009
773000,898,-1618,132849,13113,-4812,133824,705,19105,2887,1,34397,0.0010000000000000009
774000,-12103,-9551,135684,-26033,-12977,140289,1117,19157,4575,1,34398,0.0009999999999998899
775000,2211,-21470,130359,12303,-25823,148009,819,19115,3354,0,34399,0.0010000000000000009
776002,601,14369,129700,2113,7320,122740,797,19099,3264,1,34400,0.0010020000000000584
777000,12910,13016,130208,-28897,8684,125955,762,19099,3264,1,34401,0.0009979999999999434
778000,6469,14192,131823,38880,10871,123146,946,19131,3121,0,34402,0.0010000000000000009
779000,-8419,-19442,120273,-7011,-22360,134592,946,19109,3875,0,34403,0.0010000000000000009
780001,-5545,1328,126190,-28817,-3085,121983,898,19083,3678,1,34404,0.0010010000000000296
781000,7388,17265,125618,20509,8695,122136,619,19134,2535,0,34405,0.0009989999999999721
782000,12566,3102,117826,15550,-1174,119192,833,19127,3412,0,34406,0.0010000000000000009
783000,-6373,22560,126911,-9329,20952,103788,973,19127,3985,1,34407,0.0010000000000000009
784000,3422,-7523,119481,-17486,-9556,130248,656,19077,3985,1,34408,0.0010000000000000009
785000,2422,9591,122985,18488,4452,111578,877,19104,2687,0,34409,0.0010000000000000009
786000,950,12585,125729,-6517,4006,124084,877,19121,3592,1,34410,0.0010000000000000009
787002,-1967,2074,123161,-9189,-1898,122591,968,19175,3965,1,34411,0.0010020000000000584
788000,-2773,1400,127770,-1982,-1010,125079,810,19082,3318,0,34412,0.0009979999999999434
789000,-1425,-2937,127925,-9422,-5963,137636,923,19082,3780,0,34413,0.0010000000000000009
790000,-4720,11077,128069,-2108,6117,119344,1002,19109,3780,1,34414,0.0010000000000000009
791000,5455,2774,128058,-10235,-5557,136190,797,19162,4104,0,34415,0.0010000000000000009
792002,7263,6926,133228,4050,2341,132369,797,19124,3264,0,34416,0.0010020000000000584
793002,-1875,-13496,131490,-3589,-12695,146792,862,19091,3530,1,34417,0.0010000000000000009
794000,-9680,-7009,135580,-15732,-13894,131709,900,19139,3686,1,34418,0.0009979999999999434
795000,3941,-4314,131122,6047,-13829,141571,946,19139,3875,0,34419,0.0010000000000000009
796000,-4314,1802,125592,8705,5281,125631,879,19139,3875,1,34420,0.0010000000000000009
797000,15692,16401,131604,-31791,11794,122866,676,19107,3600,1,34421,0.0010000000000000009
798002,2875,4900,128748,29122,-637,131080,676,19107,2769,0,34422,0.0010020000000000584
799000,-4946,-4473,124667,19910,-10164,123720,1124,19137,4604,0,34423,0.0009979999999999434
800002,-5612,-10673,125609,-20292,-9951,132972,983,19138,4026,1,34424,0.0010020000000000584
801000,6269,10862,123255,29299,10083,119362,696,19111,2851,0,34425,0.0009979999999999434
802000,14447,18220,120591,-6844,20209,105646,757,19111,2851,0,34426,0.0010000000000000009
803000,-6156,16020,124308,-2178,8579,117669,1094,19112,3100,1,34427,0.0010000000000000009
804000,6696,-6886,118240,-4460,-11737,125497,1094,19144,4481,1,34428,0.0010000000000000009
805000,-101,4212,122134,9084,8034,114849,808,19087,3309,0,34429,0.0010000000000000009
806000,4696,22264,127589,-5180,10423,119323,716,19110,2933,1,34430,0.0010000000000000009
807000,-3720,-4550,122479,-4380,-7620,127088,757,19141,3100,1,34431,0.0010000000000000009
808000,-6563,-4264,127441,-6085,-5969,132400,911,19141,3100,0,34432,0.0010000000000000009
809000,622,1915,129516,-10948,1056,129430,875,19111,3731,0,34433,0.0010000000000000009
810000,-7603,11844,128520,10069,10782,119720,875,19090,3584,1,34434,0.0010000000000000009
811000,9929,8252,129515,-16785,-3053,136176,692,19138,2834,0,34435,0.0010000000000000009
812000,3757,-8199,130906,-6728,-8417,139518,861,19133,3526,0,34436,0.0010000000000000009
813000,-443,-5180,133513,10942,-9300,137967,948,19072,3883,1,34437,0.0010000000000000009
814000,-9000,-9840,133250,-16954,-11449,137829,611,19072,3883,1,34438,0.0010000000000000009
815000,4467,-1978,131688,15806,-5771,136087,855,19106,2502,0,34439,0.0010000000000000009
816000,1542,3611,125309,-4092,-3080,133485,855,19123,3502,1,34440,0.0010000000000000009
817000,12382,11470,130551,-23091,11575,119115,961,19155,3936,1,34441,0.0010000000000000009
818000,4319,10120,132061,48137,4106,130059,794,19093,3252,0,34442,0.0010000000000000009
819000,-8069,-23336,120297,-18498,-25233,134381,908,19105,3719,0,34443,0.0010000000000000009
820001,-3834,3465,128854,-23569,1744,121758,1091,19105,3719,1,34444,0.0010010000000000296
821002,9387,12437,122844,29180,5645,126838,790,19172,4468,0,34445,0.0010010000000000296
822000,11218,21298,120823,-861,20403,100236,790,19128,3236,0,34446,0.0009979999999999434
823000,-4337,11878,125005,-5461,7872,118541,851,19088,3485,1,34447,0.0010000000000000009
824000,2734,-9193,117961,-10656,-11131,126841,999,19143,4092,1,34448,0.0010000000000000009
825000,1300,14108,126198,10932,10919,110798,935,19129,3829,0,34449,0.0010000000000000009
826003,610,11184,126656,-3315,3193,126568,860,19129,3829,1,34450,0.0010029999999999761
827002,-1687,-3501,122749,-9905,-6445,121366,623,19103,3522,1,34451,0.0009990000000000832
828000,-4062,-3793,128508,5003,-6484,131161,623,19117,2552,0,34452,0.0009979999999999434
829000,-2145,10367,130355,-16531,8710,125949,1108,19139,4538,0,34453,0.0010000000000000009
830000,-3434,8076,129432,-7534,4002,125036,954,19123,3907,1,34454,0.0010000000000000009
831000,5948,4900,130933,3478,-1635,134759,667,19121,2732,0,34455,0.0010000000000000009
832000,-1888,-11045,128245,826,-13949,137310,750,19121,3072,0,34456,0.0010000000000000009
833000,-2230,-6385,132842,-9929,-9795,137454,1057,19104,3072,1,34457,0.0010000000000000009
834000,-2671,820,135938,-10991,-2608,137859,791,19128,4329,1,34458,0.0010000000000000009
835000,8147,-4030,128872,11668,-7480,137657,791,19089,3240,0,34459,0.0010000000000000009
836000,-1491,12799,131537,4493,4240,123549,720,19110,2949,1,34460,0.0010000000000000009
837000,9632,-4209,129929,-30450,-2935,131416,798,19142,3268,1,34461,0.0010000000000000009
838000,2317,-6884,128336,28900,-12666,126425,890,19142,3645,0,34462,0.0010000000000000009
839000,-9833,5473,127351,8625,6485,124587,852,19102,3645,0,34463,0.0010000000000000009
840000,-3489,4398,123754,-38571,-3137,117248,766,19087,3490,1,34464,0.0010000000000000009
841000,7555,17214,125193,16519,13657,124278,766,19142,3137,0,34465,0.0010000000000000009
842001,15118,-7927,116129,19724,698,116779,918,19136,3760,0,34466,0.0010010000000000296
843000,-7533,21455,124450,-137,23922,103691,944,19073,3866,1,34467,0.0009989999999999721
844001,2465,3565,123712,-20670,-10329,133159,663,19119,2715,1,34468,0.0010010000000000296
845001,4767,-1412,122462,5142,3930,117495,964,19119,2715,0,34469,0.0010000000000000009
846003,668,14971,126448,-4535,5256,123273,915,19130,3948,1,34470,0.0010019999999999474
847002,-4585,-1088,123170,-6707,-679,121786,915,19164,3748,1,34471,0.0009989999999999721
848002,-321,-318,128106,-6783,-3777,130187,786,19096,3219,0,34472,0.0010000000000000009
849000,1690,-1919,130357,8650,-2413,135133,950,19103,3891,0,34473,0.0009980000000000544
850000,-7571,15760,129480,-6696,14407,115614,1070,19180,4382,1,34474,0.0010000000000000009
851000,3914,6612,130686,-21334,-4162,139069,752,19180,4382,0,34475,0.0010000000000000009
852000,2189,-11381,132391,4283,-11312,141900,822,19123,3080,0,34476,0.0010000000000000009
853000,-4647,-7591,132352,4517,-9223,137512,822,19094,3367,1,34477,0.0010000000000000009
854000,-1818,-9735,132228,-10778,-9820,137791,1075,19156,4403,1,34478,0.0010000000000000009
855000,684,10011,133921,18515,5479,128262,903,19125,3698,0,34479,0.0010000000000000009
856000,7560,-12530,123306,-17649,-16772,142840,859,19101,3518,1,34480,0.0010000000000000009
857000,10142,20319,135527,-4826,29111,109658,585,19101,3518,1,34481,0.0010000000000000009
858000,1955,2732,129899,39869,-8340,137855,1062,19124,2396,0,34482,0.0010000000000000009
859000,-8285,-20804,121378,-22481,-17186,127617,1062,19142,4350,0,34483,0.0010000000000000009
860000,-4946,4247,130758,-18168,-454,125920,946,19107,3875,1,34484,0.0010000000000000009
861000,12984,9063,120061,26197,10388,120482,664,19118,2720,0,34485,0.0010000000000000009
862000,4667,38520,125734,-4703,37010,90634,801,19110,3281,0,34486,0.0010000000000000009
863003,3802,-11111,120907,-5373,-18500,139359,1045,19110,3281,1,34487,0.0010029999999999761
864000,-3145,-5405,118665,10060,-3327,117128,772,19126,4280,1,34488,0.0009970000000000256
865001,2416,16486,127896,-6842,12147,115869,772,19097,3162,0,34489,0.0010009999999999186
866000,3252,11981,126750,-1424,5627,122933,783,19110,3207,1,34490,0.0009990000000000832
867000,-6014,-8067,123107,366,-9922,125117,845,19157,3461,1,34491,0.0010000000000000009
868000,-2265,-3969,129360,-14619,-4810,134254,878,19079,3596,0,34492,0.0010000000000000009
869000,-5529,9453,130325,-7083,7264,124506,778,19079,3596,0,34493,0.0010000000000000009
870000,-5817,5726,127931,9430,2291,126362,798,19101,3186,1,34494,0.0010000000000000009
871001,4929,10258,131357,-19635,4838,130410,798,19148,3268,0,34495,0.0010009999999999186
872002,5921,-11814,131040,-4222,-12850,140672,876,19145,3588,0,34496,0.0010010000000000296
873000,-2093,-3782,133995,17767,-5804,133926,924,19074,3784,1,34497,0.0009980000000000544
874000,-5450,-5321,137322,-27170,-7795,140848,728,19123,2982,1,34498,0.0010000000000000009
875000,1622,-11868,130672,14913,-17546,143367,934,19123,3825,0,34499,0.0010000000000000009
876000,-2538,17351,132473,709,14092,119073,929,19128,3825,1,34500,0.0010000000000000009
877000,10838,-2471,128547,-34401,-3827,133391,760,19145,3805,1,34501,0.0010000000000000009
878000,1802,9639,132181,46127,8195,122949,760,19095,3113,0,34502,0.0010000000000000009
879000,-3303,-15924,120099,-6684,-16575,132257,926,19110,3793,0,34503,0.0010000000000000009
880002,-6168,17084,129386,-28073,8943,114643,1060,19167,4341,1,34504,0.0010019999999999474
881000,11621,6654,125205,20655,6264,125855,764,19167,3129,0,34505,0.0009980000000000544
882000,4643,-5918,117462,14368,-11600,124332,777,19103,3129,0,34506,0.0010000000000000009
883000,-7921,25202,127710,-11261,23642,99929,1142,19096,3182,1,34507,0.0010000000000000009
884000,6662,-3129,120408,-19297,-3142,129872,1142,19166,4677,1,34508,0.0010000000000000009
885000,4932,9356,123466,23433,2487,113762,869,19125,3559,0,34509,0.0010000000000000009
886000,3347,5281,126441,-3446,1647,129455,832,19104,3408,1,34510,0.0010000000000000009
887000,-6611,2188,124193,-12033,-941,117276,624,19104,2556,1,34511,0.0010000000000000009
888000,-96,-329,129660,-3357,-556,137071,1030,19128,2556,0,34512,0.0010000000000000009
889000,-5053,-1736,130040,-8609,-856,130544,923,19116,4219,0,34513,0.0010000000000000009
890000,-5837,11769,128827,-5,7423,121772,923,19107,3780,1,34514,0.0010000000000000009
891000,3809,4078,132778,-12111,-1191,137366,632,19126,2588,0,34515,0.0010000000000000009
892000,6826,-7150,133658,-1405,-10562,139186,803,19110,3289,0,34516,0.0010000000000000009
893002,-5047,-14763,132852,-3673,-15041,142884,1028,19130,4210,1,34517,0.0010019999999999474
894000,-2471,-6666,133856,2940,-1323,131704,761,19130,4210,1,34518,0.0009979999999999434
895000,-540,9223,131496,1148,1312,134871,819,19098,3117,0,34519,0.0010000000000000009
896002,8710,-7110,126315,-23380,-3610,131427,819,19112,3354,1,34520,0.0010020000000000584
897000,11628,25713,138278,20761,26649,114484,893,19154,3657,1,34521,0.0009979999999999434
898000,3340,-9624,126710,21067,-19676,138444,857,19085,3510,0,34522,0.0010000000000000009
899000,-8224,-11449,128081,-25130,-9546,124101,787,19092,3223,0,34523,0.0010000000000000009
900000,-3691,-3631,128582,-3668,-8951,135525,807,19092,3223,1,34524,0.0010000000000000009
901000,9846,19566,123041,20054,26833,103804,869,19142,3305,0,34525,0.0010000000000000009
902000,-463,34272,128244,-13387,26065,104993,869,19134,3559,0,34526,0.0010000000000000009
903000,4999,-17568,117325,4297,-21669,136323,895,19083,3666,1,34527,0.0010000000000000009
904000,468,-276,119797,16876,2012,113264,780,19128,3195,1,34528,0.0010000000000000009
905000,3238,12795,125913,-11107,8032,120040,1041,19142,4264,0,34529,0.0010000000000000009
906000,2764,13612,126595,-4128,10088,116918,908,19142,4264,1,34530,0.0010000000000000009
907000,-3120,-5691,126308,-6111,-7447,132477,750,19136,3719,1,34531,0.0010000000000000009
908000,398,-4669,128608,2403,-4342,133175,750,19104,3072,0,34532,0.0010000000000000009
909002,-12486,1233,127890,837,-1599,125054,1023,19123,4190,1,34533,0.0010020000000000584
910003,-402,4776,128491,-23970,1562,129141,1015,19155,4157,1,34534,0.0010010000000000296
911001,7538,13979,135513,3877,12082,129063,752,19112,3080,0,34535,0.0009979999999999434
912000,5231,-4196,133479,2304,-5339,138934,783,19112,3080,0,34536,0.0009989999999999721
913000,-9194,-14443,132657,-9405,-16423,137469,1192,19097,3207,1,34537,0.0010000000000000009
914000,-2776,-13918,134855,26,-16186,144257,1192,19173,4882,1,34538,0.0010000000000000009
915001,799,2512,130105,15529,-1050,133949,855,19110,3502,0,34539,0.0010010000000000296
916000,5415,17437,133644,-22518,14908,121177,818,19101,3350,1,34540,0.0009989999999999721
917000,16247,7082,133691,526,8081,126553,655,19132,2683,1,34541,0.0010000000000000009
918003,-2157,-11358,126881,43480,-12870,133173,1000,19132,2683,0,34542,0.0010030000000000872
919002,-3342,-15668,125863,-27753,-17420,130852,925,19114,4096,0,34543,0.0009989999999999721
920001,-8170,9805,128558,-9617,5121,122886,925,19089,3789,1,34544,0.0009989999999999721
921000,11651,19728,124810,19186,18195,116354,582,19128,2384,0,34545,0.0009989999999999721
922000,4244,20155,124880,-2871,21532,107246,782,19116,3203,0,34546,0.0010000000000000009
923000,-1641,-8516,118392,-2217,-9628,125132,1003,19111,4108,1,34547,0.0010000000000000009
924000,5449,-3499,120275,-865,-6160,119939,741,19111,3035,1,34548,0.0010000000000000009
925000,3275,13660,126999,6046,8737,117617,867,19106,3035,0,34549,0.0010000000000000009
926000,4075,8735,128014,-3833,6874,122362,966,19119,3551,1,34550,0.0010000000000000009
927000,-7233,-5720,125702,-8066,-4128,125958,966,19161,3956,1,34551,0.0010000000000000009
928000,-521,-1156,128261,-6334,-5145,130123,838,19083,3432,0,34552,0.0010000000000000009
929000,-4134,5630,129296,-2906,5100,125548,799,19104,3272,1,34553,0.0010000000000000009
930000,-2964,7947,129725,-1229,2788,127133,859,19104,3518,1,34554,0.0010000000000000009
931001,3841,870,134732,-11286,-1149,135694,847,19156,3518,0,34555,0.0010010000000000296
932000,-474,-3942,135658,-1897,-4998,138151,899,19131,3469,0,34556,0.0009989999999999721
933000,-6587,-12984,132724,1987,-14249,141799,899,19087,3682,1,34557,0.0010000000000000009
934000,-1284,-6954,135608,-17301,-10811,138124,852,19133,3490,0,34558,0.0010000000000000009
935000,1424,5205,130673,18793,-3827,126942,1006,19146,4120,0,34559,0.0010000000000000009
936000,2874,7545,131074,-639,2615,127007,891,19146,3649,1,34560,0.0010000000000000009
937000,20987,3368,133745,-31541,7304,125393,728,19135,3649,1,34561,0.0010000000000000009
938002,-5083,-4049,129237,52467,-14468,135858,1002,19107,2982,0,34562,0.0010020000000000584
939000,-1389,-14789,122752,-14167,-9853,122211,1002,19120,4104,1,34563,0.0009979999999999434
940000,-12271,13969,131565,-933,7138,125841,1014,19150,4153,1,34564,0.0010000000000000009
941000,12654,4146,122497,26201,6176,118081,732,19102,2998,0,34565,0.0010000000000000009
942000,4463,28569,124214,-3856,30391,97288,714,19104,2924,0,34566,0.0010000000000000009
943000,-3500,802,122953,-7474,-11704,132226,1142,19104,2924,1,34567,0.0010000000000000009
944000,10749,-13736,117035,5462,-10221,119318,841,19170,4677,0,34568,0.0010000000000000009
945000,-3600,14873,126929,573,12418,119213,841,19111,3444,0,34569,0.0010000000000000009
946000,4946,9796,129767,-10483,6198,121865,799,19102,3272,1,34570,0.0010000000000000009
947000,-8306,-2092,125607,1821,-4417,126192,710,19131,2908,1,34571,0.0010000000000000009
948000,1646,-8645,127970,-11311,-7805,137205,962,19111,3940,0,34572,0.0010000000000000009
949000,-844,8084,128967,5142,6599,120200,898,19111,3940,1,34573,0.0010000000000000009
950001,-6971,11674,130058,-8434,5637,126103,578,19084,3678,1,34574,0.0010010000000000296
951000,7809,-2591,135430,-13216,-6653,139400,578,19125,2367,0,34575,0.0009989999999999721
952003,-4235,-9043,134630,9517,-7568,138882,809,19118,3313,0,34576,0.0010029999999999761
953002,-3807,-5071,133763,-10907,-7659,138446,987,19098,4042,1,34577,0.0009989999999999721
954002,-3852,-9961,134064,-2235,-11410,137649,702,19108,2875,0,34578,0.0010000000000000009
955000,4508,4072,130376,14594,320,133527,873,19108,2875,0,34579,0.0009980000000000544
956000,7676,151,129791,-21469,204,128666,994,19127,3576,1,34580,0.0010000000000000009
957000,12959,17690,136993,7446,20283,116878,994,19169,4071,1,34581,0.0010000000000000009
958000,2964,-8505,127179,32909,-13418,137855,829,19080,3395,0,34582,0.0010000000000000009
959000,-10114,-17961,123716,-22096,-17882,128622,792,19102,3244,1,34583,0.0010000000000000009
960000,-1593,12929,130873,-17030,7952,123106,925,19160,3789,1,34584,0.0010000000000000009
961000,7548,11601,124031,26025,12004,117742,822,19160,3789,0,34585,0.0010000000000000009
962000,4957,28001,125962,-5507,27937,99292,868,19127,3367,0,34586,0.0010000000000000009
963000,3371,-8550,120635,-5250,-10738,131619,868,19084,3555,1,34587,0.0010000000000000009
964003,1555,-7515,118901,16833,-8465,121244,873,19138,3576,0,34588,0.0010029999999999761
965000,3521,15144,125545,-11562,9779,115712,971,19141,3977,0,34589,0.0009970000000000256
966000,-817,10016,129589,-6196,9508,122623,880,19129,3604,1,34590,0.0010000000000000009
967000,1172,-2763,126581,6432,-989,124789,702,19129,2875,1,34591,0.0010000000000000009
968000,-4378,-6184,128363,-14197,-8298,135858,1151,19116,2875,0,34592,0.0010000000000000009
969001,-137,2391,129909,-4973,1275,126537,979,19136,4714,1,34593,0.0010010000000000296
970000,-4748,6693,128475,7321,1740,126651,979,19133,4010,1,34594,0.0009989999999999721
971000,1141,2173,135162,-14357,1111,131492,725,19099,2969,0,34595,0.0010000000000000009
972000,5124,-3100,134417,-7219,-2534,138016,710,19099,2908,0,34596,0.0010000000000000009
973000,-6192,-4781,133702,6288,-6835,137608,1121,19099,4591,1,34597,0.0010000000000000009
974000,986,-2956,138127,-9910,-3984,136601,820,19162,4591,0,34598,0.0010000000000000009
975002,508,-16959,127975,10627,-24137,145869,760,19089,3358,0,34599,0.0010019999999999474
976000,-2722,11435,133627,2580,9391,121344,760,19110,3113,1,34600,0.0009980000000000544
977000,19340,-4806,129287,-28653,-4379,134432,756,19134,3096,1,34601,0.0010000000000000009
978001,195,18289,131876,43324,16063,118745,942,19121,3858,0,34602,0.0010010000000000296
979000,1246,-13307,119737,-1083,-10854,129533,897,19121,3674,1,34603,0.0009989999999999721
980000,-9339,11512,128319,-34521,-234,116791,625,19085,3674,1,34604,0.0010000000000000009
981000,9900,-2812,127594,23920,2328,134770,896,19136,2560,0,34605,0.0010000000000000009
982001,5122,5308,120290,9766,21508,98636,896,19128,3670,0,34606,0.0010009999999999186
983000,-6348,28210,129125,-9250,12822,118317,955,19078,3911,1,34607,0.0009990000000000832
984000,12557,-14910,116795,-12210,-16084,129261,650,19108,2662,0,34608,0.0010000000000000009
985000,-904,14352,123043,9012,13128,111193,874,19122,3580,0,34609,0.0010000000000000009
986002,890,5923,130975,-9860,-807,127695,974,19122,3580,1,34610,0.0010019999999999474
987000,-1778,1274,126684,-6013,-1922,121603,809,19166,3989,1,34611,0.0009980000000000544
988000,-1448,-7755,129660,-4864,-9079,140240,809,19082,3313,0,34612,0.0010000000000000009
989000,-182,1271,130066,-2013,2088,126864,919,19111,3764,1,34613,0.0010000000000000009
990000,-7244,10569,127517,-10087,2386,123822,1004,19167,4112,1,34614,0.0010000000000000009
991000,3525,1098,136266,58,-2177,136036,806,19127,3301,0,34615,0.0010000000000000009
992000,3576,-2030,134051,-3691,-6425,138123,867,19127,3301,0,34616,0.0010000000000000009
993000,-6972,-12775,133940,-7902,-12305,141580,907,19088,3551,1,34617,0.0010000000000000009
994000,4221,-398,136005,5372,-1323,131379,907,19138,3715,0,34618,0.0010000000000000009
995000,-3713,-1689,129835,3311,-9658,138098,944,19132,3866,0,34619,0.0010000000000000009
996000,10705,-4631,131269,-26612,-2793,129413,867,19117,3551,1,34620,0.0010000000000000009
997000,15675,19347,137402,24579,19249,120921,669,19108,2740,1,34621,0.0010000000000000009
998000,-1849,-3480,126238,24174,-7909,129858,1125,19108,2740,0,34622,0.0010000000000000009
999003,-5347,-4377,126820,-41428,-7119,122730,980,19138,4608,1,34623,0.0010029999999999761
1000000,-4541,-5038,125928,5505,-11911,137216,980,19133,4014,1,34624,0.0009970000000000256
1001000,11470,15338,125526,26358,18072,106644,701,19111,2871,0,34625,0.0009999999999998899
1002012,-1905,27680,128264,-10694,24878,105316,737,19101,3019,0,34626,0.0010120000000000129
1003000,3578,-11742,119356,-3305,-14818,132723,1084,19144,4440,1,34627,0.0009879999999999889
1004000,3918,-2090,118798,7475,-2533,116133,806,19144,4440,0,34628,0.001000000000000112
1005000,1204,19777,127155,-8571,15364,117395,722,19079,3301,0,34629,0.0009999999999998899
1006000,2973,9050,127524,-2216,5860,118166,722,19103,2957,1,34630,0.001000000000000112
1007000,-4524,-12757,125566,3823,-12685,134466,760,19141,3113,1,34631,0.0009999999999998899
1008000,4248,-1319,129182,-17365,-2591,133502,910,19099,3727,0,34632,0.001000000000000112
1009000,-2822,5194,128438,5910,3356,123576,859,19087,3518,1,34633,0.0009999999999998899
1010000,-1999,12456,129642,-2007,6463,124811,690,19087,2826,1,34634,0.001000000000000112
1011000,4441,-3207,134830,-21555,-5948,137103,864,19140,2826,0,34635,0.0009999999999998899
1012003,-375,-8095,134813,10064,-8044,141056,954,19124,3539,0,34636,0.0010030000000000872
1013000,-7693,-3162,134593,1381,-4613,134879,954,19067,3907,1,34637,0.0009969999999999146
1014000,-786,-8484,133015,-18365,-11498,139511,592,19112,2425,0,34638,0.001000000000000112
1015000,1480,3012,131918,19424,-3350,134108,912,19133,3735,0,34639,0.0009999999999998899
1016000,4446,4997,131340,-9399,3589,127880,931,19133,3813,1,34640,0.001000000000000112
1017000,20310,6528,134272,-9631,5164,124548,791,19156,3813,1,34641,0.0009999999999998899
1018000,-3865,-806,129887,44207,1337,128774,906,19092,3240,0,34642,0.001000000000000112
1019000,-2175,-17492,120140,-22756,-23113,133235,906,19101,3711,1,34643,0.0009999999999998899
1020000,-8273,23010,132989,-19534,17056,114497,1089,19169,4460,1,34644,0.001000000000000112
1021001,11513,-142,121999,22152,-458,129187,787,19130,3223,0,34645,0.0010010000000000296
1022000,4774,21469,122714,3915,18858,101509,851,19130,3485,0,34646,0.0009989999999999721
1023002,-2673,3409,124372,-7485,8005,119424,975,19089,3485,1,34647,0.0010019999999999474
1024000,11850,-9264,116888,-549,-14191,128662,919,19148,3993,0,34648,0.0009980000000000544
1025000,-2859,18009,126851,9126,12105,121697,919,19122,3764,0,34649,0.0009999999999998899
1026000,2156,3029,127109,-12258,3188,122953,859,19098,3518,1,34650,0.001000000000000112
1027001,-884,-2285,124934,-2376,1018,126782,625,19115,2560,1,34651,0.0010010000000000296
1028000,1,-7511,128731,2732,-9708,136238,1101,19134,4509,0,34652,0.0009989999999999721
1029002,489,11300,130038,-12284,9277,120193,945,19134,4509,1,34653,0.0010019999999999474
1030000,-3664,9591,131039,-8411,-3064,134460,676,19128,3870,1,34654,0.0009980000000000544
1031000,3864,-6513,133684,4595,-12213,136637,676,19116,2769,0,34655,0.0009999999999998899
1032001,-4385,-8479,132852,-7465,-10744,137551,757,19115,3100,0,34656,0.0010010000000000296
1033002,-5490,-7781,134651,-8122,-6889,141662,1065,19132,4362,1,34657,0.0010010000000000296
1034001,5769,10849,137722,7030,5091,130399,788,19086,3227,0,34658,0.0009989999999999721
1035000,-57,-2924,128767,9841,-8115,132287,715,19086,3227,0,34659,0.0009989999999999721
1036000,1676,11156,134392,-24171,4907,124320,791,19106,2928,1,34660,0.001000000000000112
1037000,18250,-18594,129033,15160,-21493,142294,791,19145,3240,1,34661,0.0009999999999998899
1038000,-3349,3400,130918,30382,8301,119864,897,19101,3674,0,34662,0.001000000000000112
1039000,-2437,4871,123521,-46388,-1321,120810,872,19085,3571,1,34663,0.0009999999999998899
1040000,-4583,17702,127314,3532,13023,119071,761,19143,3117,1,34664,0.001000000000000112
1041000,13624,4039,123427,30729,-5914,124439,902,19143,3117,0,34665,0.0009999999999998899
1042000,3063,2067,120148,-3783,7119,109174,945,19137,3694,0,34666,0.001000000000000112
1043000,-5122,20692,128544,-15501,15201,112324,945,19070,3870,1,34667,0.0009999999999998899
1044000,8642,-13117,118287,-1581,-17242,133224,658,19120,2695,0,34668,0.001000000000000112
1045002,-2556,15674,125598,8125,12512,114495,962,19129,3940,0,34669,0.0010019999999999474
1046000,50,7162,127668,-8583,727,123876,925,19165,3789,1,34670,0.0009980000000000544
1047000,-2764,-665,123307,-6812,-2267,121900,793,19165,3789,1,34671,0.0009999999999998899
1048000,5908,-3767,130788,-10672,-6090,136752,935,19088,3248,0,34672,0.001000000000000112
1049000,512,-545,126436,9607,-1779,129723,935,19102,3829,1,34673,0.0009999999999998899
1050000,-6029,20702,130960,-13543,12576,118247,1074,19181,4399,1,34674,0.001000000000000112
1051000,5771,-6509,133328,-12958,-12625,144197,759,19128,3109,0,34675,0.0009999999999998899
1052000,-561,-8562,134268,10088,-8304,138031,825,19099,3379,0,34676,0.001000000000000112
1053000,-6998,-8833,133843,-8426,-11206,140294,1051,19099,3379,1,34677,0.0009999999999998899
1054000,-459,6221,135645,-1941,4026,126843,910,19144,4305,0,34678,0.001000000000000112
1055002,1998,1007,130085,2333,-7437,139184,910,19127,3727,0,34679,0.0010019999999999474
1056000,13491,-4510,129122,-19403,-8926,132279,860,19084,3522,1,34680,0.0009980000000000544
1057000,5614,26312,137871,25064,27444,113618,591,19124,2421,1,34681,0.0009999999999998899
1058000,-2728,-21185,122507,9704,-22910,141852,1066,19143,4366,0,34682,0.001000000000000112
1059000,-9509,-2837,125658,-29529,-7892,120554,992,19143,4063,1,34683,0.0009999999999998899
1060000,2734,1930,122984,3111,-5411,134764,670,19113,4063,1,34684,0.001000000000000112
1061004,10750,34259,124096,23331,30393,96991,793,19114,2744,0,34685,0.0010040000000000049
1062002,1923,11154,126379,-11839,14719,111044,793,19102,3248,0,34686,0.0009979999999998324
1063001,3914,-20658,118298,2583,-23883,138318,1048,19129,4292,1,34687,0.0009989999999999721
1064001,713,11365,122464,12166,6255,111758,784,19090,3211,0,34688,0.001000000000000112
1065003,1384,20677,127621,-16150,14395,117733,773,19090,3166,0,34689,0.0010019999999999474
1066000,592,3638,124511,1888,2351,120882,746,19113,3166,1,34690,0.0009970000000001367
1067000,-99,-11007,124884,-398,-13085,133537,890,19142,3055,1,34691,0.0009999999999998899
1068000,2818,6100,131952,-17904,3282,129735,890,19088,3645,0,34692,0.001000000000000112
1069000,-7767,-3019,124004,16843,-6534,129647,832,19086,3408,1,34693,0.0009999999999998899
1070000,549,17832,130145,-19697,8485,123266,786,19153,3219,1,34694,0.001000000000000112
1071000,8552,3645,133922,-17360,3598,135313,876,19153,3588,0,34695,0.0009999999999998899
1072000,5114,-4761,133810,20049,-4395,133495,921,19146,3588,0,34696,0.0009999999999998899
1073000,-10302,-14629,134604,-7644,-14208,143762,711,19073,3772,1,34697,0.001000000000000112
1074001,2620,-13733,132593,-9639,-20726,139449,711,19126,2912,0,34698,0.0010010000000000296
1075005,-2669,13745,132828,17434,4374,128251,921,19134,3772,0,34699,0.0010040000000000049
1076000,9320,7589,129969,-27947,5245,126102,931,19135,3813,1,34700,0.0009949999999998571
1077000,12076,20292,135656,8967,10249,123814,764,19095,3129,1,34701,0.001000000000000112
1078000,-5778,-20094,122496,39707,-26935,137052,925,19095,3129,0,34702,0.0009999999999998899
1079000,-2783,-1108,125455,-32323,2499,118177,1060,19112,3789,1,34703,0.001000000000000112
1080000,-383,9478,127446,-7725,-1884,130463,1060,19169,4341,1,34704,0.0009999999999998899
1081000,13164,11829,120748,12795,16590,105262,770,19119,3154,0,34705,0.001000000000000112
1082000,-4709,20369,127371,-13611,10760,114199,815,19094,3338,0,34706,0.0009999999999998899
1083000,1512,-12747,119462,-13638,-13485,129711,1147,19158,4698,1,34707,0.001000000000000112
1084002,4869,11356,121479,13809,12696,108227,892,19158,4698,0,34708,0.0010019999999999474
1085000,1851,15706,126990,-6617,4998,124523,836,19116,3653,0,34709,0.0009980000000000544
1086000,3360,1008,122972,-4190,-3765,120441,836,19098,3424,1,34710,0.0009999999999998899
1087000,-1841,-6774,125632,-6407,-9039,130895,607,19120,2486,1,34711,0.001000000000000112
1088001,4292,1471,129335,-6602,2984,131066,1042,19141,4268,0,34712,0.0010010000000000296
1089000,-6082,6845,125462,1204,1853,123716,928,19112,3801,1,34713,0.0009989999999999721
1090000,358,11797,130643,-16867,3067,131442,620,19112,3801,1,34714,0.0009999999999998899
1091000,9540,4221,134346,2877,-3060,136009,811,19129,2539,0,34715,0.001000000000000112
1092000,-94,-13471,133071,7314,-16760,141072,811,19112,3322,0,34716,0.0009999999999998899
1093000,-9663,-12469,135669,-17427,-13445,138252,1017,19124,4165,1,34717,0.001000000000000112
1094000,4376,-6925,131436,1999,-12350,142040,760,19098,3113,0,34718,0.0009999999999998899
1095000,-4238,11469,129738,8585,4242,127700,772,19112,3162,0,34719,0.001000000000000112
1096000,12702,19239,131256,-30650,13539,120327,900,19112,3162,1,34720,0.0009999999999998899
1097000,8723,7098,131950,31039,3556,128664,859,19159,3686,1,34721,0.001000000000000112
1098000,-5188,-17458,125473,11575,-20729,133427,859,19089,3518,0,34722,0.0009999999999998899
1099000,-1814,-12241,123905,-40599,-16660,129828,785,19091,3215,1,34723,0.001000000000000112
1100000,-974,17621,127419,21996,9444,121410,804,19143,3293,1,34724,0.0009999999999998899
1101000,14692,18382,120484,11104,14700,109556,873,19138,3576,0,34725,0.001000000000000112
1102000,-2314,19059,125210,-9393,17676,108265,916,19138,3576,1,34726,0.0009999999999998899
1103000,2287,-9077,119484,-89,-11315,129116,809,19078,3752,1,34727,0.001000000000000112
1104000,3349,3244,119316,1028,-999,114923,809,19125,3313,0,34728,0.0009999999999998899
1105001,-2176,20762,129606,-4746,12907,118070,1051,19152,4305,0,34729,0.0010010000000000296
1106000,5129,-324,123703,-5527,-4110,126128,906,19131,3711,1,34730,0.0009989999999999721
1107000,-8125,-5567,125664,6661,-6919,127969,750,19107,3072,1,34731,0.001000000000000112
1108000,1662,-1613,128372,-18457,-4111,134067,957,19107,3920,0,34732,0.0009999999999998899
1109001,-3371,9171,126041,-6569,3819,122864,1028,19112,3920,1,34733,0.0010010000000000296
1110001,3598,19015,132028,2028,11277,126546,730,19158,4210,1,34734,0.001000000000000112
1111000,10963,-4682,130613,-8494,-6946,138516,730,19118,2990,0,34735,0.0009989999999999721
1112000,-3449,-11923,133737,2292,-12852,137456,776,19100,3178,1,34736,0.0009999999999998899
1113002,-7239,-14358,133583,-4103,-17125,143867,1184,19164,4849,1,34737,0.0010020000000001694
1114000,692,-2772,130797,-9784,-8291,137466,861,19164,3526,0,34738,0.0009979999999998324
1115000,-1111,16816,132538,14481,5386,128592,835,19117,3526,0,34739,0.001000000000000112
1116000,10164,12262,128689,-20574,10227,123231,659,19100,3420,1,34740,0.0009999999999998899
1117002,13361,5441,133004,5150,3626,125454,659,19127,2699,0,34741,0.0010020000000001694
1118000,-5007,-13277,127981,40839,-10355,135051,1000,19128,4096,0,34742,0.0009979999999998324
1119003,-6548,-13023,121576,-33255,-24399,121133,923,19096,3780,1,34743,0.0010030000000000872
1120000,-783,27684,131547,-10414,18050,119597,588,19123,2408,1,34744,0.0009969999999999146
1121001,16405,8541,118662,23582,8626,113713,788,19123,2408,0,34745,0.0010010000000000296
1122000,-4395,17223,121734,3263,15429,107090,1010,19123,3227,1,34746,0.0009989999999999721
1123000,109,-1478,122628,-11876,-10259,129343,1010,19110,4137,1,34747,0.001000000000000112
1124000,7694,-493,118820,-3132,5118,112766,751,19098,3076,0,34748,0.0009999999999998899
1125000,956,21675,128322,11859,8088,123740,864,19117,3539,0,34749,0.001000000000000112
1126000,2440,-5487,122093,-9265,-8600,126146,835,19156,3420,1,34750,0.0009999999999998899
1127000,-7361,-2295,124188,521,-3602,125265,855,19156,3420,0,34751,0.001000000000000112
1128000,2109,2426,129493,-14466,1366,133485,752,19074,3502,0,34752,0.0009999999999998899
1129000,-3173,10188,127367,3938,9196,120633,752,19098,3080,1,34753,0.001000000000000112
1130000,2389,12614,130447,-9991,-1026,135181,837,19153,3428,1,34754,0.0009999999999998899
1131000,9002,-8000,129640,-1607,-10643,137598,826,19133,3383,0,34755,0.001000000000000112
1132000,-3410,-3332,134139,4627,-9035,135960,889,19086,3641,1,34756,0.0009999999999998899
1133000,-7971,-14603,133992,-20518,-15474,144222,849,19086,3641,1,34757,0.001000000000000112
1134000,4981,2812,133306,4944,-2418,132852,1019,19135,3477,0,34758,0.0009999999999998899
1135000,-2917,11681,131532,19262,4790,128593,1019,19142,4174,0,34759,0.001000000000000112
1136002,6625,9255,129615,-40398,3238,124451,910,19134,3727,1,34760,0.0010019999999999474
1137000,14883,2499,131933,22764,-1263,130372,730,19105,2990,0,34761,0.0009980000000000544
1138000,-8687,-7119,128047,27271,-10892,130969,988,19118,4047,0,34762,0.0009999999999998899
1139000,-1612,-5568,122481,-45303,-7972,120834,1019,19118,4047,1,34763,0.001000000000000112
1140000,-2012,16601,128654,16099,6767,125816,742,19151,4174,1,34764,0.0009999999999998899
1141000,19326,3837,116264,18625,1504,117403,742,19109,3039,0,34765,0.001000000000000112
1142000,-5770,28077,124530,-5941,26950,98162,752,19101,3080,1,34766,0.0009999999999998899
1143000,-813,242,123384,-14357,-5333,129588,1158,19169,4743,1,34767,0.001000000000000112
1144000,6809,-10128,116312,5196,-12826,120804,836,19110,3424,0,34768,0.0009999999999998899
1145000,-3884,23153,129257,2738,14050,118538,796,19110,3424,1,34769,0.001000000000000112
1146000,6644,2794,124583,-9407,-999,124695,708,19101,3260,1,34770,0.0009999999999998899
1147002,-10321,-5370,124359,3248,-8512,125336,708,19133,2900,0,34771,0.0010019999999999474
1148000,5170,-4208,129485,-22686,-6655,139625,978,19109,4006,0,34772,0.0009980000000000544
1149000,-2485,12932,127057,4012,8641,118795,902,19083,3694,1,34773,0.001000000000000112
1150000,3471,19989,131208,786,11408,124688,565,19130,2314,1,34774,0.0009999999999998899
1151004,9405,-12429,129271,-16598,-16651,144813,796,19130,3260,0,34775,0.0010040000000000049
1152000,-6967,-8240,134098,9311,-10893,135992,987,19119,3260,1,34776,0.0009959999999999969
1153000,-5162,-9616,134598,-10449,-12212,142723,711,19101,4042,1,34777,0.001000000000000112
1154000,-420,246,132995,-4548,-4556,130796,711,19104,2912,0,34778,0.0009999999999998899
1155000,2040,8335,128916,8359,-150,134143,884,19117,3621,1,34779,0.001000000000000112
1156001,10964,8055,128332,-22906,3602,125239,994,19173,4071,1,34780,0.0010010000000000296
1157000,3448,18557,134270,20838,18466,117049,827,19173,3387,0,34781,0.0009989999999999721
1158001,-5328,-24958,121889,15867,-24999,142740,786,19081,3387,0,34782,0.0010010000000000296
1159000,-7402,-7388,123441,-35849,-16025,122475,1025,19099,3219,1,34783,0.0009989999999999721
1160000,5941,16494,126293,5505,6793,127596,1025,19163,4198,1,34784,0.0009999999999998899
1161000,16444,23738,120279,25200,18396,108231,814,19121,3334,0,34785,0.001000000000000112
1162000,-2592,15842,124349,-2988,19722,104921,866,19088,3547,1,34786,0.0009999999999998899
1163000,3149,-10566,119124,-15452,-13055,131457,874,19134,3580,1,34787,0.001000000000000112
1164002,1274,7845,122962,7205,220,113851,980,19134,3580,0,34788,0.0010019999999999474
1165000,-356,13368,127716,5045,5978,127909,884,19144,4014,1,34789,0.0009980000000000544
1166000,-3644,-1778,123105,-12217,-5060,121840,884,19130,3621,1,34790,0.0009999999999998899
1167000,-4379,-1061,125980,-2627,-4637,131615,704,19112,2883,0,34791,0.001000000000000112
1168000,1852,11197,129000,-4913,5297,121712,1134,19130,4645,0,34792,0.0009999999999998899
1169000,-3902,9050,127219,-6330,6655,127218,981,19136,4018,1,34793,0.001000000000000112
1170000,7996,4584,129957,-9326,-5415,136834,731,19136,4018,0,34794,0.0009999999999998899
1171000,1577,-8837,129387,4636,-11002,136901,714,19099,2994,0,34795,0.001000000000000112
1172000,-1907,-8070,132327,-748,-9874,138661,714,19100,2924,1,34796,0.0009999999999998899
1173000,-6647,-2206,135312,-16009,-2213,136605,1130,19155,4628,1,34797,0.001000000000000112
1174000,6539,-3818,129884,21822,-10626,140748,822,19094,3367,0,34798,0.0009999999999998899
1175001,-1472,15646,129963,-3692,12763,116911,767,19100,3141,1,34799,0.0010010000000000296
1176000,11519,7739,130881,-31211,-3720,132855,747,19100,3141,1,34800,0.0009989999999999721
1177000,7357,-9716,129103,47265,-10970,134860,947,19133,3059,0,34801,0.001000000000000112
1178000,-8744,-2886,127480,-9133,-7428,125185,947,19107,3879,0,34802,0.0009999999999998899
1179000,-7877,1344,124266,-30100,2798,122327,899,19082,3682,1,34803,0.001000000000000112
1180001,5993,25644,126548,21850,15171,117419,609,19134,2494,0,34804,0.0010009999999998076
1181002,17315,-3683,115832,9557,-4285,122199,823,19123,3371,0,34805,0.0010010000000000296
1182000,-5411,19678,123360,-1856,20512,101800,970,19123,3371,1,34806,0.0009980000000000544
1183000,2677,2891,124046,-17532,-4688,127091,658,19081,3973,1,34807,0.001000000000000112
1184000,3775,-9425,120697,16105,-9706,123634,658,19113,2695,0,34808,0.0009999999999998899
1185002,346,17286,126013,-2135,8599,120245,870,19130,3563,1,34809,0.0010019999999999474
1186000,-4738,4384,122978,-11529,2528,122053,976,19166,3997,1,34810,0.0009980000000000544
1187000,-3181,4800,126326,-6014,901,123936,811,19079,3322,0,34811,0.001000000000000112
1188000,2716,-4716,127956,-9123,-6641,137112,912,19079,3322,0,34812,0.0009999999999998899
1189010,-4405,12695,128771,10114,9772,118741,979,19095,3735,1,34813,0.0010099999999999554
1190002,8014,5976,129418,-20139,-4014,133543,979,19160,4010,0,34814,0.000992000000000104
1191000,3459,-10460,131802,3433,-12929,143531,800,19125,3277,0,34815,0.0009979999999998324
1192000,-5391,-3480,133160,3427,-6571,136914,869,19085,3559,1,34816,0.001000000000000112
1193000,-6329,-9140,132862,-30319,-12155,139822,892,19141,3653,1,34817,0.0009999999999998899
1194000,815,10078,136059,25034,6537,126431,959,19141,3653,0,34818,0.001000000000000112
1195000,8673,-6004,123821,-2543,-14431,141676,876,19151,3928,1,34819,0.0009999999999998899
1196000,5082,9850,132148,-23469,6710,119269,876,19117,3588,1,34820,0.001000000000000112
1197000,5126,13381,132264,27457,11381,124662,687,19105,2814,0,34821,0.0009999999999998899
1198000,-10729,-20204,121105,2430,-22537,137189,1109,19138,4542,0,34822,0.001000000000000112
1199002,-6170,1836,129214,-29116,-2705,120579,989,19131,4051,1,34823,0.0010019999999999474
1200000,11986,2074,118414,12248,-7138,135375,715,19131,2928,0,34824,0.0009980000000000544
1201000,7858,33916,123458,24693,29243,93755,731,19103,2928,0,34825,0.0009999999999998899
1202000,4241,8515,124994,-20815,10006,115787,1103,19100,2994,1,34826,0.001000000000000112
1203000,-2171,-12110,118566,-1247,-15461,130733,1103,19151,4518,1,34827,0.0009999999999998899
1204003,1967,6320,123714,15732,1153,115654,810,19084,3318,0,34828,0.0010030000000000872
1205000,-2077,17666,125358,-18741,8237,120739,738,19111,3023,1,34829,0.0009969999999999146
1206000,-2846,9574,125751,1813,8027,115668,771,19111,3158,1,34830,0.001000000000000112
1207000,70,-7026,127492,-7478,-9606,135114,928,19138,3158,0,34831,0.0009999999999998899
1208000,-4022,-1012,130955,-15810,-4330,132556,872,19105,3801,0,34832,0.001000000000000112
1209000,-6300,1612,126830,15144,-3744,126377,872,19085,3571,1,34833,0.0009999999999998899
1210000,7430,9712,127512,-19077,1327,128182,658,19136,2695,0,34834,0.001000000000000112
1211002,7632,1059,132139,-2353,-1277,137324,845,19129,3461,0,34835,0.0010019999999999474
1212000,270,579,132095,11841,-1396,135134,956,19072,3915,1,34836,0.0009980000000000544
1213000,-8310,-6314,135638,-24996,-7898,139491,622,19072,3915,1,34837,0.0009999999999998899
1214000,3354,-17620,131518,5212,-19493,143373,901,19111,2548,0,34838,0.001000000000000112
1215000,-4110,3873,126372,11121,-8799,126133,901,19120,3690,1,34839,0.0009999999999998899
1216000,11493,9945,130792,-33601,9773,126983,954,19169,3907,1,34840,0.001000000000000112
1217000,7086,14959,131866,24220,8386,125509,799,19087,3272,0,34841,0.0009999999999998899
1218000,-7710,-11079,119686,22700,-15052,127480,888,19100,3637,0,34842,0.001000000000000112
1219000,-5079,4698,127507,-42917,7358,119880,1062,19100,3637,1,34843,0.0009999999999998899
1220002,9574,4884,123746,7533,-5456,131832,796,19166,4350,0,34844,0.0010020000000001694
1221000,10882,3227,118821,5569,12108,107814,796,19124,3260,0,34845,0.0009979999999998324
1222000,-8773,25307,127672,-14885,18904,111085,860,19092,3522,1,34846,0.001000000000000112
1223000,3853,-3890,119677,-5523,-9139,128607,950,19147,3891,1,34847,0.0009999999999998899
1224001,2733,6924,123448,15992,7583,113258,928,19124,3801,0,34848,0.0010010000000000296
1225000,1938,13067,126155,-6324,3681,125175,865,19124,3801,1,34849,0.0009989999999999721
1226004,-4092,4598,124510,-11279,3853,116761,644,19098,3543,1,34850,0.0010040000000000049
1227000,-2920,-6104,129094,-2087,-9825,136263,644,19113,2638,0,34851,0.0009959999999999969
1228001,-1793,-2324,129888,-1910,-2186,133425,1116,19145,4571,0,34852,0.0010010000000000296
1229002,-8017,11145,127658,-4746,7638,120519,952,19135,3899,1,34853,0.0010010000000000296
1230000,5873,7691,129222,-12243,1948,132609,690,19117,2826,0,34854,0.0009980000000000544
1231000,6458,634,133006,-1565,-2153,136197,752,19117,2826,0,34855,0.0009999999999998899
1232003,-2151,-16865,130821,4176,-19706,144757,1076,19104,3080,1,34856,0.0010030000000000872
1233002,-2646,-3698,135367,-10652,-4481,133278,1076,19138,4407,1,34857,0.0009989999999999721
1234002,-1846,519,132213,19159,-4626,135028,807,19081,3305,0,34858,0.001000000000000112
1235002,4043,-4143,125335,-18012,-10190,137284,715,19107,2928,1,34859,0.0009999999999998899
1236000,14078,16631,134558,-10465,16350,117804,768,19141,3146,1,34860,0.0009980000000000544
1237000,871,1785,128113,49077,-1796,132608,906,19141,3146,0,34861,0.0009999999999998899
1238000,-6913,-8343,124786,-31241,-9284,121720,872,19099,3711,0,34862,0.001000000000000112
1239000,-5593,-2377,129793,-13727,-6692,131568,872,19090,3571,1,34863,0.0009999999999998899
1240000,12739,7671,119953,30219,2942,123829,731,19135,2994,0,34864,0.001000000000000112
1241000,1936,32604,125788,-8856,31862,94599,894,19135,3662,0,34865,0.0009999999999998899
1242000,806,-4690,121411,-5708,-6758,129995,944,19072,3866,1,34866,0.001000000000000112
1243000,1332,-6168,117350,4627,-8743,120681,623,19072,2552,1,34867,0.0009999999999998899
1244001,-427,17331,127736,-1494,13309,113509,946,19114,2552,0,34868,0.0010010000000000296
1245000,7847,14870,126483,-9542,9141,120403,938,19134,3875,1,34869,0.0009989999999999721
1246000,-7647,-9062,122967,11300,-10588,126330,938,19152,3842,1,34870,0.001000000000000112
1247000,-2521,-8068,127564,-11474,-12019,134984,783,19094,3207,0,34871,0.0009999999999998899
1248000,-3598,11806,130668,-25966,10091,122743,949,19109,3887,0,34872,0.001000000000000112
1249000,-3074,10449,129791,22575,5854,125921,1070,19109,4382,1,34873,0.0009999999999998899
1250000,7512,5848,130071,-12779,685,130883,773,19178,4382,0,34874,0.001000000000000112
1251000,1285,-12603,132343,-17066,-14692,141423,836,19126,3166,0,34875,0.0009999999999998899
1252000,-875,-8124,132866,19826,-10854,138226,836,19086,3424,1,34876,0.001000000000000112
1253000,-12000,-2039,135832,-18913,-5171,135688,1027,19147,4206,1,34877,0.0009999999999998899
1254000,11014,-5372,131403,-4767,-11207,142416,899,19125,3682,0,34878,0.001000000000000112
1255001,-1408,18278,131490,18353,13040,120028,859,19125,3518,1,34879,0.0010010000000000296
1256000,12943,-7649,126483,-28993,-6890,132298,597,19086,3518,1,34880,0.0009989999999999721
1257000,1307,9288,133999,25707,5859,123239,1085,19122,2445,0,34881,0.0009999999999998899
1258000,-5701,-20583,121226,8773,-16550,134347,1085,19136,4444,0,34882,0.001000000000000112
1259000,-5286,13512,128872,-33745,-1892,110337,959,19119,3928,1,34883,0.0009999999999998899
1260002,7419,13638,126022,12977,16601,132000,670,19116,2744,0,34884,0.0010019999999999474
1261002,12186,-813,116708,18061,-10583,104218,780,19104,3195,0,34885,0.001000000000000112
1262000,-9134,24697,127100,-951,26143,113817,1053,19104,3195,1,34886,0.0009980000000000544
1263000,9320,-11108,119302,-24426,-15507,132180,769,19125,4313,1,34887,0.0009999999999998899
1264000,1047,11945,124283,17196,14312,109546,769,19084,3150,0,34888,0.001000000000000112
1265000,877,7779,127799,-108,-2096,131855,767,19107,3141,1,34889,0.0009999999999998899
1266000,-5625,148,123819,-12938,2339,118235,817,19148,3346,1,34890,0.001000000000000112
1267000,-4718,-4499,128332,2074,-7570,134519,880,19085,3604,0,34891,0.0009999999999998899
1268000,1334,2693,129745,-7408,4610,129049,796,19085,3604,0,34892,0.001000000000000112
1269001,-5237,18641,132066,-6835,11972,120692,787,19095,3260,1,34893,0.0010010000000000296
1270002,5971,-5997,129929,-3466,-11252,141491,787,19138,3223,0,34894,0.0010009999999998076
1271000,-959,-5019,132437,-1264,-3187,131393,893,19141,3657,0,34895,0.0009980000000000544
1272000,-2900,-11159,132478,-7976,-15192,146602,928,19081,3801,1,34896,0.001000000000000112
1273000,-5393,-2976,135676,-3097,-750,133616,691,19122,2830,1,34897,0.0009999999999998899
1274000,9348,2692,129894,15139,-3731,134232,998,19122,2830,0,34898,0.001000000000000112
1275001,-2005,9379,129588,-4059,7536,125946,926,19136,4088,1,34899,0.0010010000000000296
1276000,11749,-3564,129486,-27609,-6688,129665,926,19147,3793,1,34900,0.0009989999999999721
1277000,4845,-5640,129608,51645,-6245,136685,767,19095,3141,0,34901,0.0009999999999998899
1278000,-8435,-4249,124693,-6503,-5879,122366,928,19111,3801,0,34902,0.001000000000000112
1279000,-6762,11810,127334,-40095,9614,119123,1069,19172,4378,1,34903,0.0009999999999998899
1280000,8871,9540,124802,28307,5203,126862,768,19172,4378,0,34904,0.001000000000000112
1281000,12399,2175,118302,5815,4089,111588,798,19110,3146,0,34905,0.0009999999999998899
1282000,-8653,23109,125809,-2931,21345,105560,798,19096,3268,1,34906,0.001000000000000112
1283000,8874,-9347,119853,-13017,-13214,131676,1106,19153,4530,1,34907,0.0009999999999998899
1284000,437,4739,123511,13602,2122,117388,879,19122,3600,0,34908,0.001000000000000112
1285000,1352,14711,129695,-3241,10694,122637,834,19093,3416,1,34909,0.0009999999999998899
1286001,-6722,-231,124389,-12348,422,120536,594,19093,2433,1,34910,0.0010010000000000296
1287000,-3830,-5690,128994,-1428,-7986,131343,1040,19123,2433,0,34911,0.0009989999999999721
1288000,4536,-1463,129153,-8937,-2910,134046,933,19114,4260,0,34912,0.001000000000000112
1289001,-8948,18758,130599,10989,14805,116534,933,19112,3821,1,34913,0.0010009999999998076
1290000,6147,859,132256,-20224,-1746,135437,655,19118,2683,0,34914,0.0009990000000001942
1291000,-816,-12046,133302,-8230,-12839,142579,805,19114,3297,0,34915,0.0009999999999998899
1292001,-5975,-8621,133053,12050,-10475,139552,1030,19114,4219,1,34916,0.0010010000000000296
1293000,-573,-6547,133405,-20168,-9493,136506,764,19123,4219,1,34917,0.0009989999999999721
1294000,1110,6853,131727,21105,1175,130904,813,19101,3129,0,34918,0.001000000000000112
1295000,10239,-6943,125684,-3557,-11796,139100,813,19113,3330,1,34919,0.0009999999999998899
1296000,12434,17189,135574,-21769,13901,115226,881,19153,3608,1,34920,0.001000000000000112
1297000,2846,-923,130203,45094,1832,132427,864,19076,3539,0,34921,0.0009999999999998899
1298000,-9687,-22982,121214,-14536,-27273,135282,795,19076,3256,0,34922,0.001000000000000112
1299000,-8895,10271,131599,-25934,2667,121819,805,19095,3256,1,34923,0.0009999999999998899
1300000,12113,13455,123757,24084,9083,127023,870,19148,3297,0,34924,0.001000000000000112
1301002,4058,29327,124341,2690,28803,93817,870,19139,3563,0,34925,0.0010019999999999474
1302002,2632,-6983,121287,-5383,-2189,125190,900,19076,3686,1,34926,0.0009999999999998899
1303000,2535,-8813,117863,-3443,-15222,126383,765,19125,3133,1,34927,0.0009980000000000544
1304001,2643,18640,128464,4195,12919,110781,1038,19148,4251,0,34928,0.0010010000000000296
1305000,762,7717,128264,-3002,7818,124862,906,19148,4251,1,34929,0.0009989999999999721
1306002,-5170,-7241,124428,-9987,-6153,128597,749,19146,3711,1,34930,0.0010019999999999474
1307000,-2247,-2803,129498,-2017,-8012,132045,749,19105,3068,0,34931,0.0009980000000000544
1308000,-2539,8750,129762,-13514,9979,124782,1004,19120,4112,0,34932,0.001000000000000112
1309000,-1942,6229,129654,-1364,-1047,129189,1022,19158,4186,1,34933,0.0009999999999998899
1310000,3054,1298,133353,3637,-4356,134234,754,19114,3088,0,34934,0.0009999999999998899
1311000,2214,-7724,131520,-6925,-5456,135405,792,19114,3088,0,34935,0.001000000000000112
1312000,-7069,-5156,134755,-1049,-8101,140744,1183,19094,3244,1,34936,0.0009999999999998899
1313000,404,-4234,137164,-13534,-7648,140280,1183,19173,4845,1,34937,0.001000000000000112
1314000,5407,-7222,129169,5492,-9174,134109,857,19112,3510,0,34938,0.0009999999999998899
1315000,-4341,18633,136249,-8482,15747,120393,820,19100,3358,1,34939,0.001000000000000112
1316000,16091,-13982,127211,-11461,-18493,140775,647,19126,2650,1,34940,0.0009999999999998899
1317000,-1243,2742,130257,46026,6931,123291,1010,19126,2650,0,34941,0.001000000000000112
1318005,-1126,-604,124479,-19816,-6570,126252,927,19122,4137,0,34942,0.0010049999999999226
1319000,-7204,12845,125887,-21733,13293,114821,927,19099,3797,1,34943,0.0009950000000000792
1320000,7440,6482,128899,23663,-463,128966,597,19123,2445,0,34944,0.0009999999999998899
1321000,7833,-8680,118005,4305,-2673,117899,817,19117,3346,0,34945,0.001000000000000112
1322000,-8070,28409,128657,-6782,26720,100726,986,19118,4038,1,34946,0.0009999999999998899
1323000,9616,-9113,121083,-5156,-15483,135857,739,19118,4038,1,34947,0.001000000000000112
1324000,1792,5204,121145,9524,4501,113809,854,19099,3027,0,34948,0.0009999999999998899
1325000,677,14111,131097,-7182,11387,122332,854,19114,3498,1,34949,0.001000000000000112
1326000,-6259,518,125202,-8282,1779,122096,950,19162,3891,1,34950,0.0009999999999998899
1327000,-971,-3420,128742,-3288,-5969,130408,843,19071,3453,0,34951,0.001000000000000112
1328000,325,-4533,129745,2522,-5815,138356,778,19096,3186,0,34952,0.0009999999999998899
1329001,-5083,13473,128840,-7441,9445,116334,835,19096,3420,1,34953,0.0010010000000000296
1330002,1653,3244,135979,-8414,1590,135720,850,19152,3420,0,34954,0.0010010000000000296
1331000,5830,-10056,133529,-7942,-10784,142437,850,19142,3481,0,34955,0.0009980000000000544
1332000,-9189,-8403,133607,6113,-9560,137970,907,19087,3715,1,34956,0.0009999999999998899
1333000,2574,-4981,134056,-2494,-7336,136888,839,19126,3436,1,34957,0.001000000000000112
1334000,-1935,5091,130710,9633,67,131773,1014,19146,4153,0,34958,0.0009999999999998899
1335003,13693,-10321,129625,-17460,-13161,139626,894,19146,3662,1,34959,0.0010030000000000872
1336000,11981,26793,139131,7175,28518,112104,728,19133,3662,1,34960,0.0009969999999999146
1337000,-194,-7599,126838,33014,-8132,133793,981,19106,2982,0,34961,0.001000000000000112
1338000,-7827,-10799,127185,-24779,-13042,127003,981,19116,4018,0,34962,0.0009999999999998899
1339001,-4605,-3157,126636,-10973,-8191,131922,1021,19151,4182,1,34963,0.0010010000000000296
1340000,10797,22171,126452,23518,18764,114299,738,19094,3023,0,34964,0.0009989999999999721
1341000,-173,30476,128370,-9214,34262,96186,718,19094,2941,0,34965,0.001000000000000112
1342000,6397,-19548,117576,-2557,-19453,136735,1148,19105,2941,1,34966,0.0009999999999998899
