t_us,ax,ay,az,ax1,ay1,az1,shunt_raw,bus_raw,curr_raw,pg_rpm,seq,dt
0,13398,-2301,124825,14002,-1110,127182,94,19232,385,0,50573,
1000,16463,-12399,125489,5634,-11118,133219,101,19224,414,1,50574,0.001
2000,14664,1912,124573,8809,7512,116818,83,19232,340,1,50575,0.001
3001,12143,3108,129214,6224,-2597,134087,93,19232,340,1,50576,0.0010009999999999997
4000,12750,-2307,127431,-2452,-3087,124997,114,19231,381,0,50577,0.0009990000000000003
5000,10830,3101,128901,5906,52,129697,114,19229,467,0,50578,0.001
6000,11475,-2013,129404,5563,-3378,127795,101,19231,414,0,50579,0.001
7000,14166,483,127192,5053,32,120677,83,19230,340,0,50580,0.0009999999999999992
8000,10376,-526,130639,-1021,-4757,134257,141,19231,577,1,50581,0.0010000000000000009
9000,10775,-7516,129319,933,-6624,127782,97,19231,577,1,50582,0.0009999999999999992
10000,5565,724,130729,-3773,200,130623,96,19234,397,1,50583,0.0010000000000000009
11000,6233,-7465,128679,-4878,-9421,129553,96,19226,393,0,50584,0.0009999999999999992
12000,7861,14449,130434,5570,14568,121045,132,19230,541,0,50585,0.0010000000000000009
13000,8293,-6246,127783,-2990,-14780,139748,92,19238,377,0,50586,0.0009999999999999992
14000,12131,-226,128331,-19499,8214,115376,91,19224,373,1,50587,0.0009999999999999992
15000,8817,2916,132163,15287,-8172,136151,101,19224,373,1,50588,0.0010000000000000009
16000,-1993,-13780,128674,3099,-11747,132728,102,19230,414,1,50589,0.0010000000000000009
17001,-3681,-1761,129940,-38380,-4238,131041,102,19231,418,1,50590,0.0010009999999999984
18000,2250,5961,129938,126,13220,123962,117,19226,479,0,50591,0.0009989999999999999
19001,9294,29188,129622,3312,23533,113444,108,19231,442,0,50592,0.0010010000000000019
20000,8550,-8065,127440,-8889,-14098,136589,88,19231,360,0,50593,0.0009989999999999999
21000,3106,-12229,125143,-12224,-10474,126938,128,19231,360,1,50594,0.0009999999999999974
22000,2851,-3179,130307,2120,-7726,135075,92,19222,524,1,50595,0.0010000000000000009
23000,2389,11024,132519,-6512,11929,120463,92,19233,377,1,50596,0.0010000000000000009
24000,698,4410,129035,-10395,-1927,131713,92,19230,377,0,50597,0.0010000000000000009
25000,-3183,1240,127120,-13971,3026,124233,134,19233,549,0,50598,0.0009999999999999974
26000,8414,14837,127409,-6691,12756,118152,102,19232,418,0,50599,0.0010000000000000009
27002,10511,-4429,123976,11294,-4540,130021,95,19232,389,1,50600,0.0010019999999999994
28000,8680,5105,127543,-4283,4586,120286,97,19226,389,1,50601,0.0009979999999999989
29005,7634,-7821,125167,-10208,-9108,132979,97,19232,397,1,50602,0.0010050000000000024
30002,6808,7213,128172,1918,7041,122958,97,19235,397,1,50603,0.0009969999999999979
31000,6318,-5204,124534,3489,-7601,132860,109,19227,446,0,50604,0.0009980000000000024
32000,4436,7153,125614,-11861,8789,117899,121,19232,496,0,50605,0.0010000000000000009
33001,11898,9048,125692,-1963,8497,122519,88,19232,360,0,50606,0.001000999999999995
34000,16214,2576,123054,13818,1544,127603,114,19231,360,1,50607,0.0009989999999999999
35000,11212,-2396,124615,3818,-3411,123854,96,19228,467,1,50608,0.0010000000000000009
36003,11068,-5921,126211,4212,-4942,128245,96,19234,393,1,50609,0.0010030000000000039
37000,10062,6781,127508,611,5593,129506,100,19227,410,1,50610,0.0009969999999999979
38000,14836,-3267,128355,6451,-2590,127115,134,19229,549,0,50611,0.0010000000000000009
39000,12036,8162,125845,3757,7266,118227,104,19229,426,0,50612,0.0010000000000000009
40000,13523,-25,126692,4793,461,130609,88,19233,426,0,50613,0.0010000000000000009
41000,16695,-7235,125175,3627,-5278,125816,125,19231,360,1,50614,0.000999999999999994
42000,13659,-5027,127585,14133,-5640,132553,125,19239,512,1,50615,0.0010000000000000009
43000,12878,-196,128306,6465,6158,121383,94,19234,385,1,50616,0.0010000000000000009
44000,13051,4995,127999,-4661,822,129469,97,19227,397,0,50617,0.0010000000000000009
45000,11956,-11164,126128,11869,159,130972,112,19232,459,0,50618,0.0010000000000000009
46000,12968,4281,129133,984,4581,121048,91,19232,459,0,50619,0.0010000000000000009
47000,10886,309,126130,2070,-3020,128458,105,19231,373,0,50620,0.0010000000000000009
48000,11233,-3298,129957,4897,-4524,128838,105,19224,430,1,50621,0.0010000000000000009
49000,7838,-8177,129487,-629,-13699,135433,85,19232,348,1,50622,0.000999999999999994
50000,6329,-4151,129536,-8448,1929,123309,92,19232,377,1,50623,0.0010000000000000009
51000,11016,11158,130503,6436,7268,127052,121,19229,496,0,50624,0.0010000000000000009
52000,7836,415,127811,12584,972,129106,102,19229,496,0,50625,0.0010000000000000009
53000,2861,4651,130551,-32326,1292,124305,83,19232,418,0,50626,0.0010000000000000009
54000,17551,-6384,131467,5108,-7245,130835,83,19229,340,1,50627,0.0010000000000000009
55000,-1160,-5631,130073,25158,-12855,135500,143,19232,586,1,50628,0.0010000000000000009
56000,2264,-17930,129069,-31771,-7991,130083,107,19232,438,1,50629,0.000999999999999994
57000,-2720,13075,131629,-12914,14325,122045,104,19224,426,0,50630,0.0010000000000000009
58000,4918,8973,127632,2057,6935,129866,125,19224,426,0,50631,0.0010000000000000009
59000,9655,13359,128734,-12165,12627,115623,99,19231,512,0,50632,0.0010000000000000009
60000,4275,-7552,126295,662,-15919,137188,99,19232,405,0,50633,0.0010000000000000009
61002,6582,-11739,127084,-5179,-5302,129189,98,19221,401,1,50634,0.0010020000000000029
62002,-1455,2122,130875,-4976,-2998,131659,121,19233,496,1,50635,0.000999999999999994
63000,3177,-1943,127702,-13303,3550,124569,94,19232,385,1,50636,0.0009980000000000058
64000,2058,22381,130530,-12051,17321,117991,111,19232,385,0,50637,0.0010000000000000009
65002,1295,-10419,124828,2424,-15477,138424,105,19227,455,0,50638,0.001001999999999989
66000,3997,5522,126532,-6515,10334,115503,105,19230,430,0,50639,0.0009980000000000128
67000,8744,7230,126969,-3246,1014,125053,89,19230,365,1,50640,0.000999999999999987
68000,11257,7459,126790,7827,9093,119496,132,19235,541,1,50641,0.0010000000000000009
69000,6072,-2325,127053,-10184,-10961,135376,98,19231,401,1,50642,0.0010000000000000009
70000,10438,-15761,125341,-6622,-10831,129659,99,19231,401,1,50643,0.0010000000000000009
71000,1594,15545,126939,18208,13945,117808,151,19231,405,0,50644,0.0010000000000000009
72001,4989,-1815,125022,-19380,-1431,129857,151,19231,618,0,50645,0.0010010000000000019
73003,13204,13759,126841,-7636,15024,113274,99,19232,405,0,50646,0.0010020000000000029
74000,17248,-2289,124271,27307,-6430,137182,89,19227,365,1,50647,0.0009969999999999979
75000,13042,736,123022,3768,1129,113944,83,19233,340,1,50648,0.0010000000000000009
76000,8206,-6872,125852,-3245,-9954,130998,102,19233,418,1,50649,0.0010000000000000009
77001,14466,-6678,126373,6357,-4262,132497,112,19232,418,0,50650,0.0010010000000000019
78000,12173,19578,130750,8453,19432,117221,102,19227,459,0,50651,0.0009989999999999999
79000,9806,1465,126445,-3634,110,132007,102,19231,418,0,50652,0.0010000000000000009
80000,13970,-2477,124480,6231,-2821,118363,86,19234,352,0,50653,0.0010000000000000009
81000,15207,-13049,125447,10081,-13928,136634,116,19228,475,1,50654,0.0010000000000000009
82000,18417,4024,128983,7784,5132,122654,93,19228,381,1,50655,0.000999999999999987
83000,11575,922,127937,11496,51,124669,92,19234,381,1,50656,0.0010000000000000009
84000,13449,13,128639,-3224,-1112,125726,132,19234,377,0,50657,0.0010000000000000009
85001,9432,-2026,127334,1759,-3367,131746,132,19231,541,0,50658,0.0010010000000000019
86000,11593,-1500,129522,8632,-1934,125556,100,19234,410,0,50659,0.0009989999999999999
87000,13601,3158,127213,2168,2429,120818,86,19226,352,1,50660,0.0010000000000000009
88000,9112,-2216,130115,-1559,-2732,134143,125,19226,512,1,50661,0.0010000000000000009
89000,11024,-6912,129388,4778,-7906,131728,96,19236,512,1,50662,0.0010000000000000009
90000,3442,-7550,128845,-1211,-2193,134324,104,19230,393,1,50663,0.0010000000000000009
91000,7692,-2903,126274,-10713,8218,115889,104,19225,426,0,50664,0.0010000000000000009
92000,10238,19652,132269,10068,11909,130316,117,19230,479,0,50665,0.0010000000000000009
93000,8590,-14349,125665,-14205,-18366,135243,86,19232,352,0,50666,0.0010000000000000009
94001,11904,4543,131146,-13930,7163,116707,105,19225,430,1,50667,0.0010010000000000019
95000,4135,-2483,129804,24396,-13354,141529,98,19225,430,1,50668,0.0009989999999999999
96000,-2065,-7320,131077,-15672,-2759,124332,100,19226,401,1,50669,0.0010000000000000009
97000,-2752,-6301,128824,-26921,-9659,140368,100,19232,410,0,50670,0.000999999999999987
98000,2129,8897,130418,-937,24910,112538,132,19224,541,0,50671,0.0010000000000000009
99000,8947,30867,128948,5476,14540,120609,107,19232,438,0,50672,0.0010000000000000009
100001,7633,-13316,127146,-11667,-18497,135705,91,19231,373,0,50673,0.0010010000000000019
101000,2450,-13727,125314,-8904,-8649,129401,153,19231,373,1,50674,0.0009989999999999999
102000,227,-6377,131628,-1697,-4317,133948,94,19234,627,1,50675,0.0010000000000000009
103000,4139,13710,130131,-7772,13968,117836,94,19234,385,1,50676,0.0010000000000000009
104000,-886,-1058,127466,-6410,-9266,137971,93,19225,381,0,50677,0.0010000000000000009
105000,-864,5272,124823,-18163,12281,115377,125,19236,512,0,50678,0.0010000000000000009
106000,7942,12990,127316,329,6283,123886,97,19234,397,0,50679,0.0010000000000000009
107000,10952,-1530,123464,11615,68,126099,103,19234,397,1,50680,0.0010000000000000009
108000,6991,4593,127867,-9469,-228,123661,83,19223,422,1,50681,0.0010000000000000009
109000,4241,-8350,124525,-6852,-7163,132424,83,19233,340,1,50682,0.0010000000000000009
110000,6994,8352,128798,2177,7651,122246,97,19232,397,1,50683,0.0010000000000000009
111000,5937,-6533,124395,3895,-7940,133473,118,19224,483,0,50684,0.0010000000000000009
112000,7114,12479,127152,-14788,12611,111749,105,19234,430,0,50685,0.000999999999999987
113000,13968,10222,127764,6185,2195,128429,85,19234,430,0,50686,0.0010000000000000009
114000,17023,-4079,123816,9811,-4043,125882,127,19236,348,1,50687,0.0010000000000000009
115000,10988,495,125260,7924,-4471,124821,127,19232,520,1,50688,0.0010000000000000009
116000,8784,-4429,125636,2815,-3049,127451,98,19227,401,1,50689,0.0010000000000000009
117000,12274,6159,126884,190,5624,122499,99,19224,405,0,50690,0.0010000000000000009
118002,12655,-4246,127143,4504,-5659,133648,120,19231,491,0,50691,0.0010020000000000029
119003,13645,8129,125288,6008,9359,116269,97,19231,491,0,50692,0.0010010000000000019
120000,12505,2544,126683,6595,-685,126760,94,19230,397,0,50693,0.0009969999999999979
121000,17896,-10752,124546,858,-10382,130376,94,19227,385,1,50694,0.0010000000000000009
122000,13328,-4505,127444,18860,-4383,129003,106,19230,434,1,50695,0.0010000000000000009
123000,13076,3641,127815,54,4950,125792,92,19231,377,1,50696,0.0010000000000000009
124000,13714,7051,127735,18,5306,122308,103,19228,422,0,50697,0.0010000000000000009
125000,9598,-5916,127146,8401,-7657,134833,100,19228,410,0,50698,0.0010000000000000009
126000,15231,4094,131390,1457,5601,121570,84,19228,410,0,50699,0.0010000000000000009
127002,9942,1993,128876,4301,497,126537,121,19233,344,1,50700,0.0010020000000000029
128000,10713,-6639,130113,1121,-7146,130326,121,19227,496,1,50701,0.0009979999999999989
129000,7670,-10772,127050,4392,-12719,133447,94,19233,385,1,50702,0.0010000000000000009
130000,5575,719,131882,-8232,986,126819,93,19228,381,1,50703,0.0010000000000000009
131000,13965,7384,128325,-1807,6840,126412,137,19228,561,0,50704,0.0010000000000000009
132000,3458,2658,129589,19684,1963,129380,96,19231,561,0,50705,0.0010000000000000009
133000,10489,-667,130491,-27902,-641,125374,86,19235,393,0,50706,0.0010000000000000009
134003,14026,-6101,130460,-5446,-6240,132051,86,19232,352,1,50707,0.0010029999999999761
135002,879,-8955,127951,25741,-10806,135015,109,19230,446,1,50708,0.0009989999999999999
136000,840,-5511,129801,-19919,4169,121609,100,19229,410,1,50709,0.0009979999999999989
137001,-3369,12372,129301,-20783,7957,130381,106,19229,434,0,50710,0.0010010000000000019
138000,8629,7354,130340,-1449,10689,121977,104,19225,434,0,50711,0.0009989999999999999
139000,3818,12753,128084,-5238,1172,124284,90,19229,426,0,50712,0.0010000000000000009
140000,4426,-9836,128153,-6368,-11259,133134,90,19234,369,0,50713,0.0010000000000000009
141000,5147,-5950,128143,-4415,-6279,128568,112,19217,459,1,50714,0.0010000000000000009
142000,-1641,-5745,130551,-3714,-6384,135597,89,19238,365,1,50715,0.0010000000000000009
143000,4755,10139,130069,-18211,16777,114115,93,19232,381,1,50716,0.0010000000000000009
144000,2585,13707,129777,-5504,617,130802,128,19232,381,0,50717,0.0010000000000000009
145000,1615,-7082,124086,-2995,-5787,128686,105,19225,524,0,50718,0.0010000000000000009
146002,6878,1911,128502,-5066,9159,121913,105,19232,430,0,50719,0.0010020000000000029
147001,7794,5000,124935,-296,3435,124811,89,19225,365,1,50720,0.0009989999999999999
148000,8813,9199,125740,-681,8053,120680,119,19233,487,1,50721,0.0009989999999999999
149000,8758,-9480,122982,2773,-15975,138513,98,19232,401,1,50722,0.0010000000000000009
150000,5221,-491,126675,-11167,8157,118079,105,19232,401,1,50723,0.0010000000000000009
151000,9855,7154,128787,3343,1253,128012,132,19228,430,0,50724,0.0010000000000000009
152000,2529,-157,126137,5823,2261,125333,132,19234,541,0,50725,0.0010000000000000009
153000,10734,7513,124735,-12207,4037,123295,95,19231,389,0,50726,0.0010000000000000009
154000,14055,-75,124012,7774,3001,123322,101,19225,414,1,50727,0.0010000000000000009
155000,16433,10697,124587,17544,4232,119947,87,19232,356,1,50728,0.0010000000000000009
156000,13666,-9872,125080,1945,-12421,133326,101,19232,356,1,50729,0.0010000000000000009
157001,11650,-177,128598,343,-2094,122015,122,19233,414,0,50730,0.0010010000000000019
158000,10550,1723,129337,9433,-1158,132057,122,19229,500,0,50731,0.0009989999999999999
159000,10476,6614,127375,2905,7370,120591,105,19235,430,0,50732,0.0010000000000000009
160000,14170,293,126922,4644,-4213,128431,87,19230,356,0,50733,0.0010000000000000009
161000,14088,-8906,123051,8898,-6780,127013,138,19235,565,1,50734,0.0010000000000000009
162000,17347,1514,126624,7459,2626,122287,95,19235,565,1,50735,0.0010000000000000009
163001,14787,-2817,128460,6935,-3597,131366,95,19236,389,1,50736,0.0010009999999999741
164002,13543,5325,128742,998,4534,124004,116,19230,389,0,50737,0.0010010000000000019
165000,10669,-275,129141,2196,-4040,131887,116,19224,475,0,50738,0.0009979999999999989
166000,9857,-3899,126844,6353,-4340,126598,97,19234,397,0,50739,0.0010000000000000009
167000,12396,-2646,128579,5727,-2047,128874,97,19222,397,1,50740,0.0010000000000000009
168000,7625,1916,130584,-9080,-71,125865,107,19222,438,1,50741,0.0010000000000000009
169000,8615,3003,130102,1532,2134,128181,96,19229,438,1,50742,0.0010000000000000009
170000,6370,-4886,131202,-131,-6899,135816,111,19236,393,1,50743,0.0010000000000000009
171000,7051,-1022,130003,1350,1425,119551,111,19219,455,0,50744,0.0010000000000000009
172000,7836,9200,130425,1841,6685,134099,104,19233,426,0,50745,0.0010000000000000009
173000,9136,-9129,128515,-10708,-8100,126728,86,19230,352,0,50746,0.0010000000000000009
174000,15021,9676,132273,-9083,8391,121666,123,19230,504,1,50747,0.0010000000000000009
175000,1987,-13468,128389,22050,-16523,141117,104,19228,504,1,50748,0.0010000000000000009
176001,-6956,-4993,131140,-19709,-5929,123864,100,19230,426,1,50749,0.0010010000000000019
177000,2405,-2329,129775,-22840,-2721,136265,100,19228,410,0,50750,0.0009989999999999999
178000,3671,25261,130736,3139,24578,116999,138,19230,565,0,50751,0.0010000000000000009
179000,7864,10802,129839,-1969,10361,130838,104,19233,426,0,50752,0.0010000000000000009
180000,2222,-16490,124416,-12095,-17574,131628,93,19233,381,0,50753,0.0010000000000000009
181000,6923,-6643,128941,-3479,-7929,131279,144,19229,381,1,50754,0.0010000000000000009
182000,512,1360,130503,-2001,6828,123465,94,19231,590,1,50755,0.0010000000000000009
183000,2772,9537,130560,-9739,1695,130884,94,19233,385,1,50756,0.0010000000000000009
184000,-1482,-2710,126828,-10400,-455,124868,102,19221,418,0,50757,0.0010000000000000009
185000,2974,14020,125487,-11320,12754,118830,104,19232,426,0,50758,0.0010000000000000009
186000,9423,1872,125600,7201,-2757,128971,94,19232,385,0,50759,0.0010000000000000009
187000,8960,2164,124785,-575,3081,121205,113,19232,385,1,50760,0.0010000000000000009
188000,7841,-833,126807,-10144,-3701,130689,92,19225,463,1,50761,0.0010000000000000009
189000,4858,872,126357,5663,3106,123032,92,19235,377,1,50762,0.0010000000000000009
190000,5601,2225,127458,-419,-2603,131737,96,19230,393,1,50763,0.0010000000000000009
191000,4474,-7662,123639,-9051,1677,123796,132,19222,541,0,50764,0.0010000000000000009
192000,8161,12834,128191,-4168,13924,117807,105,19233,430,0,50765,0.0010000000000000009
193000,17310,4480,124201,13737,-3308,129339,84,19233,430,0,50766,0.0010000000000000009
194000,13425,-2369,123967,3641,-687,123235,104,19231,344,1,50767,0.0009999999999999731
195000,13321,-2157,123086,3743,-6456,128405,104,19234,426,1,50768,0.0010000000000000009
196000,8541,-214,125077,3064,5039,123057,102,19230,418,1,50769,0.0010000000000000009
197001,14795,6254,128376,3735,424,128598,107,19227,438,0,50770,0.0010010000000000019
198000,10744,-2598,125717,5699,599,125951,109,19231,446,0,50771,0.0009989999999999999
199000,12042,8219,127510,3080,6466,120342,92,19231,446,0,50772,0.0010000000000000009
200000,15325,-5958,126038,8777,-7591,130322,100,19234,377,0,50773,0.0010000000000000009
201000,16611,-3256,126463,8433,-4323,126374,100,19225,410,1,50774,0.0010000000000000009
202000,12331,-4580,127356,5414,-6342,127071,81,19238,332,1,50775,0.0010000000000000009
203000,12233,6363,129347,-4693,4195,124025,93,19233,381,1,50776,0.0010000000000000009
204000,12812,-2818,127924,10430,-6760,131920,115,19227,471,0,50777,0.0010000000000000009
205000,10590,-229,128543,4833,845,126592,103,19227,471,0,50778,0.0010000000000000009
206000,12357,7442,128958,-3630,4742,123853,82,19230,422,0,50779,0.0010000000000000009
207000,12491,-7211,128114,8216,-7105,130150,82,19230,336,1,50780,0.0010000000000000009
208000,9178,-1658,128795,926,-1925,128222,137,19232,561,1,50781,0.0010000000000000009
209000,7310,-10231,126977,436,-11163,132610,95,19231,389,1,50782,0.0010000000000000009
210000,6435,4507,130860,-9320,6051,123730,98,19227,401,1,50783,0.0010000000000000009
211000,12880,2320,129547,12845,1408,129297,136,19227,557,0,50784,0.0010000000000000009
212000,4442,5796,129381,250,6365,126478,94,19231,557,0,50785,0.0010000000000000009
213001,15470,2909,130849,-28370,-1300,124590,91,19238,385,0,50786,0.0010010000000000019
214000,7879,-4896,130114,20708,-6958,132541,91,19228,373,1,50787,0.0009989999999999999
215001,1537,-11227,127829,4248,-14437,136132,101,19232,414,1,50788,0.0010010000000000019
216000,-1075,874,130684,-26965,926,123726,101,19233,414,1,50789,0.0009989999999999999
217000,-1732,8875,128261,-4548,7523,130089,116,19233,475,0,50790,0.0010000000000000009
218000,9472,10909,128636,-8262,11512,121655,105,19222,475,0,50791,0.0010000000000000009
219000,4131,7532,128967,-1961,5061,123783,89,19230,430,0,50792,0.0010000000000000009
220000,7041,-12160,127775,-606,-13009,134006,89,19232,365,0,50793,0.0010000000000000009
221000,2986,-6055,129072,-11322,-6973,128671,128,19224,524,1,50794,0.0010000000000000009
222000,2027,-4160,129227,-5549,-4478,132627,93,19236,381,1,50795,0.0010000000000000009
223000,1407,16805,129456,-8011,15094,118898,91,19236,373,1,50796,0.0010000000000000009
224000,2508,-181,126469,-13427,-1429,130846,134,19227,373,0,50797,0.0009999999999999731
225000,3754,981,122370,-1809,-2024,119441,103,19229,549,0,50798,0.0010000000000000009
226002,5745,6414,125941,-2325,5268,125725,103,19235,422,0,50799,0.0010020000000000029
227001,15441,3967,124721,-6295,3064,118425,93,19225,381,1,50800,0.0009989999999999999
228000,7096,89,128443,5969,1521,138231,99,19234,405,1,50801,0.0009989999999999999
229000,3309,-13281,123999,2058,-7233,125706,97,19232,397,1,50802,0.0010000000000000009
230000,4169,10642,128134,-16959,10800,121286,108,19232,397,1,50803,0.0010000000000000009
231003,3757,3742,126549,5862,1848,128834,112,19224,442,0,50804,0.0010030000000000039
232002,11454,10169,126042,-1797,12284,116064,112,19234,459,0,50805,0.0009989999999999999
233000,14426,2772,125255,6016,-7775,132524,89,19234,365,0,50806,0.0009979999999999989
234000,14836,-5789,124482,9379,-2042,120743,111,19229,455,1,50807,0.0010000000000000009
235000,13968,-1794,124023,7556,-6297,130262,92,19230,377,1,50808,0.0010000000000000009
236000,9037,-4675,128583,-8195,6169,126743,98,19230,377,1,50809,0.0010000000000000009
237000,13530,8124,127253,7066,1553,125511,134,19229,401,0,50810,0.0010000000000000009
238000,6987,-1945,125303,10172,2867,127201,134,19230,549,0,50811,0.0010000000000000009
239000,14277,5801,124975,-2699,422,121461,102,19233,418,0,50812,0.0010000000000000009
240000,15515,-9700,123554,11654,-8787,130701,86,19227,352,1,50813,0.0010000000000000009
241000,18710,3655,126696,12273,4733,121841,128,19232,524,1,50814,0.0010000000000000009
242000,14411,-99,126917,3931,-2017,127528,93,19232,524,1,50815,0.0010000000000000009
243000,11959,412,127645,-2739,-867,127133,95,19230,381,1,50816,0.0010000000000000009
244000,8353,-2242,129420,9931,-5458,132433,95,19224,389,0,50817,0.0010000000000000009
245001,10845,-3383,127700,-3292,-3867,127729,105,19231,430,0,50818,0.0010010000000000019
246000,12277,6160,129511,6785,3909,122288,90,19237,369,0,50819,0.0009989999999999999
247000,13528,-2316,130044,6444,-8124,129675,106,19224,434,1,50820,0.0010000000000000009
248000,11086,-3357,128853,-4542,-2529,127875,88,19224,434,1,50821,0.0010000000000000009
249000,7355,-2594,131803,3451,-4385,132263,93,19236,360,1,50822,0.0010000000000000009
250000,6013,-9525,125106,-1379,-9965,131258,93,19230,381,0,50823,0.0010000000000000009
251001,6390,12284,132658,-343,14947,119500,121,19229,496,0,50824,0.0010009999999999741
252000,8776,-4307,125935,-120,-12507,141016,102,19233,418,0,50825,0.0009990000000000276
253001,9808,-625,129377,-18027,6956,116072,82,19236,336,0,50826,0.0010009999999999741
254000,12700,10017,131979,3853,1989,129261,132,19236,336,1,50827,0.0009990000000000276
255000,3270,-14202,127208,16090,-16219,136228,99,19234,541,1,50828,0.0010000000000000009
256001,-3762,-5867,129627,-32292,-7650,130072,99,19230,405,1,50829,0.0010009999999999741
257000,1983,71,131062,-8071,4915,129694,101,19224,414,0,50830,0.0009990000000000276
258000,2718,33785,130001,-2581,30555,110767,127,19233,520,0,50831,0.0010000000000000009
259000,7478,837,131514,-1887,-5629,134523,95,19234,389,0,50832,0.0010000000000000009
260000,2344,-11646,124867,-11456,-11428,127069,100,19234,410,1,50833,0.0010000000000000009
261002,5582,-7510,132064,-4986,-8132,132567,120,19219,410,1,50834,0.0010020000000000029
262000,1181,4965,130195,-2910,5143,124649,95,19237,491,1,50835,0.0009979999999999989
263000,4010,2812,129062,-9206,-259,130728,95,19234,389,1,50836,0.0010000000000000009
264000,-3831,1311,126275,-13064,1538,128054,116,19227,475,0,50837,0.0010000000000000009
265001,4465,15239,126674,-10481,12873,116600,107,19232,438,0,50838,0.0010009999999999741
266000,11556,-2956,123906,4900,-4001,130259,90,19232,369,0,50839,0.0009990000000000276
267000,8313,8821,128108,5303,8491,118526,133,19227,369,1,50840,0.0010000000000000009
268000,9421,-8192,125006,-13311,-8378,132518,99,19236,545,1,50841,0.0009999999999999454
269000,2635,6394,129839,3624,6335,121393,99,19229,405,1,50842,0.0010000000000000009
270001,7467,-5424,125450,675,-6371,134916,101,19226,414,0,50843,0.0010010000000000296
271000,3606,5450,126159,-5581,4575,111165,148,19228,606,0,50844,0.0009989999999999721
272002,8885,14841,127314,-8571,14422,130935,100,19228,410,0,50845,0.0010020000000000029
273000,17145,-5024,124215,9690,-4854,122379,90,19236,410,0,50846,0.0009979999999999989
274000,12631,3540,125035,9750,2559,126321,87,19222,369,1,50847,0.0010000000000000009
275002,13243,-6783,124252,3829,-7436,123977,87,19231,356,1,50848,0.0010020000000000029
276000,8432,6849,125869,2623,3355,125461,102,19230,418,1,50849,0.0009979999999999989
277000,13630,-5313,127979,1142,-5372,134502,111,19224,455,0,50850,0.0010000000000000009
278002,12350,6069,126606,5790,12270,114341,106,19230,434,0,50851,0.0010020000000000029
279000,12916,5986,127598,6160,-4719,130488,89,19230,434,0,50852,0.0009979999999999989
280000,17543,-7965,124620,5519,-5034,126193,117,19234,365,1,50853,0.0010000000000000009
281000,15457,-6277,125310,12036,-6580,133913,117,19230,479,1,50854,0.0010000000000000009
282000,13429,-1086,127619,4669,6476,121619,91,19233,373,1,50855,0.0010000000000000009
283001,11058,9332,128566,-2947,327,125668,93,19231,381,1,50856,0.0010010000000000296
284000,12062,-10142,126383,9163,-8681,136346,129,19230,528,0,50857,0.0009989999999999721
285000,12764,5923,129312,1706,8167,119172,102,19230,528,0,50858,0.0010000000000000009
286000,12778,2340,129054,-683,-2834,131450,87,19235,418,0,50859,0.0010000000000000009
287000,13112,-5385,127701,7514,-5914,124236,87,19224,356,1,50860,0.0010000000000000009
288000,6817,-6846,127728,4662,-7446,132788,128,19231,524,1,50861,0.0010000000000000009
289000,9564,-1460,130749,-8262,412,129367,97,19235,397,1,50862,0.0010000000000000009
290000,6384,1138,128798,-34,-3170,127780,101,19225,414,0,50863,0.0010000000000000009
291000,9721,5819,131055,7056,9284,125178,122,19225,414,0,50864,0.0010000000000000009
292000,6656,5118,126719,-6020,-1834,124071,90,19235,500,0,50865,0.0010000000000000009
293000,7906,-11578,129556,-17930,-13162,133340,90,19232,369,0,50866,0.0010000000000000009
294000,10541,-1281,130198,9887,-2033,126295,105,19220,430,1,50867,0.0010000000000000009
295000,2680,-3513,130204,10442,-6601,134040,97,19228,397,1,50868,0.0010000000000000009
296000,-3528,5994,129560,-35654,7337,123005,100,19233,410,1,50869,0.0010000000000000009
297000,2858,-2704,129461,-6518,-4359,133893,126,19233,516,0,50870,0.0010000000000000009
298000,6494,12980,128951,7925,18470,119594,106,19231,516,0,50871,0.0010000000000000009
299000,8264,10796,130927,-9863,2673,123753,106,19228,434,0,50872,0.0010000000000000009
300000,2747,-16282,125875,-5940,-17025,134955,91,19227,373,1,50873,0.0010000000000000009
301001,1783,-7227,128850,-9417,-7473,131652,152,19233,623,1,50874,0.0010009999999999741
302002,3069,4272,129474,-5524,8336,125048,94,19236,385,1,50875,0.0010010000000000296
303001,1660,19084,130994,-8603,11960,120758,94,19236,385,1,50876,0.0009989999999999721
304000,2856,-7195,124696,-5475,-9019,136992,123,19225,385,0,50877,0.0009990000000000276
305000,2940,7834,126363,-11265,9761,117014,123,19226,504,0,50878,0.0010000000000000009
306001,12506,9413,126873,-1292,6829,124672,99,19232,405,0,50879,0.0010009999999999741
307001,8234,595,126620,10692,-109,124842,103,19225,422,1,50880,0.0010000000000000009
308000,5395,-7183,125950,-10695,-7487,130878,84,19232,344,1,50881,0.0009990000000000276
309000,6498,-1636,127361,-6297,-357,126050,98,19232,401,1,50882,0.0010000000000000009
310000,6374,13919,128092,7669,12525,121118,115,19229,401,0,50883,0.0010000000000000009
311000,7659,-5868,124910,-7849,-7665,132166,104,19220,471,0,50884,0.0010000000000000009
312000,9254,7223,125074,-4658,7321,117605,104,19230,426,0,50885,0.0010000000000000009
313001,14687,2171,125197,14560,797,129079,85,19229,348,1,50886,0.0010009999999999741
314001,15362,691,122730,2038,121,121211,128,19233,524,1,50887,0.0010000000000000009
315000,11515,-2330,125584,4920,-2397,128610,100,19233,410,1,50888,0.0009990000000000276
316000,11489,-600,125855,2770,-1166,127996,99,19229,410,1,50889,0.0010000000000000009
317000,13529,6250,127272,3743,5853,121247,124,19230,405,0,50890,0.0010000000000000009
318001,9869,-3269,127333,7363,-2917,127278,124,19228,508,0,50891,0.0010009999999999741
319000,15149,2786,126376,-1318,2815,122702,97,19234,397,0,50892,0.0009990000000000276
320000,17847,-2862,126774,10111,-2439,129325,92,19227,377,1,50893,0.0010000000000000009
321002,14742,-763,126492,15854,-1281,124776,110,19232,451,1,50894,0.0010020000000000029
322000,11553,-5277,126029,1728,-6107,129692,95,19232,451,1,50895,0.0009979999999999989
323000,12035,1461,129474,-6613,3294,126730,105,19233,389,1,50896,0.0010000000000000009
324000,11951,3603,128916,14858,14,129178,105,19224,430,0,50897,0.0010000000000000009
325024,10890,134,128663,-5020,1326,126325,101,19236,414,0,50898,0.0010239999999999694
326000,9680,-7033,127986,-3604,-3350,128320,86,19230,352,0,50899,0.0009760000000000324
327001,12688,-5196,127707,6232,-4635,129860,118,19226,483,1,50900,0.0010009999999999741
328002,9805,-2231,128146,-1895,85,125871,93,19226,483,1,50901,0.0010009999999999741
329000,7761,942,131115,-4392,-3083,133040,95,19232,381,1,50902,0.0009979999999999989
330000,6214,-7637,126359,2154,1447,121132,95,19230,389,0,50903,0.0010000000000000009
331001,8777,17486,132346,3818,9948,131134,137,19228,561,0,50904,0.0010010000000000296
332000,5980,-14844,124488,-5309,-16673,133016,101,19234,414,0,50905,0.0009989999999999721
333000,10130,11056,131870,-17931,15939,114889,87,19225,356,0,50906,0.0010000000000000009
334000,11210,-4424,130009,19518,-15058,141539,117,19225,356,1,50907,0.0010000000000000009
335000,-3500,-10533,127796,-5690,-9261,126725,104,19232,479,1,50908,0.0010000000000000009
336000,-1099,-5769,128125,-28473,-8995,137637,104,19229,426,1,50909,0.0010000000000000009
337000,-1856,10213,131767,-4797,17488,115393,107,19225,438,0,50910,0.0010000000000000009
338000,9781,29581,131115,-3149,17706,122681,108,19233,442,0,50911,0.0010000000000000009
339000,5891,-15160,127594,-2215,-20164,137105,92,19231,377,0,50912,0.0010000000000000009
340001,3502,-8329,124166,-11325,-6031,125271,110,19231,377,1,50913,0.0010010000000000296
341000,4014,-5561,130185,-6837,-4832,132639,89,19217,451,1,50914,0.0009989999999999721
342000,1801,9493,128005,-1999,11909,120886,89,19233,365,1,50915,0.0010000000000000009
343000,4754,-2092,128102,-10709,-6834,136420,92,19232,377,1,50916,0.0010000000000000009
344000,-3828,10194,125245,-13041,14643,114944,122,19225,500,0,50917,0.0010000000000000009
345000,8360,8649,126698,-8748,663,126887,109,19235,446,0,50918,0.0010000000000000009
346001,8827,-4118,123458,11421,-897,126905,91,19235,446,0,50919,0.0010010000000000296
347000,8736,6245,127667,-5634,3350,123597,116,19230,373,1,50920,0.0009989999999999721
348000,7243,-3865,123865,-6893,-3377,127628,116,19233,475,1,50921,0.0010000000000000009
349000,4485,12169,130175,1485,8362,121831,98,19234,401,1,50922,0.0010000000000000009
350000,9296,-12136,124321,2051,-13217,137222,102,19230,418,0,50923,0.0010000000000000009
351000,3094,14376,128637,-9390,16275,110576,136,19228,557,0,50924,0.0010000000000000009
352000,11465,5236,125638,-1548,683,131018,97,19228,397,0,50925,0.0010000000000000009
353000,15123,-3035,124345,10875,-2243,122656,100,19230,397,1,50926,0.0010000000000000009
354000,13228,754,124599,5522,-1813,128564,86,19228,410,1,50927,0.0010000000000000009
355000,10794,-5978,124449,4582,-4038,125638,86,19229,352,1,50928,0.0010000000000000009
356000,10686,9038,126496,-1437,7474,121216,101,19232,414,1,50929,0.0010000000000000009
357001,15348,-8622,126681,6055,-8498,137020,118,19225,483,0,50930,0.0010009999999999741
358000,13842,11942,126995,7281,13017,114694,106,19225,434,0,50931,0.0009990000000000276
359000,10904,-1097,126556,2573,-2029,129916,87,19236,434,0,50932,0.0010000000000000009
360000,17977,-3397,123041,2589,-2911,126208,136,19232,356,1,50933,0.0010000000000000009
361001,11708,-8097,126975,13304,-9122,131338,136,19234,557,1,50934,0.0010009999999999741
362000,13365,5044,128573,4731,5449,124490,96,19232,393,1,50935,0.0009990000000000276
363000,11665,2035,129316,-4378,1751,123255,95,19229,389,0,50936,0.0010000000000000009
364000,12050,-6867,128358,12282,-7750,135266,124,19229,508,0,50937,0.0010000000000000009
365000,12410,5812,129328,334,5378,123105,97,19234,508,0,50938,0.0010000000000000009
366000,11968,-2290,128412,-778,-2709,130589,92,19234,397,0,50939,0.0010000000000000009
367000,11641,-4375,127848,8280,-4890,124376,92,19228,377,1,50940,0.0010000000000000009
368000,9150,-3492,129866,4064,-3220,133790,107,19231,438,1,50941,0.0010000000000000009
369000,8936,-3491,130105,-6709,1423,127291,100,19228,410,1,50942,0.0010000000000000009
370003,8889,-11,128731,-3953,-1899,128652,109,19219,446,0,50943,0.0010029999999999761
371000,10181,4506,129805,12635,14413,125495,102,19219,446,0,50944,0.0009970000000000256
372000,5507,2945,127925,-181,-9780,131004,85,19233,418,0,50945,0.0010000000000000009
373000,8796,-13387,127193,-21294,-5070,129061,85,19236,348,1,50946,0.0010000000000000009
374000,10807,3461,131435,19646,-806,128920,121,19228,496,1,50947,0.0010000000000000009
375001,-306,-2756,129216,-5908,-2696,127726,105,19231,430,1,50948,0.0010009999999999741
376000,-1964,2952,131883,-33485,-3494,132705,102,19226,418,1,50949,0.0009990000000000276
377001,1010,-5559,128101,5211,1479,128665,139,19226,418,0,50950,0.0010009999999999741
378000,8371,22589,131174,-3316,23640,114956,103,19230,569,0,50951,0.0009990000000000276
379000,7632,4329,129891,-5963,-8655,131355,103,19233,422,0,50952,0.0010000000000000009
380000,2134,-17194,125589,-8201,-16955,133102,91,19225,373,1,50953,0.0010000000000000009
381000,3231,-6407,128803,-7377,-3614,132276,145,19232,594,1,50954,0.0010000000000000009
382000,2493,5229,128425,-1647,10817,118034,95,19231,389,1,50955,0.0010000000000000009
383001,1902,12882,130242,-8589,4022,129392,103,19231,389,0,50956,0.0010009999999999741
384000,-93,-5947,124044,-14047,-6209,129627,103,19226,422,0,50957,0.0009990000000000276
385000,5338,9789,126871,-7813,12917,117776,103,19229,422,0,50958,0.0010000000000000009
386000,12091,4151,125753,11124,523,128310,91,19234,373,0,50959,0.0010000000000000009
387000,7143,-600,125499,-2732,120,122577,114,19226,467,1,50960,0.0009999999999999454
388000,9131,-4944,127085,-11573,-7559,131861,94,19231,385,1,50961,0.0010000000000000009
389000,5053,2977,126303,2291,6720,123878,101,19231,385,1,50962,0.0010000000000000009
390000,7257,7360,127175,722,2326,126319,131,19230,414,0,50963,0.0010000000000000009
391000,5089,-3616,123658,-7022,-2317,125874,131,19224,537,0,50964,0.0010000000000000009
392000,10040,12150,126526,238,10807,120305,102,19237,418,0,50965,0.0010000000000000009
393001,16093,-894,125148,11727,-5409,127680,86,19227,352,1,50966,0.0010010000000000296
394002,12290,701,124680,5215,-111,122796,106,19232,434,1,50967,0.0010009999999999741
395000,9559,-1683,126440,2677,-3648,127881,104,19232,434,1,50968,0.0009979999999999989
396000,10515,-89,125661,1482,1179,124552,105,19229,426,1,50969,0.0010000000000000009
397002,12899,4762,128413,9805,3201,126669,105,19226,430,0,50970,0.0010020000000000029
398002,12808,-3057,125383,-1961,-1937,126849,111,19231,455,0,50971,0.0010000000000000009
399000,15969,7140,127558,2414,6932,119427,92,19237,377,0,50972,0.0009979999999999989
400000,16768,-5715,125828,19630,-7681,131995,100,19220,410,1,50973,0.0010000000000000009
401000,12176,-5849,125579,2576,-5775,125514,82,19220,336,1,50974,0.0010000000000000009
402004,12479,-2234,128147,99,-2494,129513,94,19231,336,1,50975,0.0010040000000000049
403000,12403,2004,128708,6741,2088,126892,113,19231,385,0,50976,0.0009959999999999969
404000,13424,7874,130332,7662,7887,125566,113,19224,463,0,50977,0.0010000000000000009
405000,9390,-4519,128317,-2160,-4403,132761,101,19234,414,0,50978,0.0010000000000000009
406000,14480,-459,127809,3455,-1101,124661,83,19228,340,0,50979,0.0010000000000000009
407000,11038,-4121,128896,6497,-4563,129328,137,19228,561,1,50980,0.0010000000000000009
408000,9614,-439,131614,-890,509,127507,97,19231,561,1,50981,0.0010000000000000009
409000,6670,-7938,129165,-2450,-9451,133272,96,19235,397,1,50982,0.0010000000000000009
410000,5957,-1027,130152,-403,-1260,125948,96,19225,393,0,50983,0.0010000000000000009
411001,12937,15953,130557,1998,15749,124027,131,19232,537,0,50984,0.0010010000000000296
412001,4057,-10656,126434,4211,-12255,121137,95,19234,389,0,50985,0.0010000000000000009
413000,12791,10125,132252,-26593,9634,127189,93,19234,381,1,50986,0.0009989999999999721
414000,7799,-14936,128588,16307,-15918,138607,98,19224,381,1,50987,0.0010000000000000009
415000,-7196,-6970,129419,7010,-9408,127868,101,19229,401,1,50988,0.0010000000000000009
416000,1243,-8843,128873,-37724,-10750,132016,101,19229,414,1,50989,0.0010000000000000009
417000,-3956,22153,130056,-3638,30313,111683,113,19226,463,0,50990,0.0010000000000000009
418000,16689,18263,131569,-5277,9,130935,108,19232,442,0,50991,0.0010000000000000009
419001,2564,-12689,125553,5002,-14584,130773,91,19230,373,0,50992,0.0010009999999999741
420000,5024,-8943,128557,-10967,-9868,130839,129,19230,373,1,50993,0.0009990000000000276
421002,-131,-3401,128976,-913,1523,127748,102,19219,528,1,50994,0.0010020000000000029
422000,788,9277,130767,-8218,5657,127393,102,19229,418,1,50995,0.0009979999999999989
423000,4773,522,127817,-7468,1486,128149,93,19230,381,0,50996,0.0010000000000000009
424000,-5542,11344,125925,-11522,9912,118362,133,19232,545,0,50997,0.0010000000000000009
425002,10448,2047,125669,-11576,-1336,125907,104,19232,426,0,50998,0.0010020000000000029
426000,9133,5375,126104,19592,4564,123800,94,19232,426,0,50999,0.0009979999999999989
427000,8282,-5280,127063,-10857,-6979,130849,100,19223,385,1,51000,0.0010000000000000009
428000,4885,-207,126926,-10001,-73,121723,100,19236,410,1,51001,0.0010000000000000009
429000,3569,1496,126618,-328,-3072,133750,95,19230,389,1,51002,0.0010000000000000009
430000,10015,-2767,124043,6775,2537,123513,104,19218,426,0,51003,0.0010000000000000009
431002,2140,15255,126709,-10715,13279,116816,118,19231,483,0,51004,0.0010020000000000029
432000,15161,775,124851,-124,-659,129428,90,19231,483,0,51005,0.0009979999999999989
433000,13683,159,123460,15792,-39,122657,113,19235,369,1,51006,0.0010000000000000009
434000,14219,-4162,125198,4685,-6330,131213,113,19229,463,1,51007,0.0010000000000000009
435000,9084,-950,124319,6014,1147,118705,92,19231,377,1,51008,0.0010000000000000009
436000,8804,4090,126765,-3829,1064,129640,96,19228,393,1,51009,0.0010000000000000009
437000,16837,-1292,127030,7321,2297,127063,130,19229,532,0,51010,0.0010000000000000009
438000,12380,11502,126566,8921,6949,118025,102,19229,532,0,51011,0.0010000000000000009
439000,15452,440,127318,608,-3411,128429,88,19234,418,0,51012,0.0010000000000000009
440000,15168,-7145,125233,5191,-8697,126890,88,19232,360,1,51013,0.0010000000000000009
441001,14692,-6208,129593,16490,-5607,132669,129,19234,528,1,51014,0.0010009999999999741
442000,12807,4548,127869,4901,5262,121818,93,19237,381,1,51015,0.0009990000000000276
443001,11128,897,128199,-5561,-2603,126998,97,19225,397,0,51016,0.0010009999999999741
444000,12327,-3208,128278,8734,-3564,131855,103,19225,422,0,51017,0.0009990000000000276
445000,12580,4752,130094,3398,5565,123738,89,19232,422,0,51018,0.0010000000000000009
446000,13711,-3556,127047,1644,-6316,130248,105,19236,365,0,51019,0.0010000000000000009
447000,7902,-3788,128160,4969,-3013,123375,105,19222,430,1,51020,0.0009999999999999454
448000,12762,-3988,129605,2039,-5671,135201,85,19233,348,1,51021,0.0010000000000000009
449000,6852,-2875,128518,-5765,-42,129323,92,19225,377,1,51022,0.0010000000000000009
450000,10436,5592,128051,-4786,4432,125089,122,19225,500,0,51023,0.0010000000000000009
451000,7540,7890,130554,14984,8174,124339,102,19224,500,0,51024,0.0010000000000000009
452000,4500,-4013,129729,-8098,-5586,131377,82,19234,418,0,51025,0.0010000000000000009
453000,12875,-9822,130299,-21930,-9281,132165,82,19232,336,1,51026,0.0010000000000000009
454000,6562,5236,132891,16047,4317,122757,141,19232,577,1,51027,0.0010000000000000009
455000,229,-2443,131137,4899,-3352,131797,102,19231,418,1,51028,0.0010000000000000009
456000,-2704,-4757,130698,-34229,-5509,129829,104,19231,426,1,51029,0.0010000000000000009
457002,1268,1812,129957,-1882,1484,129329,128,19225,426,0,51030,0.0010020000000000029
458003,10094,26690,130956,-1528,26365,117588,98,19230,524,0,51031,0.0010010000000000296
459000,7477,-4307,127927,-2307,-4364,135999,98,19233,401,0,51032,0.0009969999999999701
460000,2970,-18529,125814,-10256,-19582,131110,98,19221,401,1,51033,0.0010000000000000009
461000,786,-5234,128189,-7810,-9082,127617,119,19230,487,1,51034,0.0010000000000000009
462000,4324,11336,130648,-3304,10348,120313,93,19233,381,1,51035,0.0010000000000000009
463000,235,8276,125917,-6816,6177,130819,113,19233,381,0,51036,0.0010000000000000009
464000,-447,-2827,126669,-14258,3806,124247,108,19227,463,0,51037,0.0010000000000000009
465000,6115,13161,128401,-10265,7539,120339,108,19228,442,0,51038,0.0010000000000000009
466001,10008,1421,126553,9102,-2481,129058,90,19227,369,1,51039,0.0010010000000000296
467000,5982,-1605,126379,1339,-1202,123995,130,19235,532,1,51040,0.0009989999999999721
468000,6709,-2940,125953,-4667,-3219,129888,95,19233,389,1,51041,0.0010000000000000009
469000,6730,5849,127521,4442,7914,123694,100,19233,389,1,51042,0.0010000000000000009
470000,6707,917,126459,-1089,-5143,129033,153,19230,410,0,51043,0.0010000000000000009
471001,5698,2298,124736,-8510,7447,119059,153,19228,627,0,51044,0.0010010000000000296
472000,15836,4405,127393,4840,6231,125397,101,19236,414,0,51045,0.0009989999999999721
473001,16496,-2491,123293,10533,-5516,128122,91,19225,373,1,51046,0.0010010000000000296
474000,10345,-1131,123730,4345,-2511,124094,85,19232,348,1,51047,0.0009989999999999721
475000,10670,-3919,124009,2196,-3193,127218,101,19232,348,1,51048,0.0010000000000000009
476000,10294,7637,126570,5644,7741,121243,113,19230,414,0,51049,0.0010000000000000009
477000,13914,909,127723,1633,-443,132928,113,19223,463,0,51050,0.0010000000000000009
478001,12319,952,126676,667,1947,121100,107,19232,438,0,51051,0.0010009999999999741
479000,15136,2674,125384,12436,-343,124753,90,19231,369,0,51052,0.0009990000000000276
480000,15374,-5608,125979,9011,-5959,129233,116,19225,475,1,51053,0.0010000000000000009
481001,13289,-5012,126455,3138,-4781,127685,90,19225,475,1,51054,0.0010009999999999741
482000,13229,-94,129723,4595,969,129337,93,19235,369,1,51055,0.0009990000000000276
483000,12519,6575,128604,7933,1729,120500,93,19234,381,0,51056,0.0010000000000000009
484000,9745,1087,129783,2823,-4876,131294,130,19229,532,0,51057,0.0010000000000000009
485001,10680,-4492,129353,1668,-4224,129386,102,19236,418,0,51058,0.0010009999999999741
486000,14148,-2285,128499,4594,-2091,126559,87,19226,356,0,51059,0.0009990000000000276
487000,9711,5523,130103,1833,5041,123621,128,19226,524,1,51060,0.0010000000000000009
488000,8214,-6288,128924,378,-11157,132589,94,19234,524,1,51061,0.0010000000000000009
489000,6603,-16259,125641,-3052,-14186,135287,101,19234,385,1,51062,0.0010000000000000009
490000,8594,14817,132841,-3164,18041,117025,101,19226,414,0,51063,0.0010000000000000009
491000,13013,6153,128067,10406,1251,131837,122,19233,500,0,51064,0.0010000000000000009
492000,1503,438,130256,-12170,1471,123420,91,19235,373,0,51065,0.0010000000000000009
493000,18166,-6615,131621,-19141,-8468,133448,105,19235,430,1,51066,0.0010000000000000009
494000,-1935,-4409,131111,29734,-5835,132731,97,19230,430,1,51067,0.0010000000000000009
495000,-2221,-6707,130963,-20788,-7765,132917,101,19230,397,1,51068,0.0010000000000000009
496000,972,4763,131084,-22986,6715,123527,101,19228,414,0,51069,0.0010000000000000009
497000,1471,22039,130736,-659,21160,120977,130,19226,532,0,51070,0.0010000000000000009
498001,14381,3245,130157,-2882,1633,128902,106,19229,434,0,51071,0.0010009999999999741
499000,-566,-9670,124311,221,-11771,127522,88,19229,360,0,51072,0.0009990000000000276
500000,7730,-11512,129566,-13361,-12132,135287,151,19229,360,1,51073,0.0010000000000000009
501000,-3311,4785,129959,-6687,3634,123511,94,19235,618,1,51074,0.0010000000000000009
502000,6489,434,130412,-3770,187,133488,94,19238,385,1,51075,0.0010000000000000009
503000,134,9870,125852,-5288,7615,121928,96,19225,393,0,51076,0.0010000000000000009
504000,-3211,8180,126579,-13778,6976,121212,123,19228,504,0,51077,0.0010000000000000009
505001,12520,-43,126290,-14289,-518,126028,97,19230,397,0,51078,0.0010009999999999186
506002,7925,4748,127339,19783,3776,132959,99,19230,397,1,51079,0.0010010000000000296
507000,9482,-3056,125968,-5998,-4617,120809,81,19223,405,1,51080,0.0009980000000000544
508000,1139,3271,127091,-10363,3671,129193,81,19233,332,1,51081,0.0010000000000000009
509002,8375,-9239,124846,-1924,-10869,133694,100,19234,410,1,51082,0.0010019999999999474
510001,8813,9312,126888,5325,13722,114007,120,19218,491,0,51083,0.0009989999999999721
511000,4104,10856,126424,-6292,5586,125216,106,19228,434,0,51084,0.0009990000000000832
512000,15584,2057,126236,-4301,265,123033,83,19228,434,0,51085,0.0010000000000000009
513000,12941,-5847,123012,14555,-9916,134016,129,19229,340,1,51086,0.0010000000000000009
514000,14890,-2668,125600,4301,2118,120695,129,19234,528,1,51087,0.0010000000000000009
515000,6927,4950,124357,3364,1231,122696,99,19230,405,1,51088,0.0010000000000000009
516000,12650,917,127720,-5698,986,130146,101,19228,414,0,51089,0.0010000000000000009
517000,13319,-332,124820,12632,1607,124803,122,19230,500,0,51090,0.0010000000000000009
518000,9646,4681,128534,5285,3840,123757,98,19230,500,0,51091,0.0010000000000000009
519000,16405,635,125479,3022,-5500,125034,89,19233,401,0,51092,0.0010000000000000009
520000,12567,-12007,126378,8285,-8644,133047,89,19229,365,1,51093,0.0010000000000000009
521000,17047,-249,127904,12663,-418,126352,107,19238,438,1,51094,0.0010000000000000009
522000,9677,2544,127120,-1821,5412,123038,94,19233,385,1,51095,0.0010000000000000009
523000,14429,3431,127499,-448,-1591,128302,105,19224,430,0,51096,0.0010000000000000009
524000,10831,-3552,127713,11236,-3274,128937,102,19224,430,0,51097,0.0010000000000000009
525000,13189,4633,130183,-490,2808,127030,87,19233,418,0,51098,0.0010000000000000009
526001,12498,-6398,127208,6777,-9460,127659,87,19229,356,1,51099,0.0010009999999999186
527000,7998,31,128594,-191,-378,125065,119,19228,487,1,51100,0.0009990000000000832
528000,11429,-3943,129799,-223,-9466,132900,94,19228,385,1,51101,0.0010000000000000009
529000,5460,288,130225,-8753,-331,127674,95,19233,389,1,51102,0.0010000000000000009
530000,8770,545,128168,-1584,297,125151,136,19233,389,0,51103,0.0010000000000000009
531000,6101,11693,131085,12754,9636,125811,99,19230,557,0,51104,0.0010000000000000009
532000,6480,-9621,128331,-13774,-13984,134728,99,19234,405,0,51105,0.0010000000000000009
533001,15114,-5716,130766,-17206,-2757,125721,86,19225,352,1,51106,0.0010009999999999186
534000,5316,3677,130668,21352,-28,128963,120,19230,491,1,51107,0.0009990000000000832
535001,-375,-2406,130540,-5082,-4500,128841,104,19228,426,1,51108,0.0010009999999999186
536002,-3800,-5880,128440,-33120,-8786,134328,109,19228,446,0,51109,0.0010010000000000296
537000,3473,6287,129598,-812,10730,124760,108,19222,446,0,51110,0.0009979999999999434
538000,8543,26753,129347,2295,23601,115059,92,19230,442,0,51111,0.0010000000000000009
539000,9126,-6067,126455,-5192,-10082,133489,92,19231,377,0,51112,0.0010000000000000009
540000,3748,-13635,126885,-8687,-13474,133091,111,19217,455,1,51113,0.0010000000000000009
541000,2300,-4897,130306,-2451,-3278,132203,85,19233,348,1,51114,0.0010000000000000009
542000,5534,15580,132812,-4992,16616,116762,92,19233,377,1,51115,0.0010000000000000009
543000,-305,4127,127220,-6770,-356,132577,127,19232,377,0,51116,0.0010000000000000009
544000,-1447,-1400,125598,-17157,-2060,124992,107,19223,520,0,51117,0.0010000000000000009
545000,8149,12878,129463,-4738,12644,119050,107,19236,438,0,51118,0.0010000000000000009
546000,11464,-2660,125146,13553,-3789,129401,88,19227,360,1,51119,0.0010000000000000009
547001,5622,3103,127342,-5694,2326,120194,117,19234,479,1,51120,0.0010010000000000296
548000,6338,-7923,124356,-11290,-9622,134635,96,19234,393,1,51121,0.0009989999999999721
549000,6999,10238,128182,2233,10075,120122,101,19233,393,1,51122,0.0010000000000000009
550000,7011,-5185,125515,4717,-5967,132235,129,19225,414,0,51123,0.0010000000000000009
551000,4818,5046,124824,-11597,3346,120302,129,19232,528,0,51124,0.0010000000000000009
552000,13269,7010,126687,-385,7795,122828,96,19232,393,0,51125,0.0010000000000000009
553000,17659,-5284,121341,13033,-7845,119948,97,19228,397,1,51126,0.0010000000000000009
554000,11460,3346,126228,7044,2912,129785,84,19229,344,1,51127,0.0010000000000000009
555000,10143,-6627,124274,3434,-8616,122852,97,19229,344,1,51128,0.0010000000000000009
556000,11623,11297,128211,1181,11675,126273,119,19229,397,0,51129,0.0010000000000000009
557000,11734,-5066,126957,5589,-4703,133140,119,19228,487,0,51130,0.0010000000000000009
558000,12649,5803,126618,596,8167,115418,105,19232,430,0,51131,0.0010000000000000009
559000,12209,111,126907,11350,-6828,131512,85,19235,348,0,51132,0.0010000000000000009
560000,17102,-7579,125865,4316,-6276,126636,136,19234,557,1,51133,0.0010000000000000009
561001,14791,-3674,127818,6445,-4799,130996,93,19234,557,1,51134,0.0010010000000000296
562000,13323,-4566,130461,2231,8581,124050,95,19232,381,1,51135,0.0009989999999999721
563000,13155,8782,127181,2579,171,123107,95,19231,389,0,51136,0.0010000000000000009
564002,8225,-6768,126160,1752,-7157,136520,115,19230,471,0,51137,0.0010020000000000584
565000,14386,-2044,127440,4031,-2246,124730,98,19236,401,0,51138,0.0009979999999999434
566000,11222,3152,129077,5543,5535,123458,94,19220,385,1,51139,0.0010000000000000009
567001,9703,3675,130327,-2973,-2212,128945,94,19220,385,1,51140,0.0010010000000000296
568000,6912,-14144,127014,3790,-16800,137850,96,19236,385,1,51141,0.0009989999999999721
569000,4147,-10108,127176,-3467,154,124671,96,19233,393,1,51142,0.0010000000000000009
570000,14163,20647,132138,-3002,20156,120609,108,19223,442,0,51143,0.0010000000000000009
571001,7887,-671,127553,16740,-6616,131355,103,19235,422,0,51144,0.0010010000000000296
572000,4663,1618,131031,-30782,-1357,126265,85,19233,348,0,51145,0.0009989999999999721
573000,17422,-9850,130866,4629,-15600,133245,122,19233,348,1,51146,0.0010000000000000009
574000,-5927,-1554,130562,26535,-6484,132305,97,19228,500,1,51147,0.0010000000000000009
575000,3402,-10376,129282,-34582,-10003,131828,97,19233,397,1,51148,0.0010000000000000009
576000,-3350,10987,129066,-11566,15124,120066,96,19226,393,0,51149,0.0010000000000000009
577000,7022,17633,129965,-4451,14289,126847,138,19231,565,0,51150,0.0010000000000000009
578001,8903,2274,126224,-211,-221,122460,100,19232,410,0,51151,0.0010010000000000296
579000,1080,-8037,127385,-404,-11856,133874,93,19232,410,0,51152,0.0009989999999999721
580000,8089,-7817,128609,-16379,-4631,128944,148,19225,381,1,51153,0.0010000000000000009
581000,-1985,-140,129741,793,-2535,129743,97,19231,606,1,51154,0.0010000000000000009
582002,5865,1479,128606,-15710,3869,128253,97,19236,397,1,51155,0.0010020000000000584
583000,1207,15478,127754,-981,14631,118171,105,19228,430,0,51156,0.0009979999999999434
584000,-2650,5475,125065,-9396,-462,130861,104,19231,426,0,51157,0.0010000000000000009
585002,7504,4070,125818,-15930,4561,121884,93,19231,381,0,51158,0.0010020000000000584
586000,11163,5445,128376,12427,5540,124734,112,19235,381,1,51159,0.0009979999999999434
587000,9760,3051,129184,2758,2126,124773,94,19228,459,1,51160,0.0010000000000000009
588002,-67,-7442,125544,-8003,-10338,130068,94,19229,385,1,51161,0.0010020000000000584
589004,6698,-8134,126542,-10502,-7239,132332,100,19234,410,1,51162,0.0010019999999999474
590000,8767,16980,127366,7911,17710,115732,137,19226,561,0,51163,0.0009959999999999969
591001,7071,9741,127205,-1371,7990,123230,105,19226,430,0,51164,0.0010010000000000296
592000,15446,-4941,123735,-4903,-5805,126749,85,19235,430,0,51165,0.0009989999999999721
593000,13614,-7136,123338,12274,-8183,129885,105,19228,348,1,51166,0.0010000000000000009
594000,15538,4441,125062,8885,2767,121896,105,19234,430,1,51167,0.0010000000000000009
595001,7675,2326,125002,5835,852,123013,103,19229,422,1,51168,0.0010010000000000296
596002,11934,-478,125422,-4850,-629,130831,106,19225,434,0,51169,0.0010009999999999186
597000,12290,5903,126473,3487,5437,122088,108,19230,442,0,51170,0.0009980000000000544
598000,12331,3492,126678,9192,2806,124646,93,19230,442,0,51171,0.0010000000000000009
599000,15832,-6999,125974,5533,-6463,127082,101,19233,381,0,51172,0.0010000000000000009
600003,12992,-5460,127442,5566,-5680,128866,101,19220,414,1,51173,0.0010029999999999761
601000,18029,254,128324,9264,48,127530,81,19232,332,1,51174,0.0009970000000000256
602000,10410,1052,126795,9333,-49,124463,95,19228,389,1,51175,0.0010000000000000009
603000,11433,971,127753,-3890,-93,128745,116,19232,475,0,51176,0.0010000000000000009
604000,12063,682,128086,245,800,126539,105,19232,475,0,51177,0.0010000000000000009
605000,14049,-375,127925,11132,-4608,130046,85,19232,430,0,51178,0.0010000000000000009
606000,13338,-4239,127280,7323,2027,123043,85,19230,348,1,51179,0.0010000000000000009
607000,8502,-2920,127490,-5933,-3320,132383,138,19237,565,1,51180,0.0010000000000000009
608000,9305,-6831,128793,3845,-5395,131882,95,19233,389,1,51181,0.0010000000000000009
609000,4816,2906,130740,-8410,-113,129110,98,19228,401,1,51182,0.0010000000000000009
610000,7518,-5165,127295,-1300,5272,122049,135,19228,401,0,51183,0.0010000000000000009
611000,8354,17249,131259,9837,7865,127234,95,19228,553,0,51184,0.0010000000000000009
612000,9130,-13986,126687,-17338,-14744,136158,95,19241,389,0,51185,0.0010000000000000009
613000,12428,3568,130891,-9655,6539,117831,92,19224,377,1,51186,0.0010000000000000009
614000,4501,-2646,129459,25823,-11059,140552,98,19230,401,1,51187,0.0010000000000000009
615000,-4846,-7646,128899,-21379,-4469,125739,102,19229,418,1,51188,0.0010000000000000009
616000,-1058,-3111,128117,-27878,-2739,133123,116,19229,418,0,51189,0.0010000000000000009
617000,4420,14526,130389,6869,21514,118842,106,19228,475,0,51190,0.0010000000000000009
618000,6200,21856,128385,2107,10156,117134,106,19233,434,0,51191,0.0010000000000000009
619000,5725,-15759,127048,-16025,-19977,136779,91,19233,373,0,51192,0.0010000000000000009
620001,3092,-8868,127213,-5345,-5869,127570,129,19224,528,1,51193,0.0010010000000000296
621000,3419,-5078,130678,-1060,-4463,133743,102,19231,418,1,51194,0.0009989999999999721
622000,3673,14632,130046,-11181,16406,117789,98,19231,418,1,51195,0.0010000000000000009
623003,625,-879,126417,-7623,-8256,134203,136,19230,401,0,51196,0.0010029999999999761
624000,1382,7520,124489,-14516,12238,117469,136,19230,557,0,51197,0.0009970000000000256
625000,10254,9539,126903,985,1108,125728,105,19231,430,0,51198,0.0010000000000000009
626000,9600,-5923,123780,12178,-2922,128050,95,19225,389,1,51199,0.0010000000000000009
627000,5673,6584,127277,-13275,4177,122132,100,19237,410,1,51200,0.0010000000000000009
628000,5882,-6584,125591,-3371,-3877,131912,97,19237,397,1,51201,0.0010000000000000009
629000,8544,12417,128917,6621,7755,123300,104,19233,397,1,51202,0.0010000000000000009
630000,5797,-6915,124511,998,-6514,134192,119,19225,426,0,51203,0.0010000000000000009
631000,7867,13676,127015,-14349,16524,110492,119,19232,487,0,51204,0.0010000000000000009
632000,15943,3528,125218,10538,-656,130498,87,19235,356,0,51205,0.0010000000000000009
633001,15254,-3156,124647,10668,-2631,125932,110,19233,451,1,51206,0.0010009999999999186
634000,12737,-1267,124004,2976,-4179,124060,93,19233,381,1,51207,0.0009990000000000832
635000,8646,-1638,125954,3736,-1014,127085,96,19233,381,1,51208,0.0010000000000000009
636003,14159,8451,128055,1002,7773,122337,131,19230,393,0,51209,0.0010029999999999761
637000,12480,-5644,126151,4914,-5491,133789,131,19231,537,0,51210,0.0009970000000000256
638000,13519,8766,126011,5520,8638,116196,103,19234,422,0,51211,0.0010000000000000009
639002,12908,-3955,126164,9592,-4867,128792,85,19228,348,0,51212,0.0010019999999999474
640000,16888,-7907,125599,592,-7838,128336,130,19228,532,1,51213,0.0009980000000000544
641000,13142,-3730,127383,13786,-3959,131116,94,19234,532,1,51214,0.0010000000000000009
642000,11790,3126,127535,-386,2498,125266,95,19232,385,1,51215,0.0010000000000000009
643000,12824,5189,127707,2406,3931,122562,95,19224,389,0,51216,0.0010000000000000009
644000,10965,-7094,127401,6765,-9028,136002,103,19231,422,0,51217,0.0010000000000000009
645000,14596,1740,128709,234,1180,122878,91,19234,373,0,51218,0.0010000000000000009
646001,10525,2418,129390,6112,1917,125325,101,19222,414,1,51219,0.0010009999999999186
647000,8547,-3622,130169,-368,-3454,131444,85,19222,414,1,51220,0.0009990000000000832
648000,7741,-11708,127725,1825,-13120,136867,93,19235,348,1,51221,0.0010000000000000009
649000,3534,-567,130323,-4838,-3465,118008,93,19235,381,1,51222,0.0010000000000000009
650000,16922,17181,131836,-2948,18528,129751,121,19222,496,0,51223,0.0010000000000000009
651001,3300,-5748,127686,18439,-2565,128851,101,19233,414,0,51224,0.0010009999999999186
652001,7286,-3677,130738,-30794,2800,125357,83,19230,340,0,51225,0.0010000000000000009
653000,12158,-6415,129042,-6413,-8707,134318,137,19230,340,1,51226,0.0009990000000000832
654000,-6420,-7810,126196,31990,-9075,131812,101,19233,561,1,51227,0.0010000000000000009
655001,4276,-5580,127950,-33230,211,126137,101,19232,414,1,51228,0.0010009999999999186
656000,-4866,15133,129357,1331,18158,121201,104,19226,426,0,51229,0.0009989999999999721
657000,12790,15040,129544,-3685,8340,127252,128,19228,524,0,51230,0.0010000000000000009
658000,3255,-40,127284,2496,-3331,124527,97,19236,397,0,51231,0.0010000000000000009
659000,1974,-9185,128011,-12553,-11870,133879,98,19236,397,0,51232,0.0010000000000000009
660000,5735,-4973,129483,-10245,-1264,127172,120,19223,401,1,51233,0.0010000000000000009
661002,-2081,-408,130411,-1496,-3251,132556,120,19232,491,1,51234,0.0010020000000000584
662000,9019,5194,128251,-13448,8973,122171,93,19230,381,1,51235,0.0009979999999999434
663000,-3628,15881,128875,612,4690,122147,109,19226,446,0,51236,0.0010000000000000009
664000,4515,-912,125265,-20558,-4871,131261,108,19235,442,0,51237,0.0010000000000000009
665000,10763,3923,126569,841,4249,120521,89,19235,442,0,51238,0.0010000000000000009
666001,8545,3826,126646,14104,2718,129545,129,19236,365,1,51239,0.0010010000000000296
667000,6575,-1228,125536,-9568,-2303,122463,129,19228,528,1,51240,0.0009989999999999721
668002,1378,-7001,125282,-11354,-7727,133731,96,19231,393,1,51241,0.0010020000000000584
669000,11066,-621,126377,6567,3417,126462,98,19229,401,1,51242,0.0009979999999999434
670002,6193,18500,125805,2054,18180,113666,150,19229,614,0,51243,0.0010020000000000584
671000,9867,4084,126348,-13419,-1669,128588,98,19229,401,0,51244,0.0009979999999999434
672000,12868,-4818,122862,8749,-4488,125280,88,19237,401,0,51245,0.0010000000000000009
673000,14124,-961,126106,11912,-1351,129938,86,19227,360,1,51246,0.0010000000000000009
674000,12671,7316,123556,3720,3401,118598,86,19232,352,1,51247,0.0010000000000000009
675000,7683,2913,126423,-896,986,127127,99,19228,405,1,51248,0.0010000000000000009
676000,15307,-1998,127574,1233,-100,129580,110,19228,451,0,51249,0.0010000000000000009
677000,12845,8277,129783,10911,8497,119245,103,19228,422,0,51250,0.0010000000000000009
678000,13493,2441,126435,6129,226,128566,86,19231,422,0,51251,0.0010000000000000009
679000,14672,-9497,125316,3461,-10442,125214,118,19235,352,1,51252,0.0010000000000000009
680000,15042,-5556,126585,7039,-5037,132480,118,19226,483,1,51253,0.0010000000000000009
681000,14586,-140,128005,13012,91,125748,89,19231,365,1,51254,0.0010000000000000009
682000,11011,4471,127018,-2972,3305,123294,91,19231,373,1,51255,0.0010000000000000009
683000,12323,-2307,127971,174,-3832,131252,131,19231,537,0,51256,0.0010000000000000009
684000,13802,1890,127645,8175,1419,126131,100,19228,537,0,51257,0.0010000000000000009
685000,12936,-862,129114,4793,-1325,129439,88,19234,410,0,51258,0.0010000000000000009
686000,11624,-1893,125753,1471,-2341,124888,88,19230,360,1,51259,0.0010000000000000009
687000,8113,-1766,130008,-1361,-1995,128129,132,19236,541,1,51260,0.0010000000000000009
688000,9600,-7122,128826,4728,-7576,134965,96,19233,393,1,51261,0.0010000000000000009
689001,4628,2989,131604,-11287,2861,125684,102,19233,418,0,51262,0.0010010000000000296
690000,9743,4462,131823,4318,4450,122869,114,19228,418,0,51263,0.0009989999999999721
691001,6353,10174,129216,7340,8698,128401,90,19232,467,0,51264,0.0010010000000000296
692000,9696,-18414,127374,-17564,-19230,136479,90,19234,369,0,51265,0.0009989999999999721
693000,8628,4653,131610,-6639,3265,121805,105,19224,430,1,51266,0.0010000000000000009
694000,5516,350,128879,19107,-1960,133704,98,19230,401,1,51267,0.0010000000000000009
695000,-3990,-4853,129201,-14924,-6974,129689,101,19232,414,1,51268,0.0010000000000000009
696000,1777,-6206,127258,-24620,-7967,131153,131,19232,414,0,51269,0.0010000000000000009
697001,5993,16742,129116,3283,13673,114007,110,19228,537,0,51270,0.0010010000000000296
698000,7402,15637,130239,797,-4980,129153,110,19236,451,0,51271,0.0009989999999999721
699000,4227,-18725,124853,-8694,-17935,134215,91,19230,373,1,51272,0.0010000000000000009
700000,2779,-7948,128358,-10713,-5947,133110,153,19235,627,1,51273,0.0010000000000000009
701002,2562,1923,130001,-4538,7534,121378,96,19232,393,1,51274,0.0010020000000000584
702001,3567,15495,129823,-6516,7050,127041,94,19232,393,1,51275,0.0009989999999999721
703000,-793,-5740,125613,-13008,-5310,130415,125,19227,385,0,51276,0.0009989999999999721
704000,3325,12233,125095,-12206,15700,115931,125,19232,512,0,51277,0.0010000000000000009
705000,9990,4951,126578,8553,-2144,131013,97,19231,397,0,51278,0.0010000000000000009
706000,9601,-3498,124079,2558,936,121289,102,19221,418,1,51279,0.0010000000000000009
707000,6569,-50,127652,-11019,-4137,130006,85,19231,348,1,51280,0.0010000000000000009
708000,7786,-3915,125346,1756,723,124354,97,19231,348,1,51281,0.0010000000000000009
709001,7422,6117,128053,4579,1881,127422,119,19230,397,0,51282,0.0010010000000000296
710001,5157,-2108,123540,-8384,17,125113,119,19219,487,0,51283,0.0010000000000000009
711000,7939,12880,126512,-4865,11769,116700,107,19235,438,0,51284,0.0009989999999999721
712000,15171,1433,124121,12845,-3701,131777,87,19232,356,0,51285,0.0010000000000000009
713000,14470,-3502,123526,5634,-2561,122764,130,19233,532,1,51286,0.0010000000000000009
714000,11673,-691,125134,5139,-2354,126168,100,19233,532,1,51287,0.0010000000000000009
715000,10307,1489,125883,-413,2832,123962,100,19229,410,1,51288,0.0010000000000000009
716000,13399,3122,127157,4932,829,128005,100,19228,410,0,51289,0.0010000000000000009
717001,12073,-890,127463,4049,950,128411,119,19231,487,0,51290,0.0010010000000000296
718000,14491,5416,126454,6959,5502,119600,97,19235,397,0,51291,0.0009989999999999721
719000,14226,-670,126923,9269,-8419,126902,93,19221,381,1,51292,0.0010000000000000009
720000,14563,-7138,125561,1187,-7562,132669,107,19221,438,1,51293,0.0010000000000000009
721000,13273,-2429,128186,11106,-576,125682,95,19229,438,1,51294,0.0010000000000000009
722000,11859,7680,129009,2726,6746,123868,104,19230,389,1,51295,0.0010000000000000009
723000,11359,-6,127606,1754,-2843,128252,104,19224,426,0,51296,0.0010000000000000009
724000,11754,-7319,126987,2173,-7197,131966,102,19232,418,0,51297,0.0010000000000000009
725000,14425,1422,129725,4651,1495,125242,87,19234,356,0,51298,0.0010000000000000009
726001,11506,5578,129147,4217,4473,122902,119,19234,487,1,51299,0.0010010000000000296
727000,7227,-7426,129907,-829,-8300,132972,95,19228,487,1,51300,0.0009989999999999721
728000,8844,-14483,126335,3217,-15190,135337,93,19229,389,1,51301,0.0010000000000000009
729000,5887,8458,131699,-5923,10342,120353,93,19230,381,0,51302,0.0010000000000000009
730000,16138,11791,129387,2734,10330,128390,138,19227,565,0,51303,0.0010000000000000009
731001,941,-346,128758,8233,-1328,128926,100,19232,410,0,51304,0.0010010000000000296
732001,15129,-3199,130396,-32072,-3825,127576,87,19232,356,0,51305,0.0010000000000000009
733000,5863,-7663,129888,20247,-9436,132165,121,19227,356,1,51306,0.0009989999999999721
734000,-1718,-9020,128389,6178,-11386,135692,104,19230,496,1,51307,0.0010000000000000009
735000,2865,3304,129711,-33884,3129,122529,104,19230,426,1,51308,0.0010000000000000009
736000,-2513,16798,130178,-3236,15591,124336,106,19225,434,0,51309,0.0010000000000000009
737000,15142,5080,130377,-4583,6153,127766,105,19232,430,0,51310,0.0010000000000000009
738000,1346,418,127360,4248,-774,123876,91,19235,373,0,51311,0.0010000000000000009
739000,5910,-12968,128867,-9748,-13490,135961,110,19235,373,1,51312,0.0010000000000000009
740001,1622,1797,129136,-13610,361,128636,85,19221,451,1,51313,0.0010010000000000296
741001,188,-5151,129130,1924,-6136,134180,85,19231,348,1,51314,0.0010000000000000009
742001,3929,7531,126967,-18401,5633,114012,92,19231,377,1,51315,0.0010000000000000009
743000,-4425,11198,126736,-2053,11206,132217,125,19227,512,0,51316,0.0009989999999999721
744000,8726,-5765,122605,-16002,-7855,121065,105,19234,430,0,51317,0.0010000000000000009
745000,8937,9558,127671,1248,4596,127197,89,19234,430,0,51318,0.0010000000000000009
746000,10581,-1291,125869,10346,-998,124595,115,19227,365,1,51319,0.0010000000000000009
747000,4189,4293,126282,-8100,-2381,124003,115,19231,471,1,51320,0.0010000000000000009
748000,3881,-12384,125848,-8454,-11355,138153,97,19229,397,1,51321,0.0010000000000000009
749001,10457,9300,126437,6797,16902,112721,101,19228,414,0,51322,0.0010009999999999186
750000,3203,15002,126430,-2590,5347,127084,130,19233,532,0,51323,0.0009990000000000832
751001,11989,-490,124991,-7752,-1657,122983,93,19233,532,0,51324,0.0010009999999999186
752000,12506,-1275,125055,15168,-7408,130661,97,19234,381,1,51325,0.0009990000000000832
753000,14272,-5570,126226,4697,-916,125494,97,19226,397,1,51326,0.0010000000000000009
754000,11106,5975,125077,3802,690,119840,84,19232,344,1,51327,0.0010000000000000009
755001,8515,-6184,125525,-4673,-5368,133926,98,19235,401,1,51328,0.0010009999999999186
756000,15729,6177,126189,8449,8391,120986,120,19227,491,0,51329,0.0009990000000000832
757000,11330,3901,127423,7832,951,126315,106,19227,491,0,51330,0.0010000000000000009
758002,15275,-161,125676,961,-811,124263,87,19232,434,0,51331,0.0010019999999999474
759020,14376,-8022,124431,8041,-9752,129778,87,19232,356,1,51332,0.0010179999999999634
760000,16075,-2330,126823,8807,-192,128315,136,19235,557,1,51333,0.000980000000000092
761000,12074,1731,127148,10836,-463,123954,93,19234,381,1,51334,0.0010000000000000009
762000,9900,497,127510,-5502,64,127711,92,19229,377,1,51335,0.0010000000000000009
763000,12832,219,128425,3908,800,127225,117,19229,479,0,51336,0.0010000000000000009
764000,11848,4401,128342,7194,-999,128297,97,19230,479,0,51337,0.0010000000000000009
765000,15197,1717,130385,4396,-434,126527,95,19233,397,0,51338,0.0010000000000000009
766000,9342,-4708,127885,-178,-5629,125151,95,19225,389,1,51339,0.0010000000000000009
767000,11392,-1568,133103,2673,-2191,130271,105,19236,430,1,51340,0.0010000000000000009
768000,8035,-4681,129437,3857,-5210,132994,93,19233,381,1,51341,0.0010000000000000009
769002,5996,-2869,130045,-14596,-3896,128064,107,19233,438,0,51342,0.0010019999999999474
770000,10112,11882,131895,10500,13886,118419,104,19221,438,0,51343,0.0009980000000000544
771000,4412,1649,128031,5242,-4910,136910,85,19233,426,0,51344,0.0010000000000000009
772000,12573,-13039,128324,-28392,-10271,128229,85,19234,348,1,51345,0.0010000000000000009
773000,8193,4512,132162,8494,2545,124562,121,19227,496,1,51346,0.0010000000000000009
774000,4633,-5578,128728,18582,-7211,136055,102,19230,418,1,51347,0.0009999999999998899
775000,-5949,-1990,129930,-36042,-1967,124541,99,19230,405,1,51348,0.0010000000000000009
776000,835,763,128301,-12442,1724,135059,138,19230,405,0,51349,0.0010000000000000009
777000,8323,24365,130646,4495,26128,113435,103,19230,565,0,51350,0.0010000000000000009
778000,7776,7095,131044,-1752,4940,125333,103,19236,422,0,51351,0.0010000000000000009
779000,4086,-18685,126331,-12546,-19906,135423,93,19225,381,1,51352,0.0010000000000000009
780000,1209,-7003,129773,-5056,-7532,131436,145,19234,594,1,51353,0.0010000000000000009
781000,2525,6173,130620,-6963,5257,125899,94,19231,385,1,51354,0.0010000000000000009
782000,1576,11276,129595,-5076,10216,122866,102,19231,385,0,51355,0.0010000000000000009
783000,-2490,-4123,125884,-11213,-5717,131717,104,19220,418,0,51356,0.0010000000000000009
784000,5596,13558,127151,-15691,13275,117293,104,19234,426,0,51357,0.0010000000000000009
785001,11456,-310,125222,8120,-645,128048,91,19230,373,0,51358,0.0010010000000000296
786000,9662,804,125407,7530,-184,124245,115,19231,471,1,51359,0.0009989999999999721
787000,7571,-8413,125082,-11797,-9390,130399,93,19231,381,1,51360,0.0010000000000000009
788000,8520,2955,127049,-268,1805,123593,99,19231,381,1,51361,0.0010000000000000009
789000,5450,2595,123596,6715,1271,129276,134,19233,405,0,51362,0.0010000000000000009
790000,5899,694,125283,-9879,-761,119780,134,19224,549,0,51363,0.0010000000000000009
791002,8411,14205,126163,-6965,6228,121547,105,19231,430,0,51364,0.0010020000000000584
792000,16432,-56,125886,12095,-5552,130907,85,19229,348,1,51365,0.0009979999999999434
793000,12398,-2825,123658,7675,-3435,122708,106,19233,434,1,51366,0.0010000000000000009
794002,9653,-3570,125246,3557,-3257,126904,103,19233,434,1,51367,0.0010020000000000584
795005,10222,5210,126266,2406,6745,122536,108,19232,422,1,51368,0.0010029999999999761
796002,13725,1770,128427,4157,-2405,131363,108,19226,442,0,51369,0.0009970000000000256
797000,14157,-1351,125790,2497,1490,123305,110,19228,451,0,51370,0.0009979999999999434
798000,15267,393,126608,10872,2603,121949,93,19232,381,0,51371,0.0010000000000000009
799001,16086,-3592,125791,4688,-7894,130302,99,19222,405,1,51372,0.0010010000000000296
800002,14291,-7502,125239,8860,-6262,130049,82,19222,405,1,51373,0.0010010000000000296
801002,12466,-1131,126868,6633,2536,126351,95,19230,336,1,51374,0.0010000000000000009
802000,12374,8293,128231,1330,6138,121216,95,19232,389,0,51375,0.0009979999999999434
803000,11290,-1517,127768,3931,-5877,132583,119,19229,487,0,51376,0.0010000000000000009
804001,12404,-4984,129969,2839,-4390,128678,104,19233,426,0,51377,0.0010010000000000296
805000,12713,2737,128704,2516,2805,123824,85,19230,348,0,51378,0.0009989999999999721
806000,10533,1905,130407,2745,-313,126593,141,19230,348,1,51379,0.0010000000000000009
807003,7803,-8409,129483,3747,-11984,133809,96,19237,577,1,51380,0.0010029999999999761
808000,7552,-11090,128801,-6004,-11738,135755,96,19231,393,1,51381,0.0009970000000000256
809002,7051,10537,131817,-3783,11886,114445,99,19228,405,0,51382,0.0010020000000000584
810000,14958,12963,130238,12736,4507,133006,136,19231,557,0,51383,0.0009979999999999434
811000,514,-5651,128140,366,-4319,127250,95,19235,389,0,51384,0.0010000000000000009
812000,12098,-547,131352,-36566,-4086,127642,93,19235,381,1,51385,0.0010000000000000009
813002,7760,-7283,129290,29138,-7702,134109,100,19220,381,1,51386,0.0010020000000000584
814000,-3725,-8818,129558,2161,-9841,131463,101,19231,410,1,51387,0.0009979999999999434
815000,3415,40,130789,-38671,3222,126109,101,19229,414,1,51388,0.0010000000000000009
816000,-4279,17430,130619,1534,16667,122205,117,19222,479,0,51389,0.0010000000000000009
817000,15762,10561,131187,-3745,9891,125575,108,19233,442,0,51390,0.0010000000000000009
818000,3709,-1945,126679,616,-5032,125343,91,19233,373,0,51391,0.0010000000000000009
819000,2795,-12719,128696,-8665,-12714,134741,129,19229,373,1,51392,0.0010000000000000009
820000,2480,1399,130313,-12958,578,128944,94,19223,528,1,51393,0.0010000000000000009
821003,-1727,-3389,128287,-110,-3846,134446,94,19237,385,1,51394,0.0010029999999999761
822000,6796,15917,130891,-18839,16613,116026,90,19229,369,0,51395,0.0009970000000000256
823000,-2661,6355,125748,4135,2786,126838,133,19230,545,0,51396,0.0010000000000000009
824000,5021,-4786,125720,-13146,-3749,130086,104,19230,426,0,51397,0.0010000000000000009
825002,10695,7334,126723,-8094,6801,118925,93,19232,426,0,51398,0.0010020000000000584
826000,9884,5863,126966,14990,5412,126461,98,19226,381,1,51399,0.0009979999999999434
827000,7826,495,127076,-2733,-637,123962,98,19230,401,1,51400,0.0010000000000000009
828000,3472,-17435,124092,-14693,-18505,138358,97,19230,397,1,51401,0.0010000000000000009
829000,8500,10818,127013,3328,10329,120118,107,19219,438,0,51402,0.0010000000000000009
830000,6504,13786,126620,3771,13340,119542,120,19234,491,0,51403,0.0010000000000000009
831000,11418,3939,125548,-9938,3174,124213,90,19234,491,0,51404,0.0010000000000000009
832000,11993,-11262,123276,7046,-12057,128183,111,19234,369,1,51405,0.0010000000000000009
833000,13587,517,124504,10936,-1830,126072,111,19230,455,1,51406,0.0010000000000000009
834000,13503,4443,125804,4402,6063,127976,97,19232,397,1,51407,0.0010000000000000009
835000,6994,-5745,124399,1881,-8555,128515,101,19229,414,1,51408,0.0010000000000000009
836000,15628,7292,128703,-1790,8739,123177,133,19230,545,0,51409,0.0010000000000000009
837000,11713,3942,126212,8624,2624,123807,103,19230,545,0,51410,0.0010000000000000009
838000,16038,4676,127333,7547,5643,125445,90,19236,422,0,51411,0.0010000000000000009
839002,13645,-15203,123478,7075,-12514,132367,90,19227,369,1,51412,0.0010019999999999474
840001,13813,111,129050,1629,5163,124249,129,19228,528,1,51413,0.0009990000000000832
841000,14381,597,127583,12315,-3160,128513,95,19234,389,1,51414,0.0009989999999999721
842000,10226,3686,127812,2863,3608,123317,96,19226,393,0,51415,0.0010000000000000009
843000,10245,-1518,127856,-365,-3554,131543,110,19226,393,0,51416,0.0010000000000000009
844000,11886,-5543,129461,8130,-4678,127977,90,19232,451,0,51417,0.0010000000000000009
845000,15390,2520,127351,11077,731,124179,90,19232,369,0,51418,0.0010000000000000009
846000,8045,-1898,129557,-7115,-3586,128275,104,19227,426,1,51419,0.0010000000000000009
847000,11054,-4904,128717,-1766,-5775,130099,87,19236,356,1,51420,0.0010000000000000009
848000,6507,-4417,131095,3263,-2223,133785,93,19235,381,1,51421,0.0010000000000000009
849000,6648,-2487,126710,-7697,-4332,125518,118,19235,381,0,51422,0.0010000000000000009
850003,7168,13833,131615,5624,14835,120942,100,19229,483,0,51423,0.0010029999999999761
851002,6150,-4072,127639,696,-13214,138422,100,19238,410,0,51424,0.0009989999999999721
852000,13769,-5218,129016,-23217,2975,120282,82,19229,336,1,51425,0.0009980000000000544
853000,7836,6284,132752,13938,-1521,131011,141,19234,577,1,51426,0.0010000000000000009
854000,465,-10093,129247,8025,-15640,132449,104,19230,426,1,51427,0.0010000000000000009
855000,-4774,245,131445,-41488,-3301,130732,102,19230,426,1,51428,0.0010000000000000009
856000,2654,2513,131521,-4702,7425,127015,124,19224,418,0,51429,0.0010000000000000009
857000,8830,27953,130009,9537,24550,113750,98,19232,508,0,51430,0.0010000000000000009
858002,7455,-2291,128682,-11303,-9975,133570,98,19236,401,0,51431,0.0010019999999999474
859000,3579,-17205,124923,-13071,-15394,128909,101,19228,414,1,51432,0.0009980000000000544
860000,2503,-6345,130134,2432,-6798,135963,118,19234,483,1,51433,0.0010000000000000009
861000,4147,7422,130001,-6767,10135,120899,95,19234,389,1,51434,0.0010000000000000009
862000,-29,9774,128323,-8315,4776,127607,111,19231,389,0,51435,0.0010000000000000009
863000,-1320,-3576,125033,-14629,-2580,128897,103,19225,455,0,51436,0.0010000000000000009
864000,5777,13785,127622,-7496,13094,116465,103,19228,422,0,51437,0.0010000000000000009
865000,12279,-1965,123743,10103,-1888,131567,88,19231,360,0,51438,0.0010000000000000009
866000,7095,9358,127010,1467,9671,116248,129,19233,528,1,51439,0.0010000000000000009
867000,8132,-8244,125834,-12853,-10284,133963,96,19233,393,1,51440,0.0010000000000000009
868000,8834,2275,128966,2310,4376,123899,99,19229,393,1,51441,0.0010000000000000009
869000,4512,2294,126224,6948,-828,129943,145,19229,405,0,51442,0.0010000000000000009
870001,5798,3458,125702,-13501,5325,119848,145,19232,594,0,51443,0.0010009999999999186
871000,11035,12249,127143,-821,11051,118952,99,19236,405,0,51444,0.0009990000000000832
872000,18284,-8382,124064,15049,-9293,134682,87,19222,356,1,51445,0.0010000000000000009
873000,11088,3032,125053,4853,2226,117825,85,19231,348,1,51446,0.0010000000000000009
874000,9823,-6588,125458,3469,-7205,130996,99,19231,348,1,51447,0.0010000000000000009
875000,11930,4748,126384,1053,4122,121403,109,19232,405,1,51448,0.0010000000000000009
876000,13547,-566,128450,7614,-472,132131,109,19228,446,0,51449,0.0010000000000000009
877001,13393,-1086,124032,1547,-3131,124729,105,19235,430,0,51450,0.0010009999999999186
878000,12672,5339,126796,7871,6026,119161,85,19233,348,0,51451,0.0009990000000000832
879000,16608,-11698,122097,1762,-13962,135570,115,19221,471,1,51452,0.0010000000000000009
880000,14531,-1683,129116,11543,-1011,124289,88,19221,471,1,51453,0.0010000000000000009
881000,11412,-298,128053,9895,-2103,125707,91,19231,360,1,51454,0.0010000000000000009
882000,13353,7410,128736,-5114,7265,123892,91,19237,373,0,51455,0.0010000000000000009
883000,8630,-5581,126855,7561,-7346,136027,131,19231,537,0,51456,0.0010000000000000009
884003,14023,-249,129632,3142,-497,121104,101,19231,414,0,51457,0.0010029999999999761
885001,11079,3725,128554,1954,-150,126778,87,19225,356,0,51458,0.0009979999999999434
886001,10037,-3041,130514,2356,-5839,130498,115,19225,356,1,51459,0.0010000000000000009
887000,8425,-7496,128227,4231,-10795,133647,94,19236,471,1,51460,0.0009990000000000832
888001,7174,-15744,129071,-2602,7,129546,94,19231,385,1,51461,0.0010009999999999186
889005,10069,14434,130026,-385,14906,119315,101,19226,414,0,51462,0.0010040000000000049
890003,10168,121,126881,16658,-3637,134170,114,19233,467,0,51463,0.0009980000000000544
891000,2885,1982,128486,-27538,3257,122877,88,19232,360,0,51464,0.0009970000000000256
892000,17594,-3949,130087,-6806,-8422,129581,109,19232,360,1,51465,0.0010000000000000009
893000,383,-5229,130053,32977,-8966,135931,89,19228,446,1,51466,0.0009999999999998899
894000,-1502,-11073,130019,-30771,-11322,130628,89,19233,365,1,51467,0.0010000000000000009
895002,-602,7421,129845,-18608,11934,122338,95,19230,389,1,51468,0.0010020000000000584
896002,1169,15058,130276,2675,13004,126546,126,19232,516,0,51469,0.0010000000000000009
897000,12577,9849,128527,-7191,6240,119208,108,19233,442,0,51470,0.0009979999999999434
898002,1443,-4626,126824,-617,-11983,134092,88,19233,442,0,51471,0.0010020000000000584
899000,5840,-11533,128908,-8088,-13182,129505,153,19226,360,1,51472,0.0009979999999999434
900000,-237,1941,130943,1393,-2583,130559,153,19231,627,1,51473,0.0010000000000000009
901000,242,-1765,129397,-13938,1733,128084,94,19230,385,1,51474,0.0010000000000000009
902001,5440,18755,129783,-16589,15923,116008,97,19221,397,0,51475,0.0010010000000000296
903000,-1243,-1667,124446,10171,-7625,135575,126,19229,516,0,51476,0.0009989999999999721
904000,5223,69,125134,-15660,6065,119291,98,19229,401,0,51477,0.0010000000000000009
905000,10598,9161,127583,-3058,6580,122222,101,19232,401,1,51478,0.0010000000000000009
906000,8204,6655,127340,9926,6303,124190,85,19226,414,1,51479,0.0010000000000000009
907000,10559,-5345,126718,-7574,-12200,132453,85,19232,348,1,51480,0.0010000000000000009
908001,2397,-15096,124357,-6817,-10977,132248,98,19231,401,1,51481,0.0010010000000000296
909000,6734,14534,128145,3645,15956,117035,120,19222,491,0,51482,0.0009989999999999721
910000,5469,11002,127139,-4951,8660,124691,108,19222,442,0,51483,0.0010000000000000009
911000,13490,6771,126691,-5100,6044,125438,86,19232,442,0,51484,0.0010000000000000009
912000,13605,-8266,123047,15564,-9422,129441,130,19229,352,1,51485,0.0010000000000000009
913000,11089,4257,126111,2928,3944,118323,130,19231,532,1,51486,0.0010000000000000009
914000,12596,-3356,126651,4652,-5264,129488,101,19233,414,1,51487,0.0010000000000000009
915000,9664,-1530,126975,6398,-1061,127799,102,19226,418,0,51488,0.0010000000000000009
916000,14427,9531,127948,-2483,9366,123551,121,19226,496,0,51489,0.0010000000000000009
917000,9549,1404,125814,5696,399,123345,98,19229,496,0,51490,0.0010000000000000009
918000,16925,-2816,126612,7859,-3232,126492,93,19232,401,0,51491,0.0010000000000000009
919003,15598,-11851,125477,8792,-12418,132058,93,19220,381,1,51492,0.0010029999999999761
920000,14256,4930,128750,6225,5019,121399,107,19234,438,1,51493,0.0009970000000000256
921000,13621,-1046,128187,8809,-1629,130218,96,19238,393,1,51494,0.0010000000000000009
922000,12007,-1586,126730,1289,-2685,126015,108,19226,442,0,51495,0.0010000000000000009
923000,11017,2765,129057,1638,922,128063,102,19226,442,0,51496,0.0010000000000000009
924001,11058,-287,128016,4343,-651,126351,87,19232,418,0,51497,0.0010010000000000296
925002,14770,-3041,127838,7840,-4068,127199,87,19233,356,0,51498,0.0010010000000000296
926002,8286,-2294,129973,335,-2694,127625,116,19227,475,1,51499,0.0010000000000000009
927002,10123,-2515,129278,-2437,-3244,130269,94,19232,385,1,51500,0.0010000000000000009
928000,5236,-2162,130495,1046,-3117,131397,96,19228,393,1,51501,0.0009979999999999434
929000,6451,-5151,125829,-5345,-7226,121175,138,19228,393,0,51502,0.0010000000000000009
930000,9228,15735,132552,3756,15618,128691,101,19226,565,0,51503,0.0010000000000000009
931001,8040,-9003,126090,311,-7819,131806,101,19234,414,0,51504,0.0010010000000000296
932000,13512,2340,130885,-19446,10099,120243,85,19224,348,1,51505,0.0009989999999999721
933000,4837,-5228,129138,9212,-13825,141520,116,19231,475,1,51506,0.0010000000000000009
934003,-4487,-10008,130017,10062,-3170,124262,105,19232,430,1,51507,0.0010029999999999761
935002,-1069,-851,128324,-37044,-5261,135689,110,19232,430,0,51508,0.0009990000000000832
936000,2091,7511,130483,-3859,22947,117164,106,19222,451,0,51509,0.0009979999999999434
937001,9617,28011,128177,2612,12453,120650,106,19231,434,0,51510,0.0010010000000000296
938000,5656,-14119,126551,-13035,-17165,135919,94,19230,385,0,51511,0.0009989999999999721
939000,4913,-7761,126015,-7541,-7050,126407,109,19214,446,1,51512,0.0010000000000000009
940000,1707,-6309,130249,2340,-4360,134606,86,19233,352,1,51513,0.0010000000000000009
941000,4244,12247,130462,-11758,13265,118422,91,19233,352,1,51514,0.0010000000000000009
942000,712,691,127244,-8092,-6750,134699,124,19229,373,0,51515,0.0010000000000000009
943000,-1513,6731,125502,-12834,12078,117323,124,19230,508,0,51516,0.0010000000000000009
944000,9104,11029,127783,-2079,-639,122356,107,19238,438,0,51517,0.0010000000000000009
945000,8934,-3323,124264,9843,-3093,128187,90,19226,369,1,51518,0.0010000000000000009
946000,7090,7861,128350,-13153,3218,121253,117,19234,479,1,51519,0.0010000000000000009
947001,5906,-6695,124816,-177,-6273,132235,98,19234,401,1,51520,0.0010010000000000296
948000,6509,8476,128674,2176,8091,123039,101,19235,401,1,51521,0.0009989999999999721
949000,7011,-9598,124391,-362,-11026,133331,138,19226,414,0,51522,0.0010000000000000009
950000,4682,12384,126755,-12510,18091,112177,138,19229,565,0,51523,0.0010000000000000009
951000,16480,7337,126368,8190,200,129276,94,19237,385,0,51524,0.0010000000000000009
952000,14786,-4771,123178,12679,-2703,125433,97,19231,397,1,51525,0.0010000000000000009
953000,12826,456,124351,1778,-4130,125695,87,19231,356,1,51526,0.0010000000000000009
954000,8640,-4574,124916,5807,-854,125306,100,19231,356,1,51527,0.0010000000000000009
955000,14320,13333,128466,3116,9907,123488,119,19232,410,0,51528,0.0010000000000000009
956000,13117,-6123,126554,6590,-5502,134938,119,19228,487,0,51529,0.0010000000000000009
957000,12103,10855,126707,3332,12187,114140,103,19234,422,0,51530,0.0010000000000000009
958000,14718,-1286,127358,6935,-3539,130113,84,19234,344,0,51531,0.0010000000000000009
959000,16506,-7282,125525,5195,-6971,127508,135,19234,553,1,51532,0.0010000000000000009
960000,13844,-5273,128403,14445,-6014,130734,96,19237,553,1,51533,0.0010000000000000009
961000,12237,2792,129079,-764,4265,124704,93,19231,393,1,51534,0.0010000000000000009
962000,13776,5018,129044,720,2829,123958,93,19226,381,0,51535,0.0010000000000000009
963002,9932,-7150,127218,9180,-8782,135896,122,19231,500,0,51536,0.0010019999999999474
964003,12954,4919,129674,-1918,5167,120176,93,19234,381,0,51537,0.0010010000000000296
965000,12041,-1652,129083,5840,-2830,128896,93,19225,381,1,51538,0.0009970000000000256
966000,10049,-4860,128968,3381,-5634,128065,109,19225,381,1,51539,0.0010000000000000009
967000,7637,-9742,127339,-1563,-11299,135563,96,19233,446,1,51540,0.0010000000000000009
968000,3506,-4384,129170,-7663,-4410,127717,96,19232,393,1,51541,0.0010000000000000009
969000,15175,12963,128499,-327,12048,123136,108,19220,442,0,51542,0.0010000000000000009
970000,5112,-2305,129306,19406,-2606,132420,100,19229,410,0,51543,0.0010000000000000009
971000,6370,4433,130104,-26306,4193,122560,83,19235,340,0,51544,0.0010000000000000009
972000,17107,-4954,130981,-13145,-5155,130180,117,19235,340,1,51545,0.0010000000000000009
973000,-4146,-4291,130412,34780,-7158,132517,103,19228,479,1,51546,0.0010000000000000009
974000,1449,-12151,129436,-23056,-13303,125934,103,19230,422,1,51547,0.0010000000000000009
975003,-4741,13202,131437,-25284,11153,126792,100,19225,410,0,51548,0.0010029999999999761
976000,7464,8660,129498,4153,9047,123899,137,19232,561,0,51549,0.0009970000000000256
977001,7386,14762,128503,-8060,14012,120097,101,19235,414,0,51550,0.0010010000000000296
978000,1854,-16706,128437,-2972,-13462,138795,90,19235,414,0,51551,0.0009989999999999721
979001,6325,-7200,127311,-8217,-3443,126346,146,19225,369,1,51552,0.0010010000000000296
980000,-1500,-3993,128533,-543,-5326,136038,146,19236,598,1,51553,0.0009989999999999721
981000,3197,6590,127958,-10365,17178,113806,95,19235,389,1,51554,0.0010000000000000009
982000,4964,17802,128841,-20497,4871,128022,100,19227,410,0,51555,0.0010000000000000009
983000,628,-10609,123511,8668,-10512,133217,105,19228,430,0,51556,0.0010000000000000009
984000,3484,8374,126207,-14683,9520,116727,89,19228,430,0,51557,0.0010000000000000009
985000,10014,6417,126015,1634,4920,125177,111,19233,365,1,51558,0.0010000000000000009
986000,6732,12689,127800,6883,9851,120350,111,19229,455,1,51559,0.0010000000000000009
987000,8210,-12452,125638,-15857,-21675,140779,92,19232,377,1,51560,0.0010000000000000009
988000,6656,-6347,126685,10142,3043,121227,96,19228,393,1,51561,0.0010000000000000009
989000,1414,12332,128615,5495,292,126364,134,19224,549,0,51562,0.0010000000000000009
990000,8765,6748,126477,-24608,9263,119724,102,19224,549,0,51563,0.0010000000000000009
991000,13089,10366,127757,10902,2245,127028,84,19234,418,0,51564,0.0010000000000000009
992000,17188,-6308,123406,17415,-3927,128722,84,19232,344,1,51565,0.0010000000000000009
993000,12440,5090,123672,-581,869,115419,104,19232,426,1,51566,0.0010000000000000009
994001,8711,-12234,124486,255,-12276,138081,100,19231,410,1,51567,0.0010009999999999186
995000,16446,1320,127459,7689,5129,123214,104,19227,426,0,51568,0.0009990000000000832
996000,10885,12611,129110,2474,12546,123659,107,19227,438,0,51569,0.0010000000000000009
997000,12235,5897,126386,1776,1222,122998,93,19230,438,0,51570,0.0010000000000000009
998000,11982,-9504,123464,11375,-10746,128200,103,19234,381,0,51571,0.0010000000000000009
999000,17977,-7208,127474,2578,-3968,131487,103,19223,422,1,51572,0.0010000000000000009
1000000,14576,5801,126518,9953,3709,120458,82,19231,336,1,51573,0.0010000000000000009
1001000,11757,6911,130165,4203,4980,127252,93,19229,381,1,51574,0.0009999999999998899
1002003,11658,-1279,128217,-1251,-2985,128685,117,19229,479,0,51575,0.0010030000000000872
1003000,10621,-3837,129603,3330,-5699,130114,103,19227,479,0,51576,0.0009969999999999146
1004000,13003,721,128080,10260,600,127041,83,19229,422,0,51577,0.001000000000000112
1005001,13756,2447,128869,2171,1967,120738,83,19232,340,1,51578,0.0010010000000000296
1006000,10190,-1102,129460,-6812,-2518,131021,141,19233,577,1,51579,0.0009989999999999721
1007000,7407,-10396,128407,10167,-12290,134121,95,19231,389,1,51580,0.0009999999999998899
1008000,4460,-803,130379,-8225,24,129490,97,19231,397,1,51581,0.001000000000000112
1009000,8268,875,128955,-3411,1373,122042,135,19226,397,0,51582,0.0009999999999998899
1010000,10848,14158,130538,10585,12586,126480,95,19230,553,0,51583,0.001000000000000112
1011001,9279,-15380,126833,-8791,-16004,136217,95,19233,389,0,51584,0.0010010000000000296
1012000,10439,10731,129996,-18808,11093,117651,95,19225,389,1,51585,0.0009989999999999721
1013001,5115,-10613,128968,20910,-14780,139041,102,19233,418,1,51586,0.0010010000000000296
1014000,-7087,-4559,128884,-7269,-6174,128117,101,19228,414,1,51587,0.0009989999999999721
1015000,1633,-5908,129487,-33329,-6190,136607,117,19228,414,0,51588,0.0009999999999998899
1016000,1452,20286,129989,3592,19622,116590,109,19224,479,0,51589,0.001000000000000112
1017000,8207,20038,128960,-142,19196,119232,109,19230,446,0,51590,0.0009999999999998899
1018001,5968,-18634,125437,-9579,-19012,135699,91,19232,373,0,51591,0.0010010000000000296
1019000,3587,-6580,128112,-9265,-7485,126811,131,19219,537,1,51592,0.0009989999999999721
1020000,3620,-4278,130924,659,-5505,135665,93,19236,381,1,51593,0.001000000000000112
1021000,2499,13888,130179,-7655,12679,117126,92,19236,381,1,51594,0.0009999999999998899
1022000,512,-5111,125964,-8794,-5794,133046,134,19227,377,0,51595,0.001000000000000112
1023000,1921,8013,123341,-12937,3589,115233,134,19229,549,0,51596,0.0009999999999998899
1024000,11444,7560,125990,-3668,9078,129768,105,19236,430,0,51597,0.001000000000000112
1025001,9946,1490,123205,13470,-1725,119492,96,19224,393,1,51598,0.0010010000000000296
1026000,6272,1283,126739,-8866,-5467,132459,97,19233,397,1,51599,0.0009989999999999721
1027002,5486,-6595,125109,-8285,-249,125239,95,19233,397,1,51600,0.0010019999999999474
1028002,6379,6119,128555,3551,20,130177,108,19230,389,1,51601,0.0009999999999998899
1029000,6813,-5124,125168,4034,101,123976,108,19226,442,0,51602,0.0009980000000000544
1030000,5823,16059,126502,-11479,14418,115403,111,19231,455,0,51603,0.001000000000000112
1031001,16356,1212,125229,12482,-5789,133117,89,19235,365,0,51604,0.0010010000000000296
1032001,14500,-210,123811,9365,1259,119557,115,19233,471,1,51605,0.0009999999999998899
1033000,13100,-809,124529,2771,-6837,130495,95,19233,471,1,51606,0.0009989999999999721
1034000,9938,-4094,124365,1950,-1448,119747,99,19230,389,1,51607,0.001000000000000112
1035000,13349,4744,128931,5199,24,130332,99,19230,405,0,51608,0.0009999999999998899
1036000,13267,49,126135,4835,2879,125344,133,19230,545,0,51609,0.001000000000000112
1037000,11445,9500,127219,6344,6441,118433,104,19232,426,0,51610,0.0009999999999998899
1038000,14340,-4709,125504,3602,-7278,131726,88,19230,360,0,51611,0.001000000000000112
1039000,16156,-8321,126005,7773,-7260,127799,128,19230,524,1,51612,0.0009999999999998899
1040000,13305,-1668,128227,13071,-338,128927,95,19232,524,1,51613,0.001000000000000112
1041000,12800,3742,128364,-6213,2877,123560,97,19233,389,1,51614,0.0009999999999998899
1042000,11513,-733,127500,6258,-4069,129940,97,19226,397,0,51615,0.001000000000000112
1043000,13244,-3056,127609,6745,-2406,130309,104,19228,426,0,51616,0.0009999999999998899
1044001,13031,7137,129108,-596,7017,121231,92,19236,377,0,51617,0.0010010000000000296
1045000,12138,585,130247,4660,-7035,128523,105,19236,430,1,51618,0.0009989999999999721
1046000,7988,-6359,128816,3205,-6281,133087,85,19218,430,1,51619,0.001000000000000112
1047000,7841,-6110,129555,-2465,-8349,131522,92,19233,348,1,51620,0.0009999999999998899
1048003,4043,-587,129708,-3765,2490,124081,92,19228,377,1,51621,0.0010030000000000872
1049000,14685,10652,130672,2716,7940,126841,122,19227,500,0,51622,0.0009969999999999146
1050000,5585,-159,127699,12796,-150,128088,101,19231,414,0,51623,0.001000000000000112
1051002,8568,2827,130899,-35340,167,125387,83,19231,340,0,51624,0.0010019999999999474
1052000,15476,-5505,130331,7412,-5936,129500,139,19232,340,1,51625,0.0009980000000000544
1053000,-5324,-9459,129556,26881,-15494,138213,105,19232,569,1,51626,0.0009999999999998899
1054000,1993,-7463,128034,-40283,-5702,128005,105,19232,430,1,51627,0.001000000000000112
1055000,-3996,15521,130942,-9076,14540,122340,104,19222,426,0,51628,0.0009999999999998899
1056000,10038,7692,128160,2686,8288,129422,126,19226,516,0,51629,0.001000000000000112
1057002,6759,12432,128919,-10064,12024,116003,98,19235,401,0,51630,0.0010019999999999474
1058000,2177,-15800,126771,1191,-17811,139326,99,19235,401,0,51631,0.0009980000000000544
1059000,7557,-4853,129239,-9853,-4318,126687,119,19225,405,1,51632,0.0009999999999998899
1060000,-40,-3097,129622,2780,-4785,135124,119,19236,487,1,51633,0.001000000000000112
1061000,1880,8053,128753,-20661,7474,120122,91,19237,373,1,51634,0.0009999999999998899
1062002,4947,15799,129461,-12467,14894,120348,114,19226,467,0,51635,0.0010019999999999474
1063000,648,-12758,123408,11794,-15461,138837,109,19230,446,0,51636,0.0009980000000000544
1064000,5772,14321,126855,-15143,13034,112847,89,19230,446,0,51637,0.001000000000000112
1065000,9964,2366,126308,-3766,2450,127897,128,19229,365,1,51638,0.0009999999999998899
1066000,6344,9837,127708,9394,9715,119081,128,19235,524,1,51639,0.001000000000000112
1067000,9698,-16561,125738,-12161,-15904,138868,96,19230,393,1,51640,0.0009999999999998899
1068000,2639,-6507,125961,1700,-9070,125124,99,19226,405,1,51641,0.001000000000000112
1069000,2623,12700,127738,4628,13263,128556,149,19230,610,0,51642,0.0009999999999998899
1070003,9455,2804,123536,-19041,941,117464,99,19230,610,0,51643,0.0010030000000000872
1071002,14040,10544,126087,6975,11286,132681,88,19233,405,0,51644,0.0009989999999999721
1072002,15033,-8846,122533,17742,-10513,121176,88,19228,360,1,51645,0.0009999999999998899
1073000,11262,8036,124961,-553,1445,120442,84,19229,344,1,51646,0.0009980000000000544
1074000,12802,-13176,125237,1518,-14547,140301,100,19228,410,1,51647,0.0009999999999998899
1075000,13554,6867,127204,10488,16494,114204,111,19227,455,0,51648,0.001000000000000112
1076000,11437,10203,129533,886,1618,131149,105,19227,455,0,51649,0.0009999999999998899
1077000,12067,-2009,124711,-823,-1446,119444,89,19228,430,0,51650,0.001000000000000112
1078000,13252,-2001,126390,11525,-10464,133939,89,19234,365,1,51651,0.0009999999999998899
1079000,15802,-11995,127778,870,-9696,128245,114,19227,467,1,51652,0.001000000000000112
1080000,13946,10488,128393,11201,6857,119434,91,19235,373,1,51653,0.0009999999999998899
1081000,11485,-3641,129041,-885,-8114,136659,90,19232,369,1,51654,0.001000000000000112
1082000,12208,1814,126171,3417,3842,120389,130,19232,369,0,51655,0.0009999999999998899
1083000,10863,36,129168,5411,-4553,134612,103,19228,532,0,51656,0.001000000000000112
1084000,13652,-3420,125947,3094,1525,121532,103,19231,422,0,51657,0.0009999999999998899
1085000,12726,3017,128663,3026,571,124691,86,19227,352,1,51658,0.001000000000000112
1086000,9753,-5906,129368,-176,-6845,135270,129,19235,528,1,51659,0.0009999999999998899
1087000,8417,-3102,128632,3064,-4021,126158,96,19230,393,1,51660,0.001000000000000112
1088000,3178,-1821,130552,-7215,-4374,135338,102,19230,418,0,51661,0.0009999999999998899
1089000,9856,1176,129275,1954,10021,114829,112,19220,418,0,51662,0.001000000000000112
1090000,9384,17053,128924,8263,5367,133460,89,19231,459,0,51663,0.0009999999999998899
1091000,9510,-14286,128261,-17310,-11616,128653,89,19236,365,0,51664,0.001000000000000112
1092000,10671,10854,131827,-7148,9226,117810,104,19221,426,1,51665,0.0009999999999998899
1093002,5089,-12610,131894,24856,-17061,144025,97,19229,397,1,51666,0.0010020000000001694
1094002,-6224,-2995,128759,-24729,-2944,123189,100,19229,410,1,51667,0.0009999999999998899
1095000,458,-7106,129687,-22750,-7545,138033,130,19228,410,0,51668,0.0009980000000000544
1096003,4468,24966,130040,3366,29946,111045,108,19225,532,0,51669,0.0010030000000000872
1097000,8936,14207,129836,4011,6546,125682,108,19230,442,0,51670,0.0009969999999999146
1098000,5320,-17027,125451,-14981,-16728,133687,89,19231,365,0,51671,0.0009999999999998899
1099000,3016,-8421,128333,-6346,-9824,130118,153,19232,627,1,51672,0.001000000000000112
1100003,3232,-1984,129871,-1550,-558,131457,96,19232,393,1,51673,0.0010029999999998651
1101000,2911,13563,129871,-9336,12461,119473,97,19232,393,1,51674,0.0009970000000001367
1102000,-1219,-4120,124019,-9914,-5524,136295,124,19227,397,0,51675,0.0009999999999998899
1103000,2900,13114,125559,-15238,12675,114465,124,19230,508,0,51676,0.001000000000000112
1104000,12283,4783,125556,3622,2986,126810,99,19231,405,0,51677,0.0009999999999998899
1105000,10080,1075,125743,9525,1118,124550,99,19228,405,1,51678,0.001000000000000112
1106000,6863,-693,127583,-10525,-581,125568,85,19232,348,1,51679,0.0009999999999998899
1107000,5239,-2864,126943,-4122,-3771,130179,98,19232,348,1,51680,0.001000000000000112
1108000,6359,4095,127578,6701,3457,125241,118,19236,401,0,51681,0.0009999999999998899
1109000,4778,-4013,124986,-3903,-5389,129636,118,19222,483,0,51682,0.001000000000000112
1110000,8739,17988,126620,-11874,17312,112622,105,19231,430,0,51683,0.0009999999999998899
1111000,16105,-1930,124427,10882,-1819,130131,86,19232,352,0,51684,0.001000000000000112
1112000,15694,-1147,123680,9141,-2527,124166,129,19234,528,1,51685,0.0009999999999998899
1113000,13026,-10058,123453,7293,-10746,127578,100,19234,528,1,51686,0.001000000000000112
1114000,10978,2814,125538,3442,1031,124320,103,19232,410,1,51687,0.0009999999999998899
1115001,12020,3140,125285,2434,2431,131455,103,19228,422,0,51688,0.0010010000000000296
1116006,14479,-1478,126242,2233,-1981,122048,123,19228,504,0,51689,0.0010050000000001447
1117006,11626,9208,126528,7996,8759,121052,98,19234,401,0,51690,0.0009999999999998899
1118000,16572,-5144,126228,4846,-3739,132278,91,19228,373,1,51691,0.0009939999999999394
1119000,14466,-7846,125671,6741,-9108,128012,113,19228,373,1,51692,0.001000000000000112
1120000,11629,-3002,127891,13952,-587,128884,95,19234,463,1,51693,0.0009999999999998899
1121000,11492,6982,129015,-5351,7349,121469,95,19233,389,1,51694,0.001000000000000112
1122001,10543,-1091,127703,4195,-8525,133753,107,19228,438,0,51695,0.0010010000000000296
1123000,13122,-1878,127625,7264,2848,125125,104,19233,426,0,51696,0.0009989999999999721
1124003,14866,2657,128477,703,525,123879,86,19228,352,0,51697,0.0010029999999998651
1125000,12467,-4130,129052,6306,-6612,129881,119,19228,487,1,51698,0.0009970000000001367
1126000,7656,-6238,128526,3187,-8525,131406,94,19225,487,1,51699,0.0009999999999998899
1127000,6144,-8402,128826,-6098,-4666,129944,94,19231,385,1,51700,0.001000000000000112
1128001,9853,8182,129949,-5090,6855,124759,94,19232,385,0,51701,0.0010010000000000296
1129000,9984,3342,129517,17077,2999,129643,139,19228,569,0,51702,0.0009989999999999721
1130000,4715,5131,129307,-14543,2872,124144,101,19232,414,0,51703,0.0009999999999998899
1131000,12731,-3698,128643,-20364,-6388,129788,87,19232,356,0,51704,0.001000000000000112
1132000,3983,-7803,129251,23196,-10566,133823,120,19226,356,1,51705,0.0009999999999998899
1133000,2842,-8383,127045,-3978,-7936,131715,104,19231,491,1,51706,0.001000000000000112
1134025,-2420,5511,130091,-28905,9805,123789,104,19230,426,1,51707,0.0010249999999998316
1135000,-273,11295,130810,-2525,4880,127039,106,19224,434,0,51708,0.0009750000000001702
1136000,8976,7617,129598,-2854,9372,124780,107,19234,438,0,51709,0.0009999999999998899
1137000,3996,6161,130179,-2774,2082,123771,93,19234,381,0,51710,0.001000000000000112
1138000,6237,-11647,127780,-5056,-13832,133317,112,19233,381,1,51711,0.0009999999999998899
1139000,836,-6236,129115,-7902,-6886,132057,87,19216,459,1,51712,0.001000000000000112
1140000,4112,-2553,127661,-8058,-564,129015,87,19234,356,1,51713,0.0009999999999998899
1141000,579,18673,129238,-11320,18854,115876,90,19230,369,1,51714,0.001000000000000112
1142000,2019,1471,126499,-9226,-4830,131796,123,19225,504,0,51715,0.0009999999999998899
1143000,4954,-5133,124042,-4205,-3016,126511,107,19225,438,0,51716,0.001000000000000112
1144000,5509,11377,125916,-46,10225,121789,91,19232,438,0,51717,0.0009999999999998899
1145000,11066,3516,125468,-4273,4608,122262,121,19234,373,1,51718,0.001000000000000112
1146000,9090,3873,128075,3169,3432,127371,121,19232,496,1,51719,0.0009999999999998899
1147000,8353,-15903,124188,2132,-15950,140442,101,19228,414,1,51720,0.001000000000000112
1148000,7554,12220,128160,-8981,13877,112846,100,19227,410,0,51721,0.0009999999999998899
1149000,5249,2459,126379,-1475,24,130533,129,19232,528,0,51722,0.001000000000000112
1150000,6258,2500,126056,-1637,2702,125154,94,19232,528,0,51723,0.0009999999999998899
1151000,10768,2657,124523,3495,657,125440,98,19233,385,1,51724,0.001000000000000112
1152002,12750,2359,122648,8351,1661,123045,98,19223,401,1,51725,0.0010019999999999474
1153002,14842,4197,124659,3779,3544,118876,84,19228,344,1,51726,0.0009999999999998899
1154002,17080,-8238,125842,1129,-8512,134864,98,19229,401,1,51727,0.001000000000000112
1155001,14600,6408,128479,10321,5964,121628,118,19224,483,0,51728,0.0009989999999999721
1156002,7875,-5965,126960,5729,-6040,131929,105,19224,483,0,51729,0.0010010000000000296
1157000,10309,636,125490,-3626,-313,122664,86,19236,430,0,51730,0.0009980000000000544
1158000,14217,-4968,124817,8038,-5227,128544,86,19232,352,1,51731,0.0009999999999998899
1159000,15147,4255,125241,5644,2504,124086,136,19237,557,1,51732,0.001000000000000112
1160000,15215,4851,126867,8226,5361,119581,93,19232,381,1,51733,0.0009999999999998899
1161000,12401,-9934,126384,3550,-11403,135243,91,19232,373,1,51734,0.001000000000000112
1162000,13993,-1997,128357,5473,-2714,127531,117,19232,373,0,51735,0.0009999999999998899
1163000,10068,803,129337,4838,-1089,128241,97,19233,479,0,51736,0.001000000000000112
1164000,13863,5386,129512,-1409,5356,123833,97,19232,397,0,51737,0.0009999999999998899
1165000,7961,-6370,128296,5149,-6319,132359,95,19230,389,1,51738,0.001000000000000112
1166002,9257,-5645,129807,-1782,-5725,128291,94,19232,385,1,51739,0.0010019999999999474
1167000,7460,-3873,129195,2096,-4527,131491,95,19229,389,1,51740,0.0009980000000000544
1168000,9270,-3983,126452,-185,6592,120045,109,19229,389,0,51741,0.0009999999999998899
1169001,10656,19822,131444,4055,12297,128806,102,19225,446,0,51742,0.0010010000000000296
1170000,5150,-10022,127003,-1545,-14648,131841,102,19232,418,0,51743,0.0009989999999999721
1171000,10548,2627,130955,-8772,2216,123689,85,19234,348,0,51744,0.001000000000000112
1172007,6583,-14190,128818,18676,-17437,141457,121,19230,496,1,51745,0.0010069999999999801
1173000,-5103,-3836,128817,-16053,-913,121580,97,19230,397,1,51746,0.0009930000000000216
1174000,1424,-3337,127644,-24731,-2891,137499,98,19230,397,1,51747,0.0009999999999998899
1175000,266,14882,128839,3221,24752,113789,138,19229,401,0,51748,0.001000000000000112
1176000,10280,22789,128812,-2719,13064,123450,138,19232,565,0,51749,0.0009999999999998899
1177002,5724,-11630,126889,-8475,-15908,132888,102,19232,418,0,51750,0.0010019999999999474
1178000,7383,-12558,125931,-6875,-11822,130693,90,19225,369,1,51751,0.0009980000000000544
1179000,2458,-3516,130300,-2005,-415,130637,147,19233,602,1,51752,0.001000000000000112
1180001,1627,12395,129956,-7531,7092,121170,97,19233,397,1,51753,0.0010009999999998076
1181000,1312,-103,127563,-12793,-4512,134641,105,19230,397,1,51754,0.0009990000000001942
1182000,-1702,9944,126328,-14315,12739,117732,104,19224,430,0,51755,0.0009999999999998899
1183001,11247,9745,127954,-1587,4708,124294,104,19232,426,0,51756,0.0010010000000000296
1184001,8212,1117,124098,9412,1385,125842,91,19231,373,0,51757,0.0009999999999998899
1185000,10131,-2543,127083,-9603,-5296,127651,110,19229,451,1,51758,0.0009990000000001942
1186000,7489,-5688,125215,-2085,-2487,128093,92,19229,377,1,51759,0.0009999999999998899
1187000,6230,8882,128646,1165,6118,124829,100,19231,377,1,51760,0.001000000000000112
1188000,6143,-5650,124116,-2049,-6370,130959,135,19229,410,0,51761,0.0009999999999998899
1189000,4449,10558,126173,-12226,11699,117523,135,19227,553,0,51762,0.001000000000000112
1190001,13826,4106,125632,5168,1661,128354,104,19232,426,0,51763,0.0010009999999998076
1191000,14772,-852,123285,12493,2177,122729,84,19233,344,1,51764,0.0009989999999999721
1192001,13779,-149,122631,2712,-1229,128113,100,19233,410,1,51765,0.0010010000000000296
1193002,8866,-5409,124876,5397,-3578,124096,102,19233,410,1,51766,0.0010010000000000296
1194001,12711,8921,127348,-101,8488,123235,105,19232,418,1,51767,0.0009989999999999721
1195000,12796,-3304,128112,6682,-3260,131143,105,19224,430,0,51768,0.0009989999999999721
1196000,12390,6387,127199,3551,6949,119182,110,19232,451,0,51769,0.001000000000000112
1197000,13645,-260,127284,3302,-2139,128993,93,19234,381,0,51770,0.0009999999999998899
1198001,18014,-8916,124960,9936,-8626,127931,99,19219,405,1,51771,0.0010010000000000296
1199000,11837,-3551,127045,11184,-4087,128097,82,19219,405,1,51772,0.0009989999999999721
1200000,11948,3986,127995,620,3274,124648,91,19237,336,1,51773,0.001000000000000112
1201000,12654,1012,128318,-792,121,125462,91,19231,373,0,51774,0.0009999999999998899
1202001,12377,-4930,127285,12681,-6039,133738,113,19224,463,0,51775,0.0010010000000000296
1203000,12370,1217,129675,-2780,1025,122617,105,19236,430,0,51776,0.0009989999999999721
1204002,12634,29,128003,3003,-788,128226,86,19228,352,0,51777,0.0010020000000001694
1205000,11021,-8589,125803,8445,-10338,130976,142,19228,352,1,51778,0.0009979999999998324
1206000,10035,-1309,130919,-1078,-754,128795,95,19233,582,1,51779,0.001000000000000112
1207000,4540,-6483,127925,-4351,-8504,131108,95,19230,389,1,51780,0.0009999999999998899
1208000,11625,8967,130630,-3644,8379,122560,96,19228,393,0,51781,0.001000000000000112
1209000,7418,13,128145,13597,-1128,128962,128,19230,524,0,51782,0.0009999999999998899
1210000,2301,5731,128352,-8770,4552,123720,93,19232,381,0,51783,0.001000000000000112
1211000,15740,-6012,130655,-27088,-5797,130315,93,19232,381,1,51784,0.0009999999999998899
1212000,2888,-3303,130973,28825,-4685,134595,81,19226,381,1,51785,0.001000000000000112
1213000,1412,-13467,128739,-5671,-14570,128749,81,19234,332,1,51786,0.0009999999999998899
1214000,-1478,3908,133277,-31344,8126,127777,100,19231,410,1,51787,0.001000000000000112
1215001,1180,7498,128275,4222,8614,127059,115,19225,471,0,51788,0.0010010000000000296
1216000,9077,19166,130921,-8786,17591,115092,108,19232,442,0,51789,0.0009989999999999721
1217000,6601,-3777,126604,-8230,-14656,137523,88,19232,442,0,51790,0.0009999999999998899
1218000,6270,-16918,125545,362,-12451,129991,129,19230,360,1,51791,0.001000000000000112
1219000,118,-1472,128382,-13189,-1613,131114,129,19224,528,1,51792,0.0009999999999998899
1220000,2088,3121,129536,-8794,8674,121250,97,19234,397,1,51793,0.001000000000000112
1221000,98,19672,129357,-9573,11571,124466,94,19226,385,0,51794,0.0009999999999998899
1222000,206,-8244,125377,-9702,-10552,134004,135,19229,553,0,51795,0.001000000000000112
1223000,4716,9301,124843,-907,14169,113443,101,19229,414,0,51796,0.0009999999999998899
1224000,8408,8170,127477,4852,376,130436,95,19232,414,0,51797,0.001000000000000112
1225000,10945,1921,126028,-7433,341,118067,93,19225,389,1,51798,0.0009999999999998899
1226000,13206,-2987,129858,4164,-11391,137032,93,19230,381,1,51799,0.001000000000000112
1227000,2731,-6275,125684,5302,-1406,126624,103,19226,422,1,51800,0.0009999999999998899
1228000,2080,10418,128453,-19661,6825,120220,112,19216,459,0,51801,0.001000000000000112
1229000,3409,-2117,124958,-3368,-751,131370,114,19216,467,0,51802,0.0009999999999998899
1230003,11660,13362,125340,10025,13569,117223,88,19231,467,0,51803,0.0010030000000000872
1231000,15999,530,123554,6197,-2039,127924,111,19233,360,1,51804,0.0009969999999999146
1232000,14005,-654,123170,2427,-1438,118882,111,19233,455,1,51805,0.001000000000000112
1233000,16616,-8629,124463,13539,-10165,133009,98,19228,401,1,51806,0.0009999999999998899
1234000,12182,3750,127581,-1582,8040,122981,101,19228,414,1,51807,0.001000000000000112
1235000,11310,6811,129260,1178,4043,126990,134,19228,549,0,51808,0.0009999999999998899
1236000,5323,-4359,126712,4744,-2971,130061,103,19228,549,0,51809,0.001000000000000112
1237000,11856,5616,126536,-812,4949,123080,85,19231,422,0,51810,0.0009999999999998899
1238000,17387,-7153,124692,10598,-6920,129802,85,19228,348,1,51811,0.001000000000000112
1239001,16763,5892,126267,10709,6353,118287,133,19235,545,1,51812,0.0010010000000000296
1240000,17373,-1629,129220,6527,-2311,131285,96,19232,393,1,51813,0.0009989999999999721
1241001,13759,-1672,127793,3020,-2896,125690,99,19226,405,0,51814,0.0010010000000000296
1242000,8542,-4989,129164,9743,-6894,133673,106,19226,405,0,51815,0.0009989999999999721
1243001,8202,-3619,129231,-6429,-2994,128218,91,19229,434,0,51816,0.0010010000000000296
1244002,12510,4445,129240,2700,3717,123949,91,19234,373,0,51817,0.0010010000000000296
1245002,10241,634,128833,7993,139,128420,105,19218,430,1,51818,0.0009999999999998899
1246002,11012,-2640,128548,-3931,-2374,124858,85,19233,348,1,51819,0.001000000000000112
1247000,8567,-7713,128546,-360,-9071,135216,96,19233,393,1,51820,0.0009979999999998324
1248000,11514,-1194,127854,7493,-1116,121727,118,19233,393,0,51821,0.001000000000000112
1249000,10003,18393,131080,1394,17303,126191,102,19226,483,0,51822,0.0009999999999998899
1250000,4102,-14590,128330,-10348,-15230,133038,102,19232,418,0,51823,0.001000000000000112
1251000,10270,3872,131565,-12424,2775,123844,85,19228,348,1,51824,0.0009999999999998899
1252002,5101,-12188,129553,15507,-13205,137830,141,19232,577,1,51825,0.0010019999999999474
1253000,-5407,2260,130385,-7766,667,122837,102,19228,418,1,51826,0.0009980000000000544
1254000,3375,-4654,128832,-26596,-5520,136285,102,19228,418,1,51827,0.001000000000000112
1255000,2906,21020,130451,39,18268,117573,125,19226,418,0,51828,0.0009999999999998899
1256000,11381,10757,130583,-754,14415,133221,125,19233,512,0,51829,0.001000000000000112
1257000,3078,-13571,125670,-2685,-15145,127982,99,19234,405,0,51830,0.0009999999999998899
1258000,6050,-6789,128230,-11200,-7329,132750,100,19221,410,1,51831,0.001000000000000112
1259000,-755,-2891,128202,-7774,-6239,124861,123,19233,504,1,51832,0.0009999999999998899
1260000,1310,10333,131361,-3270,11693,128578,93,19233,504,1,51833,0.001000000000000112
1261000,1,-3045,125921,-13217,-2600,127650,107,19230,381,0,51834,0.0009999999999998899
1262000,-492,13013,127395,-11548,14249,118405,107,19226,438,0,51835,0.001000000000000112
1263000,11544,2348,125562,-4896,-3911,129645,108,19232,442,0,51836,0.0009999999999998899
1264000,7687,2593,125164,9385,6557,121503,90,19229,369,0,51837,0.001000000000000112
1265000,8944,671,126417,-13524,-4167,128709,131,19235,537,1,51838,0.0009999999999998899
1266002,6112,-880,125702,2474,2051,122296,97,19235,537,1,51839,0.0010019999999999474
1267001,5779,3896,127581,-2613,-3204,133312,96,19235,397,1,51840,0.0009990000000001942
1268000,6644,-6979,124563,-2547,-1066,123823,96,19233,393,0,51841,0.0009989999999999721
1269000,5117,17354,127716,-5783,15422,117480,144,19232,590,0,51842,0.0009999999999998899
1270000,15083,641,126261,5885,-5612,129766,101,19235,414,0,51843,0.001000000000000112
1271000,15004,1468,123834,9605,-569,121813,90,19226,369,1,51844,0.0009999999999998899
1272000,12223,-4120,124908,2710,-6075,130099,91,19226,373,1,51845,0.001000000000000112
1273001,10144,3975,125467,5604,6032,116680,102,19233,373,1,51846,0.0010010000000000296
1274000,11489,4286,127608,1138,-765,131994,108,19232,418,1,51847,0.0009989999999999721
1275000,13489,-6113,126812,5173,-2492,127749,108,19223,442,0,51848,0.0009999999999998899
1276000,11357,8606,127655,2627,7177,118854,103,19231,422,0,51849,0.001000000000000112
1277000,15942,-1946,125867,3983,-4483,130523,89,19232,365,0,51850,0.0009999999999998899
1278002,16185,-5377,124670,11456,-5324,125570,113,19232,463,1,51851,0.0010019999999999474
1279000,13312,-4639,126470,10296,-3986,130820,92,19228,463,1,51852,0.0009980000000000544
1280000,12448,5891,128146,-148,7012,119550,92,19233,377,1,51853,0.001000000000000112
1281000,13916,-153,128082,5200,-1756,131709,92,19232,377,0,51854,0.0009999999999998899
1282000,11027,-2173,127321,9158,-1235,131450,126,19232,516,0,51855,0.001000000000000112
1283000,11461,6675,130668,-3090,7730,121096,100,19236,410,0,51856,0.0009999999999998899
1284000,13701,-5111,128149,5853,-6726,130817,87,19229,356,0,51857,0.001000000000000112
1285000,10167,-2892,129637,6702,-2721,126156,135,19229,356,1,51858,0.0009999999999998899
1286000,10024,-9833,128747,-2066,-11099,133188,97,19232,553,1,51859,0.001000000000000112
1287000,8642,3774,130591,-5461,4531,124143,97,19230,397,1,51860,0.0009999999999998899
1288000,10136,22,128941,5584,-1812,130153,99,19226,405,0,51861,0.001000000000000112
1289000,5166,4883,129266,5271,4938,127846,123,19235,504,0,51862,0.0009999999999998899
1290000,6304,1794,131038,-18307,411,125371,89,19237,365,0,51863,0.001000000000000112
1291000,13184,-6934,131133,-4102,-7668,131981,102,19237,365,1,51864,0.0009999999999998899
1292000,5166,-6073,130047,13265,-7779,130312,96,19223,418,1,51865,0.001000000000000112
1293000,-2763,-5724,130691,-10771,-5814,129965,96,19227,393,1,51866,0.0009999999999998899
1294000,-2138,7193,128399,-25536,5336,127295,100,19230,410,1,51867,0.001000000000000112
1295000,5329,5347,127710,-2287,4496,128340,128,19227,524,0,51868,0.0009999999999998899
1296000,7919,12838,129977,-1057,12974,120948,109,19235,446,0,51869,0.001000000000000112
1297001,7030,-4961,127247,-4678,-6052,129560,88,19235,446,0,51870,0.0010009999999998076
1298000,2843,-10584,127578,-6506,-12102,132338,148,19228,360,1,51871,0.0009990000000001942
1299000,-449,-5214,128746,-9847,-7144,132252,148,19230,606,1,51872,0.0009999999999998899
1300000,2731,14353,130778,-6015,12773,121036,91,19234,373,1,51873,0.001000000000000112
1301001,7,8137,128759,-11409,7908,125100,93,19228,381,0,51874,0.0010009999999998076
1302002,2664,-3829,125649,-7829,-5627,130792,124,19234,508,0,51875,0.0010010000000000296
1303006,3510,8003,127927,758,8234,123688,97,19234,508,0,51876,0.0010040000000000049
1304000,11689,2279,129067,-7632,3611,121254,97,19233,397,0,51877,0.0009940000000001614
1305000,8896,5431,127395,1038,6975,130629,97,19227,397,1,51878,0.0009999999999998899
1306000,6271,-13756,124672,7625,-12665,131981,78,19231,319,1,51879,0.001000000000000112
1307000,4498,5837,124869,-12483,796,118459,96,19231,393,1,51880,0.0009999999999998899
1308000,3348,5169,126368,-4048,1095,128571,117,19227,479,0,51881,0.001000000000000112
1309000,9263,4066,124361,2109,7803,121931,109,19227,479,0,51882,0.0009999999999998899
1310001,12495,4732,126591,-2631,1822,125304,84,19231,446,0,51883,0.0010010000000000296
1311002,15421,729,123130,5922,-515,122775,84,19231,344,1,51884,0.0010010000000000296
1312001,12750,-1262,123823,11043,-4911,125676,130,19233,532,1,51885,0.0009989999999999721
1313000,10512,-4031,125625,-1662,-1043,126592,97,19231,397,1,51886,0.0009989999999999721
1314000,10462,8077,128868,-2209,5066,125284,100,19228,410,1,51887,0.0009999999999998899
1315000,9512,904,127273,11864,-4565,129020,125,19228,512,0,51888,0.001000000000000112
1316000,9751,5584,128503,2717,2124,121805,100,19233,512,0,51889,0.0009999999999998899
1317000,15349,-4623,125254,2490,-9717,130402,94,19235,410,0,51890,0.001000000000000112
1318001,18948,-4044,126438,13315,879,122536,94,19223,385,1,51891,0.0010010000000000296
1319000,16872,5725,126812,12198,1612,125334,112,19233,459,1,51892,0.0009989999999999721
1320000,15073,-1722,127623,-4304,-1000,126130,92,19231,377,1,51893,0.0009999999999998899
1321000,11201,-3153,128609,9653,-6455,131378,103,19231,422,0,51894,0.001000000000000112
1322000,7430,-5518,128640,1626,-5786,132654,104,19228,422,0,51895,0.0009999999999998899
1323000,11853,4164,128948,-2539,3519,121818,91,19230,426,0,51896,0.001000000000000112
1324000,11625,1014,128532,10862,521,127135,91,19233,373,0,51897,0.0009999999999998899
1325000,14241,-655,128030,-3287,-1026,126283,118,19222,483,1,51898,0.001000000000000112
1326000,6532,-1813,129691,-1700,-3267,129369,93,19231,381,1,51899,0.0009999999999998899
1327000,8977,-4345,127716,-112,-7592,134762,93,19231,381,1,51900,0.001000000000000112
1328000,6024,6962,132420,3612,11812,116695,135,19234,381,0,51901,0.0009999999999998899
1329000,7724,6152,132072,-3862,-67,136507,100,19233,553,0,51902,0.001000000000000112
1330000,6062,-11260,129179,-9691,-7651,127720,100,19234,410,0,51903,0.0009999999999998899
1331000,15129,7245,133228,-4119,3918,121931,87,19228,356,1,51904,0.001000000000000112
1332000,3534,-9837,128765,17556,-11270,136489,127,19235,520,1,51905,0.0009999999999998899
1333000,-3987,-5934,130942,-21196,-7362,126898,102,19230,418,1,51906,0.001000000000000112
1334000,1958,-3000,130821,-14498,-1487,134035,108,19230,418,1,51907,0.0009999999999998899
1335000,3270,26372,130935,-1162,26028,114897,112,19220,442,0,51908,0.001000000000000112
1336000,9707,2307,129295,-2559,-991,129112,112,19233,459,0,51909,0.0009999999999998899
1337000,1231,-11191,125805,-9084,-11438,130517,95,19232,389,0,51910,0.001000000000000112
1338001,9223,-7325,127105,-8065,-7591,131720,112,19216,459,1,51911,0.0010010000000000296
1339000,-1614,6133,130941,-2097,5345,124313,86,19239,352,1,51912,0.0009989999999999721
1340000,3758,2959,128805,-6452,1781,129123,92,19239,352,1,51913,0.0009999999999998899
1341000,-891,-1921,126967,-13408,-3301,129758,125,19232,377,0,51914,0.001000000000000112
1342000,-400,16612,129425,-10280,15614,117077,125,19226,512,0,51915,0.0009999999999998899
1343002,11260,-4596,125226,-878,-4782,131144,107,19235,438,0,51916,0.0010020000000001694
1344000,5509,9220,126937,7711,7831,118323,90,19231,369,1,51917,0.0009979999999998324
1345000,9854,-5385,125770,-13634,-5130,131366,125,19238,512,1,51918,0.001000000000000112
1346000,4714,5877,126556,2341,3371,120653,97,19238,512,1,51919,0.0009999999999998899
1347000,7779,-4965,127067,1112,-4137,133995,102,19232,397,1,51920,0.001000000000000112
1348000,5673,-183,124067,-3678,-3062,126832,102,19228,418,0,51921,0.0009999999999998899
1349000,6809,11709,126709,-6638,12840,130167,132,19229,541,0,51922,0.001000000000000112
1350002,16783,-3314,125020,4866,-2667,122272,94,19236,385,0,51923,0.0010019999999999474
1351000,13945,5666,123171,11933,4513,126467,96,19227,393,1,51924,0.0009980000000000544
1352000,12069,-7648,123962,1415,-8808,125984,82,19227,393,1,51925,0.0009999999999998899
1353003,9828,8920,125515,5442,6175,119658,101,19232,336,1,51926,0.0010030000000000872
1354000,13023,-6239,127564,1538,-4437,138794,101,19231,414,0,51927,0.0009969999999999146
1355000,12144,5301,127084,6289,10083,114449,121,19228,496,0,51928,0.001000000000000112
1356000,9428,6778,126956,4173,-1053,129268,106,19231,434,0,51929,0.0009999999999998899
1357000,16888,-4849,125729,888,-3239,124718,85,19231,348,0,51930,0.001000000000000112
1358001,15936,-5242,125688,11462,-7453,129698,131,19231,348,1,51931,0.0010010000000000296
1359000,14417,-2095,128086,6325,675,125931,93,19230,537,1,51932,0.0009989999999999721
1360000,11953,5991,128509,-2670,841,119441,93,19239,381,1,51933,0.0009999999999998899
1361000,14183,-8221,128451,9324,-11217,138828,91,19233,373,0,51934,0.001000000000000112
1362000,9927,3553,128219,4544,7091,119812,121,19228,496,0,51935,0.0009999999999998899
1363000,10823,4520,130411,-3631,-1444,129356,98,19234,401,0,51936,0.001000000000000112
1364000,13601,-4245,127289,10127,-4186,126047,90,19234,369,0,51937,0.0009999999999998899
1365000,9060,-2462,129300,1725,-5445,130190,113,19221,369,1,51938,0.001000000000000112
1366000,9898,-8456,128489,-6361,-7569,131134,94,19234,463,1,51939,0.0009999999999998899
1367000,6695,4462,130444,-1424,3580,123775,94,19230,385,1,51940,0.001000000000000112
1368000,10328,-3292,128070,9993,-2690,132821,108,19222,442,0,51941,0.0009999999999998899
1369000,5902,9671,130485,-2397,9746,123302,104,19235,426,0,51942,0.001000000000000112
1370000,8486,-3002,131426,-23939,-4432,129412,86,19235,352,0,51943,0.0009999999999998899
1371000,16051,2086,132251,13066,-2819,127263,120,19234,352,1,51944,0.001000000000000112
1372000,-134,-10616,128212,11742,-14491,140121,91,19228,491,1,51945,0.0009999999999998899
1373001,-451,-3790,131569,-26956,-1696,123354,91,19232,373,1,51946,0.0010010000000000296
1374002,-509,7297,128072,-7907,5439,130071,97,19225,397,0,51947,0.0010010000000000296
1375000,5540,11500,130173,-1858,13761,124144,141,19229,577,0,51948,0.0009980000000000544
1376000,6374,13363,128095,-12594,9090,117625,105,19229,430,0,51949,0.0009999999999998899
1377000,6833,-12761,128018,3977,-15606,138686,91,19235,430,0,51950,0.001000000000000112
1378000,3390,-9292,127772,-7844,-8761,128747,151,19225,373,1,51951,0.0009999999999998899
1379000,1333,-3499,130623,-10574,-3754,130892,151,19232,618,1,51952,0.001000000000000112
