t_us,ax,ay,az,ax1,ay1,az1,shunt_raw,bus_raw,curr_raw,pg_rpm,seq,dt
0,8106,-828,127142,-952,-1000,127351,69,19234,262,1,65024,
999,6419,-787,127173,-1621,-1958,127492,69,19236,283,1,65025,0.0009989999999999999
2000,7705,-170,127538,-1326,-1577,127419,79,19236,324,0,65026,0.0010010000000000002
2999,7794,4769,128709,-983,3078,126083,89,19238,365,0,65027,0.0009989999999999999
3999,10666,1246,128299,-1227,3020,125411,67,19234,274,0,65028,0.001
4999,7587,-3677,127328,-1490,-4961,128795,73,19234,274,0,65029,0.001
5999,6973,-872,127935,1940,-2539,126733,72,19233,299,0,65030,0.001
7001,6766,1319,128234,-3899,-253,127306,72,19241,295,0,65031,0.0010019999999999994
7999,6974,3878,128425,-3417,2615,125750,70,19236,287,0,65032,0.0009979999999999998
8999,7716,558,127773,689,521,128022,71,19233,291,0,65033,0.0010000000000000009
10001,8493,-3608,126125,-2364,-5127,127438,74,19236,303,0,65034,0.0010019999999999994
10999,7956,2531,127921,1601,3765,123677,82,19236,336,0,65035,0.0009980000000000006
12000,8868,1176,127591,-2523,-1739,130260,92,19230,336,1,65036,0.0010010000000000002
12999,6025,2473,129172,-4046,3263,125345,55,19234,377,1,65037,0.0009989999999999999
13999,9328,1073,127000,6418,-1704,127593,55,19235,225,1,65038,0.0009999999999999992
14999,10119,-1402,127158,755,-2751,128746,70,19233,287,1,65039,0.0010000000000000009
15999,5423,-7123,127356,-12125,-7533,127762,74,19232,303,1,65040,0.0009999999999999992
16999,11281,3658,129256,9340,4993,126634,70,19232,287,1,65041,0.0010000000000000009
17999,5657,7188,127960,-1347,5415,125191,71,19238,287,1,65042,0.0009999999999999974
18999,8180,2255,128292,-11585,378,123425,71,19240,291,1,65043,0.0010000000000000009
19999,5774,-3571,125684,7318,-5169,131266,71,19230,291,1,65044,0.0010000000000000009
20999,7542,-239,127707,1931,-266,127229,79,19226,324,1,65045,0.0010000000000000009
21999,9097,1857,127225,-10460,798,123296,87,19230,356,0,65046,0.0009999999999999974
22999,8543,2172,129004,4396,1298,127904,69,19230,283,0,65047,0.0010000000000000009
23999,11063,-819,126388,3290,-2789,128994,72,19237,283,0,65048,0.0010000000000000009
24999,8169,-1352,127791,-8926,-1710,126220,73,19238,295,0,65049,0.0010000000000000009
25999,6381,92,126765,2364,-422,126335,73,19230,299,0,65050,0.0009999999999999974
26999,7617,3723,127535,4764,2941,125366,73,19237,299,0,65051,0.0010000000000000009
27999,6606,2556,127347,-9869,1301,125826,71,19236,291,0,65052,0.0010000000000000009
28999,12135,-1218,127074,4352,-1724,126706,72,19236,295,0,65053,0.0009999999999999974
29999,8254,3247,127246,6004,1881,125189,78,19236,295,0,65054,0.0010000000000000009
30999,9259,-3683,127991,-7202,-4279,129290,85,19235,319,0,65055,0.0010000000000000009
31999,6030,1737,128228,-75,853,126528,85,19231,348,1,65056,0.0010000000000000009
32999,8153,2489,128635,1124,908,128281,89,19240,365,1,65057,0.0010000000000000009
33999,11430,1168,127519,-2672,666,124994,70,19233,287,1,65058,0.0010000000000000009
34999,7355,-459,127326,1398,-1057,127065,75,19235,307,1,65059,0.000999999999999994
35999,8451,-1143,126500,1346,-2408,128457,75,19235,307,1,65060,0.0010000000000000009
36999,7803,7505,128776,-4679,6763,122634,72,19234,307,1,65061,0.0010000000000000009
37999,10803,1332,128076,79,764,128965,72,19234,295,1,65062,0.0010000000000000009
38999,9196,-929,127398,2814,-1661,126142,74,19230,303,1,65063,0.0010000000000000009
39999,7493,-3799,128188,-2849,-4389,129075,79,19232,324,1,65064,0.0010000000000000009
41000,8396,-989,127614,-851,-2223,127803,86,19229,352,1,65065,0.001000999999999995
41999,7378,2367,128603,309,1046,126545,95,19229,352,0,65066,0.0009989999999999999
42999,7513,4648,128985,-3402,4891,126183,67,19237,389,0,65067,0.0010000000000000009
43999,10463,999,127101,607,1009,125062,67,19237,274,0,65068,0.0010000000000000009
44999,8803,-2730,127591,2644,-2759,128777,74,19233,303,0,65069,0.0010000000000000009
45999,8251,-1332,126780,397,-2647,127285,78,19235,319,0,65070,0.0010000000000000009
46999,8342,3076,128714,-2842,1658,125595,77,19234,315,0,65071,0.0010000000000000009
47999,9140,2619,128494,-1032,2632,127341,76,19234,315,0,65072,0.0010000000000000009
48999,9192,-1431,127025,229,-2150,127475,75,19235,311,0,65073,0.0010000000000000009
50002,7710,-27,128005,391,-1146,127261,75,19237,307,0,65074,0.001002999999999997
51001,8168,-719,127246,-1190,-1490,127377,84,19234,344,0,65075,0.0009989999999999999
52001,8564,2140,128181,-1379,701,126902,90,19227,369,0,65076,0.0010000000000000009
52999,8592,1884,128126,-820,1558,126548,99,19237,405,1,65077,0.0009979999999999989
53999,8616,2020,126581,2341,1070,125389,66,19237,270,1,65078,0.0010000000000000009
55000,10340,-1106,127291,272,-844,128710,70,19236,270,1,65079,0.0010010000000000019
55999,8861,-3162,126855,-721,-4165,127531,72,19235,287,1,65080,0.0009989999999999999
56999,8927,2483,128622,1285,2546,126890,72,19230,295,1,65081,0.000999999999999994
57999,8127,2854,128909,-1888,1641,126519,68,19233,279,1,65082,0.0010000000000000009
58999,10234,343,127003,126,-1324,126807,69,19236,283,1,65083,0.0010000000000000009
60000,9221,-800,127158,1561,-1632,127576,74,19236,303,1,65084,0.0010010000000000019
60999,8918,2495,127321,625,1814,124966,85,19234,303,1,65085,0.0009989999999999999
61999,8457,729,126891,-1653,-496,127679,73,19231,348,0,65086,0.0010000000000000009
62999,7923,2093,127835,501,1962,127166,73,19234,299,0,65087,0.0010000000000000009
63999,10864,17,127394,-522,-1686,126603,69,19232,283,0,65088,0.0010000000000000009
64999,7120,-3835,127591,333,-4183,129304,76,19231,311,0,65089,0.0010000000000000009
65999,7126,2239,127807,-2161,1497,124849,73,19231,299,0,65090,0.0010000000000000009
66999,8426,-400,127411,-540,-1237,128681,74,19234,299,0,65091,0.0010000000000000009
67999,9778,5489,127912,749,5213,123380,73,19234,303,0,65092,0.000999999999999987
68999,9431,-516,127008,-235,-2261,127959,73,19236,299,0,65093,0.0010000000000000009
69999,8120,-1924,127180,-1147,-2141,127095,78,19232,319,0,65094,0.0010000000000000009
70999,7863,1271,128529,-1562,188,127789,82,19230,336,0,65095,0.0010000000000000009
71999,7559,-274,127986,-477,-461,128264,87,19243,356,1,65096,0.0010000000000000009
72999,8700,3768,128000,-1000,2025,124388,64,19243,356,1,65097,0.0010000000000000009
73999,10818,-3159,126906,333,-3843,129240,70,19240,262,1,65098,0.0010000000000000009
74999,7451,-169,126917,-29,-1308,125417,70,19227,287,1,65099,0.0010000000000000009
76001,7208,-209,127706,-2636,-948,128775,75,19238,307,1,65100,0.0010020000000000029
76999,7852,4926,128439,-2312,4443,125318,72,19238,295,1,65101,0.0009979999999999989
77999,9400,3180,127651,-629,2183,125509,68,19239,279,1,65102,0.0010000000000000009
78999,8925,-1233,127039,1335,-1961,127904,71,19239,279,1,65103,0.0010000000000000009
80000,9067,-3664,127169,274,-4471,127720,77,19231,291,1,65104,0.0010010000000000019
80999,8719,-2411,127521,-1125,-3235,128066,77,19233,315,1,65105,0.0009989999999999999
81999,6857,6945,129010,-3022,5986,124075,87,19234,356,0,65106,0.0010000000000000009
83000,6057,730,128004,-2407,526,127721,62,19238,254,0,65107,0.001000999999999988
83999,8889,1070,127575,387,277,126436,66,19231,270,0,65108,0.0009989999999999999
85000,7493,-3018,127010,1308,-3473,128525,69,19231,270,0,65109,0.0010010000000000019
85999,9026,59,126815,-24,-1520,125683,67,19232,283,0,65110,0.0009989999999999999
86999,9732,3161,128592,440,2574,126020,67,19229,274,0,65111,0.0010000000000000009
87999,10069,1053,127844,-735,246,127566,65,19236,266,0,65112,0.0010000000000000009
89002,8321,2767,127898,-1905,2105,125001,68,19235,279,0,65113,0.0010030000000000039
89999,6452,-2233,127564,-289,-2956,129745,71,19231,291,0,65114,0.0009969999999999979
90999,7239,57,127730,-1815,-1346,126290,83,19231,291,1,65115,0.0010000000000000009
91999,7190,1277,127983,-772,-476,127303,59,19239,340,1,65116,0.0010000000000000009
92999,12164,2598,127720,2341,1818,125674,59,19235,242,1,65117,0.0010000000000000009
93999,7203,-262,127561,-294,-729,126267,69,19233,283,1,65118,0.0010000000000000009
94999,6352,-1572,127450,-3098,-2337,128045,69,19233,283,1,65119,0.0010000000000000009
95999,6906,2912,128437,-3291,1830,126620,67,19236,274,1,65120,0.0010000000000000009
96999,8393,1045,127967,-815,1687,126717,66,19236,274,1,65121,0.0010000000000000009
98000,8149,-470,127653,-123,-740,126874,69,19235,270,1,65122,0.001000999999999988
98999,8121,-1588,127707,-986,-2449,127786,69,19236,283,1,65123,0.0009989999999999999
99999,8649,-821,127623,-997,-2039,127790,75,19232,307,1,65124,0.0010000000000000009
101000,6971,3595,128662,-1380,1743,126160,83,19233,340,0,65125,0.0010010000000000019
101999,6865,3706,128514,-3035,3877,126048,57,19236,233,0,65126,0.0009989999999999999
102999,9448,-257,127151,748,-704,127292,67,19236,274,0,65127,0.0010000000000000009
103999,7287,-1833,127346,-164,-3524,127607,72,19232,274,0,65128,0.0010000000000000009
104999,8074,-1358,126982,-416,-1363,127405,71,19236,295,0,65129,0.0010000000000000009
105999,7082,3017,128448,-2707,2879,125813,71,19236,291,0,65130,0.0010000000000000009
106999,8980,3025,128028,-2335,1552,126477,70,19236,287,0,65131,0.0010000000000000009
107999,8264,938,127306,268,-291,126760,67,19234,274,0,65132,0.0010000000000000009
108999,7858,-2367,127113,-1133,-3614,127666,71,19234,291,0,65133,0.0010000000000000009
109999,7643,-517,127222,-2055,-699,126218,81,19239,291,0,65134,0.0010000000000000009
110999,7385,3686,128372,-1862,2950,125768,77,19236,332,1,65135,0.0010000000000000009
112000,6606,1073,127905,-199,554,127102,77,19238,315,1,65136,0.001000999999999988
112999,9478,-25,127187,-1118,-1215,126672,61,19237,250,1,65137,0.0009989999999999999
113999,7396,-1208,127291,35,-1865,127283,68,19233,279,1,65138,0.0010000000000000009
114999,7931,-176,127353,-375,-751,126720,67,19233,274,1,65139,0.0010000000000000009
116000,8956,2395,128475,-1322,1474,126220,65,19238,274,1,65140,0.0010010000000000019
116999,10172,1841,127701,-478,862,126507,64,19234,266,1,65141,0.0009989999999999999
117999,8830,150,127103,819,-1013,126653,64,19235,262,1,65142,0.0010000000000000009
119000,7584,-165,127513,-340,-1192,127322,66,19234,270,1,65143,0.0010010000000000019
119999,7824,-73,127153,-1833,-873,126870,80,19232,328,0,65144,0.0009989999999999999
120999,7165,2266,128427,-2300,1472,126547,69,19233,283,0,65145,0.0010000000000000009
122000,11030,1399,129046,985,1485,126856,67,19233,283,0,65146,0.0010010000000000019
122999,10097,-831,127273,-609,-1736,127157,72,19236,274,0,65147,0.0009989999999999999
123999,7132,-1776,127745,39,-2723,127904,72,19231,295,0,65148,0.0010000000000000009
124999,6933,175,127751,-2311,-830,127679,73,19236,299,0,65149,0.0010000000000000009
125999,7017,3902,128454,-2379,3198,126057,70,19232,287,0,65150,0.0010000000000000009
126999,9101,2678,127774,127,1886,125903,71,19233,291,0,65151,0.0010000000000000009
128000,8346,-610,127618,-1722,-1329,126743,76,19233,291,0,65152,0.0010010000000000019
128999,7526,-2502,127919,-717,-3534,128844,83,19235,311,0,65153,0.0009989999999999999
129999,7504,-3494,126698,-2866,-4033,128808,83,19228,340,0,65154,0.0010000000000000009
130999,7868,6214,128882,3108,4665,121951,90,19236,369,1,65155,0.0010000000000000009
131999,8424,7069,127293,-3310,6890,125861,58,19235,238,1,65156,0.0010000000000000009
132999,14647,-5037,126467,1738,-5953,129098,73,19234,299,1,65157,0.0010000000000000009
133999,8075,-112,127205,5202,-1020,127225,74,19234,299,1,65158,0.0010000000000000009
134999,7753,-171,128844,-7084,-1569,126950,73,19235,303,1,65159,0.0009999999999999731
135999,7295,-1645,127984,-1397,-1866,128697,73,19232,299,1,65160,0.0010000000000000009
136999,7949,-96,127674,5128,-1945,130565,69,19240,283,1,65161,0.0010000000000000009
137999,8223,8798,126054,-5303,7357,119250,73,19233,299,1,65162,0.0010000000000000009
138999,7674,3904,127924,-3904,5072,124863,79,19238,324,1,65163,0.0010000000000000009
139999,10227,-7836,125937,4310,-8543,130701,90,19238,324,0,65164,0.0010000000000000009
140999,9594,2694,129550,3273,-62,127028,60,19233,369,0,65165,0.0010000000000000009
142005,8523,2793,127447,-8695,2289,126350,60,19237,246,0,65166,0.0010060000000000069
142999,10197,-2833,127818,1909,-3403,126548,72,19240,295,0,65167,0.0009939999999999949
143999,7887,-782,126928,5279,-2524,129786,76,19233,311,0,65168,0.0010000000000000009
144999,7564,5041,127352,-4724,3394,123837,72,19238,295,0,65169,0.0010000000000000009
146000,6809,2510,126757,-5499,2286,124089,73,19238,299,0,65170,0.0010010000000000019
146999,11510,795,127675,7467,-162,127208,75,19234,299,0,65171,0.0009989999999999999
147999,10210,1687,127703,650,771,125988,75,19232,307,0,65172,0.0010000000000000009
148999,8095,-3886,127816,-2171,-3117,130284,81,19234,332,0,65173,0.0010000000000000009
149999,7377,-2830,127120,-188,-5823,127485,86,19231,352,1,65174,0.0010000000000000009
150999,8572,6509,129236,302,6354,123539,69,19238,283,1,65175,0.0010000000000000009
151999,11801,4580,128227,-2447,1860,125464,68,19238,279,1,65176,0.0010000000000000009
152999,8749,-5116,126926,-508,-7284,130157,79,19235,279,1,65177,0.0010000000000000009
153999,7377,-2629,127518,1638,-1394,127364,78,19232,324,1,65178,0.0010000000000000009
154999,7165,6242,129026,-1336,5225,125335,78,19229,319,1,65179,0.0010000000000000009
155999,9032,1784,128043,-439,283,127467,74,19236,303,1,65180,0.0010000000000000009
156999,9693,307,127358,2235,-472,126699,73,19231,299,1,65181,0.0010000000000000009
157999,8595,-172,127373,-1038,-998,126658,78,19231,319,1,65182,0.0010000000000000009
158999,8431,-1461,127591,-2438,-2655,127095,88,19234,319,1,65183,0.0010000000000000009
159999,7051,-1426,128631,-38,-1753,129421,99,19231,360,0,65184,0.0010000000000000009
160999,7436,4265,129403,-841,5044,126070,99,19240,405,0,65185,0.0010000000000000009
161999,9629,3888,128273,-314,3080,125759,71,19237,291,0,65186,0.0010000000000000009
163001,7922,-2467,126848,1977,-3463,128447,77,19234,315,0,65187,0.0010019999999999751
164001,7824,-4164,126327,-521,-3598,126502,76,19235,311,0,65188,0.0010000000000000009
164999,8117,7198,129395,-3163,6896,124212,75,19235,311,0,65189,0.0009979999999999989
165999,9994,1157,127583,-778,-175,127462,75,19235,307,0,65190,0.0010000000000000009
166999,9085,-1814,127939,1012,-2778,128591,75,19236,307,0,65191,0.0010000000000000009
168002,6597,-1931,128480,-1237,-2561,128247,79,19233,324,0,65192,0.0010030000000000039
168999,7605,818,127239,-1990,-47,125788,85,19231,348,0,65193,0.0009969999999999979
169999,7432,-68,128109,-1733,-907,129218,93,19231,381,0,65194,0.0010000000000000009
170999,8580,3799,127667,-1947,3435,124009,79,19231,381,1,65195,0.0010000000000000009
171999,7690,5460,127427,2056,4735,123873,65,19241,324,1,65196,0.0010000000000000009
173001,8461,-2850,127040,-986,-3916,129171,65,19234,266,1,65197,0.0010020000000000029
173999,7753,-5767,126447,-536,-6788,129536,70,19237,287,1,65198,0.0009979999999999989
175002,8430,2559,128916,276,1603,126747,72,19235,295,1,65199,0.0010030000000000039
175999,7783,7040,129127,-1446,6382,123499,69,19235,283,1,65200,0.0009969999999999979
176999,9618,-3212,126527,-1026,-3885,129405,69,19235,283,1,65201,0.0010000000000000009
177999,8799,-253,127029,27,-1571,126767,75,19240,283,1,65202,0.0010000000000000009
178999,8404,3478,127150,1096,2631,124632,75,19232,307,1,65203,0.0010000000000000009
179999,8236,1158,126975,-1768,333,126056,85,19231,348,0,65204,0.0010000000000000009
180999,6769,-754,127641,-2064,-2791,128817,73,19232,299,0,65205,0.0010000000000000009
181999,10787,208,127542,1342,-897,127858,71,19232,291,0,65206,0.0010000000000000009
182999,8026,1906,127676,342,1350,124597,75,19232,291,0,65207,0.0010000000000000009
183999,6710,-2573,126918,-1359,-3621,128815,73,19231,307,0,65208,0.0010000000000000009
184999,7508,1550,127614,-3672,25,126309,73,19237,299,0,65209,0.0010000000000000009
185999,9485,5764,128301,209,4960,125090,70,19232,287,0,65210,0.0010000000000000009
186999,8963,630,127175,977,657,125827,72,19237,295,0,65211,0.0010000000000000009
187999,7540,-4863,127340,-1425,-5342,129083,76,19236,311,0,65212,0.0010000000000000009
188999,7758,-302,128025,-1521,-2441,128883,88,19236,311,0,65213,0.0010000000000000009
189999,8021,4592,128401,-438,3492,125311,65,19237,360,1,65214,0.0010000000000000009
190999,8768,2749,128187,-85,2789,126077,65,19240,266,1,65215,0.0010000000000000009
191999,10516,-1430,127473,23,-1368,126901,65,19234,266,1,65216,0.0010000000000000009
192999,7206,-2721,127051,166,-4023,127537,73,19235,299,1,65217,0.0010000000000000009
194001,6718,486,128387,-1827,-629,127632,72,19232,295,1,65218,0.0010019999999999751
194999,6388,952,128514,-2808,-16,127576,68,19232,279,1,65219,0.0009979999999999989
195999,9540,5192,127891,-1075,4679,124106,67,19237,279,1,65220,0.0010000000000000009
197000,8988,-564,126706,542,2045,128406,72,19235,274,1,65221,0.0010010000000000019
198000,9842,-3236,127463,1535,-3453,127703,72,19232,295,1,65222,0.0010000000000000009
198999,8630,-3152,127178,-985,-3795,128645,81,19230,332,1,65223,0.0009989999999999999
199999,7108,4831,128837,-3105,5769,124345,89,19233,365,0,65224,0.0010000000000000009
200999,6092,4088,128910,-3143,1486,127546,62,19233,254,0,65225,0.0010000000000000009
201999,8921,-2961,127198,744,-3470,128306,67,19237,254,0,65226,0.0010000000000000009
203000,8345,-442,127151,649,-1285,126501,69,19239,274,0,65227,0.0010010000000000019
203999,9064,-756,126698,651,-687,126314,69,19234,283,0,65228,0.0009989999999999999
204999,10499,5165,128438,-29,3967,124642,69,19235,283,0,65229,0.0010000000000000009
206000,10342,-57,127884,36,-1160,128795,69,19242,283,0,65230,0.0010010000000000019
206999,8217,1005,127553,-1705,175,125785,69,19242,283,0,65231,0.0009989999999999999
207999,6817,-1511,127823,-52,-3176,129044,73,19235,283,0,65232,0.0010000000000000009
208999,7097,-630,127159,-1982,-398,126434,81,19233,299,1,65233,0.0010000000000000009
209999,8321,3958,127930,706,1949,125460,81,19236,332,1,65234,0.0010000000000000009
210999,12536,1184,127788,2029,532,126494,62,19238,254,1,65235,0.0010000000000000009
211999,9635,60,127234,-320,-1144,126483,70,19235,287,1,65236,0.0010000000000000009
212999,6085,-3128,127335,-1635,-4070,129575,71,19235,291,1,65237,0.0010000000000000009
213999,6679,3799,128295,-3108,3400,125130,65,19235,291,1,65238,0.0010000000000000009
214999,7905,3599,128192,-661,2534,126548,64,19236,266,1,65239,0.0010000000000000009
215999,9349,265,127616,-365,-362,125876,64,19238,262,1,65240,0.0010000000000000009
217003,9009,-2419,127151,1528,-3296,127894,68,19237,279,1,65241,0.0010040000000000049
217999,8021,-1776,127434,-1148,-2444,127719,78,19234,319,1,65242,0.0009959999999999969
218999,8032,2982,128576,-2500,2275,125955,87,19235,356,0,65243,0.0010000000000000009
219999,6947,2673,128716,-576,2501,127615,61,19235,356,0,65244,0.0010000000000000009
220999,10132,1270,127481,1022,662,125247,68,19240,250,0,65245,0.0010000000000000009
221999,7341,-2461,126968,-592,-3110,127773,68,19234,279,0,65246,0.0010000000000000009
222999,8247,-1496,126940,-645,-2798,127238,70,19235,287,0,65247,0.0010000000000000009
223999,7515,2352,128128,-608,1430,126471,68,19237,279,0,65248,0.0010000000000000009
224999,9305,3816,128396,-3891,3265,125876,67,19235,274,0,65249,0.0009999999999999731
225999,8928,962,127647,1647,69,126357,70,19235,274,0,65250,0.0010000000000000009
226999,7514,-3981,127017,-127,-4539,129063,74,19234,287,0,65251,0.0010000000000000009
227999,8376,-1852,127223,-694,-2462,126168,74,19231,303,0,65252,0.0010000000000000009
228999,7135,3392,128298,-2123,2175,126512,83,19233,340,1,65253,0.0010000000000000009
229999,7174,1236,127623,-1921,1795,125769,67,19243,274,1,65254,0.0010000000000000009
230999,10838,1950,127925,1733,1254,126228,65,19231,266,1,65255,0.0010000000000000009
232003,8692,-2176,126692,-811,-2741,128675,68,19231,279,1,65256,0.0010040000000000049
232999,6783,-722,127252,525,-2255,125594,68,19233,279,1,65257,0.0009959999999999969
234000,8595,2397,128953,-2864,1311,128162,68,19234,279,1,65258,0.0010010000000000019
234999,10292,3776,127639,468,2820,125422,66,19237,270,1,65259,0.0009989999999999999
235999,9493,566,127160,1081,436,126459,69,19231,283,1,65260,0.0010000000000000009
236999,7973,-555,127108,-1118,-1882,127254,72,19231,295,1,65261,0.0010000000000000009
237999,7675,485,127328,-1135,-496,125917,83,19231,340,1,65262,0.0010000000000000009
238999,7551,1125,128477,-424,-16,128510,69,19232,340,0,65263,0.0010000000000000009
240000,9014,1988,128848,-1148,1889,126065,67,19236,283,0,65264,0.0010010000000000019
240999,10031,-719,127753,43,-1075,128090,67,19239,274,0,65265,0.0009989999999999999
242000,7221,-846,127271,-82,-1778,127016,73,19233,299,0,65266,0.0010010000000000019
242999,7776,-1303,127004,-1104,-2572,127019,73,19233,299,0,65267,0.0009989999999999999
244000,6777,5264,128332,-1059,2839,124614,70,19233,287,0,65268,0.0010010000000000019
244999,9326,1889,127798,-3085,-195,127461,71,19238,287,0,65269,0.0009989999999999999
245999,8088,-746,127585,-347,-1777,127309,76,19233,291,0,65270,0.0010000000000000009
246999,6962,-960,128157,1053,-1970,128012,76,19235,311,0,65271,0.0010000000000000009
247999,6115,-469,127787,-4940,-1421,127855,84,19229,344,0,65272,0.0010000000000000009
248999,7000,2263,128529,-271,1385,127036,95,19235,389,1,65273,0.0010000000000000009
249999,7242,-389,126141,1206,-1206,125807,66,19235,270,1,65274,0.0010000000000000009
251000,12526,7753,127828,3462,7557,121450,72,19236,270,1,65275,0.0010010000000000019
251999,8370,-3329,126853,-3991,-7743,133204,73,19233,295,1,65276,0.0009989999999999721
252999,10226,-4872,127639,-983,-1917,126232,73,19231,299,1,65277,0.0010000000000000009
254000,6198,7733,130753,895,5171,126826,70,19236,287,1,65278,0.0010010000000000296
254999,8923,-2534,127511,-3072,-3180,126944,68,19235,279,1,65279,0.0009989999999999721
255999,5626,-1669,126690,-705,-3167,128099,73,19236,299,1,65280,0.0010000000000000009
256999,6229,-681,126901,2006,-58,127846,82,19236,299,1,65281,0.0010000000000000009
257999,7677,11998,127324,-11419,11449,116339,90,19226,336,1,65282,0.0010000000000000009
259001,10587,792,129198,6617,-1367,131811,90,19231,369,0,65283,0.0010020000000000029
259999,8517,-8675,125762,6812,-9985,130788,53,19232,217,0,65284,0.0009979999999999989
260999,8547,-532,128630,-14133,-1004,125700,70,19235,287,0,65285,0.0010000000000000009
261999,7967,-1068,127846,3971,-2498,128549,73,19237,299,0,65286,0.0010000000000000009
262999,7251,2593,127167,8728,1615,125260,73,19237,299,0,65287,0.0010000000000000009
264011,8063,5581,128209,-13223,5028,125590,74,19235,299,0,65288,0.0010120000000000129
264999,8632,3280,126653,-3313,2149,124440,74,19233,303,0,65289,0.0009879999999999889
265999,10109,-864,127280,10094,-1731,127789,73,19229,299,0,65290,0.0010000000000000009
267000,9448,352,128562,442,-521,127492,78,19235,319,0,65291,0.0010010000000000296
268001,8616,-3681,127471,-7496,-4476,127700,88,19236,360,1,65292,0.0010009999999999741
269000,7289,-586,128822,1209,-1534,129977,68,19236,360,1,65293,0.0009989999999999721
269999,10984,2020,128059,2807,2231,125216,72,19237,279,1,65294,0.0009990000000000276
270999,9748,6103,127834,-3255,5562,122877,72,19235,295,1,65295,0.0010000000000000009
272001,5406,-4867,126811,-3882,-5618,130091,76,19232,311,1,65296,0.0010020000000000029
272999,7265,72,128206,-309,-1280,127919,77,19238,315,1,65297,0.0009979999999999989
273999,8918,4777,129086,1988,3964,127180,73,19233,299,1,65298,0.0010000000000000009
274999,10198,3183,127492,207,2909,123569,73,19233,299,1,65299,0.0010000000000000009
275999,7518,-5972,126767,-2519,-6191,129954,78,19236,299,1,65300,0.0010000000000000009
277000,9277,-753,127810,-470,-2606,128574,78,19233,319,1,65301,0.0010009999999999741
277999,8527,4689,128108,2207,3662,124547,89,19231,365,0,65302,0.0009990000000000276
278999,6484,2869,129007,-5890,2426,126137,96,19239,393,0,65303,0.0010000000000000009
279999,9473,-1863,127524,-3350,-2271,128168,71,19234,291,0,65304,0.0010000000000000009
280999,9679,-2217,127508,3336,-3859,130080,78,19234,291,0,65305,0.0010000000000000009
281999,7999,2175,127190,3111,1283,124396,75,19235,319,0,65306,0.0010000000000000009
282999,7806,332,127026,-4099,-467,126063,75,19233,307,0,65307,0.0010000000000000009
283999,9063,4849,128187,-2946,3422,125611,76,19236,311,0,65308,0.0010000000000000009
284999,10162,681,127768,3159,1156,127220,75,19232,307,0,65309,0.0010000000000000009
286000,8054,-1483,127524,-521,-2627,127523,79,19232,324,0,65310,0.0010009999999999741
286999,6183,-3661,127526,-2369,-3593,129615,85,19232,348,0,65311,0.0009990000000000276
287999,7557,200,128253,-1406,-2631,126353,93,19237,348,0,65312,0.0010000000000000009
289000,9306,5134,128096,-262,4729,125081,73,19237,381,1,65313,0.0010009999999999741
289999,7850,1322,126901,-23,1107,125114,73,19241,299,1,65314,0.0009990000000000276
290999,11540,2077,127120,1017,1690,125239,66,19229,270,1,65315,0.0010000000000000009
291999,8784,-2834,126893,-469,-4170,129335,71,19234,291,1,65316,0.0010000000000000009
292999,9282,-296,127937,2141,-409,127305,73,19234,299,1,65317,0.0010000000000000009
293999,7771,1687,128803,-745,1156,127671,71,19243,299,1,65318,0.0010000000000000009
295001,8665,1689,127550,-2725,1862,125435,70,19229,291,1,65319,0.0010020000000000029
296001,9966,1150,127323,2434,-188,127752,70,19234,287,1,65320,0.0010000000000000009
296999,8508,-2712,125527,838,-2980,125889,73,19233,299,1,65321,0.0009979999999999989
297999,10065,2790,127631,-1832,2722,124975,85,19228,348,0,65322,0.0010000000000000009
299001,7356,3559,127963,-53,1483,126214,65,19239,266,0,65323,0.0010019999999999474
300001,11463,-780,128424,649,-2054,128684,73,19239,266,0,65324,0.0010000000000000009
301001,8550,-3507,127676,473,-4687,129558,75,19231,299,0,65325,0.0010000000000000009
301999,6092,-384,127209,-1694,-518,125310,75,19233,307,0,65326,0.0009979999999999989
302999,8542,3143,127853,-1211,2513,125647,72,19238,295,0,65327,0.0010000000000000009
303999,9319,3912,128093,399,3135,125635,72,19234,295,0,65328,0.0010000000000000009
304999,10785,475,127082,-303,-638,126642,73,19239,299,0,65329,0.0010000000000000009
305999,7633,-1233,127471,-176,-2195,127694,83,19239,299,0,65330,0.0010000000000000009
306999,7506,-1192,127993,-1084,-1998,128714,86,19237,340,0,65331,0.0010000000000000009
307999,7365,148,128252,-1072,-196,128360,86,19236,352,1,65332,0.0010000000000000009
308999,7743,4291,128935,-698,4246,125114,67,19236,274,1,65333,0.0010000000000000009
309999,12035,811,127465,2053,-294,126256,65,19229,266,1,65334,0.0010000000000000009
310999,7918,-3211,127437,57,-4081,127837,72,19236,295,1,65335,0.0010000000000000009
312000,7562,-1356,127661,-2567,-2208,128251,75,19236,295,1,65336,0.0010010000000000296
312999,5995,3713,128812,-2550,2712,126443,73,19236,307,1,65337,0.0009989999999999721
313999,8690,4321,128421,-1460,3771,126030,73,19236,299,1,65338,0.0010000000000000009
315002,8540,-946,127170,876,-1742,127762,70,19239,287,1,65339,0.0010030000000000316
315999,9255,-2802,126814,1089,-3497,127178,72,19232,295,1,65340,0.0009969999999999701
316999,9309,-930,127292,-650,-1868,126849,79,19233,324,1,65341,0.0010000000000000009
317999,7368,3025,128692,-3116,2041,126125,87,19233,324,0,65342,0.0010000000000000009
318999,7008,2718,128568,-3363,2014,126885,62,19234,356,0,65343,0.0010000000000000009
319999,8140,520,127448,819,-130,127805,62,19238,254,0,65344,0.0010000000000000009
321000,7954,-2416,127106,-1858,-3329,127739,67,19236,274,0,65345,0.0010010000000000296
321999,7801,-1863,126807,1667,-3051,126859,68,19235,279,0,65346,0.0009989999999999721
322999,10660,3939,128097,493,2947,125219,67,19238,274,0,65347,0.0010000000000000009
324000,10239,3157,127951,-444,2372,125775,66,19238,274,0,65348,0.0010010000000000296
324999,8854,-35,127579,-1137,-288,126872,70,19234,270,0,65349,0.0009989999999999721
325999,6893,-1023,127576,-302,-2218,128334,70,19231,287,0,65350,0.0010000000000000009
327000,6179,-29,127443,-1401,-1659,127251,74,19228,303,1,65351,0.0010010000000000296
327999,6977,899,127457,-1896,49,126076,83,19238,340,1,65352,0.0009989999999999721
328999,11348,1140,128488,542,1109,127115,63,19237,258,1,65353,0.0010000000000000009
329999,9991,-460,127143,-918,7,125746,71,19237,291,1,65354,0.0010000000000000009
330999,7163,-2585,126998,637,-3800,128686,72,19236,291,1,65355,0.0010000000000000009
331999,6546,4527,128193,-3450,1831,126335,65,19237,295,1,65356,0.0010000000000000009
332999,6514,2516,127953,-2823,2806,125473,65,19236,266,1,65357,0.0010000000000000009
334000,9079,825,127594,-148,-203,125952,64,19230,262,1,65358,0.0010009999999999741
335002,7841,-2565,127001,664,-2246,128664,71,19236,291,1,65359,0.0010020000000000029
335999,7745,-2961,126924,-1337,-4962,126465,78,19236,319,1,65360,0.0009970000000000256
336999,7577,4955,128540,-1940,3362,125714,87,19229,319,0,65361,0.0010000000000000009
337999,7018,1629,128418,-2552,1804,128105,63,19239,356,0,65362,0.0010000000000000009
338999,10855,1351,127788,-1088,97,125586,63,19236,258,0,65363,0.0010000000000000009
339999,7705,-1613,127110,-104,-3244,128253,69,19236,283,0,65364,0.0010000000000000009
340999,7326,-1417,127006,-422,-977,125854,69,19238,283,0,65365,0.0010000000000000009
341999,7147,1272,128161,-1528,200,127883,72,19238,295,0,65366,0.0010000000000000009
342999,8321,3371,127927,-1662,3144,125677,70,19238,295,0,65367,0.0010000000000000009
343999,8460,2817,127657,-799,1479,125306,72,19238,287,0,65368,0.0010000000000000009
344999,7161,-2719,127428,-1059,-4348,129428,72,19236,295,0,65369,0.0010000000000000009
345999,8931,-2004,127056,784,-2266,126721,73,19233,299,0,65370,0.0010000000000000009
346999,7247,1945,128325,-3226,1781,126746,80,19231,328,1,65371,0.0010000000000000009
347999,7548,4126,128069,-1927,3145,124772,63,19237,258,1,65372,0.0010000000000000009
348999,9467,974,126766,1433,-506,127165,63,19237,258,1,65373,0.0010000000000000009
349999,8652,-1844,127138,-1811,-2395,128042,69,19238,258,1,65374,0.0010000000000000009
350999,6774,235,127587,528,-389,125622,69,19239,283,1,65375,0.0010000000000000009
351999,8496,1004,128363,-1939,250,128270,67,19236,274,1,65376,0.0010000000000000009
352999,9535,2054,128117,-66,1443,126020,65,19234,266,1,65377,0.0010000000000000009
353999,9682,1165,127243,1578,99,126695,64,19237,262,1,65378,0.0010000000000000009
355001,8442,151,127049,-33,-865,126419,71,19237,262,1,65379,0.0010020000000000029
356002,6590,-472,127105,-3154,-1433,127193,81,19232,291,1,65380,0.0010009999999999741
356999,7594,1499,128037,-486,813,127512,81,19230,332,0,65381,0.0009970000000000256
357999,7646,4246,127992,-450,3678,125362,64,19236,262,0,65382,0.0009999999999999454
358999,10730,-2045,127442,-977,-2867,128101,71,19234,291,0,65383,0.0010000000000000009
359999,7601,-2021,127407,1545,-2906,127462,73,19238,299,0,65384,0.0010000000000000009
360999,7611,-858,127582,-2311,-1706,127210,70,19238,299,0,65385,0.0010000000000000009
362000,7653,3114,128340,-2435,2153,126310,70,19236,287,0,65386,0.0010010000000000296
362999,8493,3244,128067,-781,2835,125518,70,19238,287,0,65387,0.0009989999999999721
363999,7465,-2167,126913,-1057,-3139,129216,72,19231,295,0,65388,0.0010000000000000009
364999,8613,-1443,126143,268,-2809,125866,79,19234,324,0,65389,0.0010000000000000009
366000,7840,6445,128769,437,5770,123493,84,19231,344,0,65390,0.0010010000000000296
366999,9349,-3300,127227,-3527,-4040,131693,91,19231,344,1,65391,0.0009989999999999721
367999,6836,3757,128995,-1656,3659,124239,64,19240,373,1,65392,0.0010000000000000009
368999,12735,1189,128297,8433,416,126675,64,19234,262,1,65393,0.0010000000000000009
369999,6563,-3416,126550,-762,-3389,128538,72,19232,295,1,65394,0.0010000000000000009
370999,7162,-6143,127703,-11598,-7951,128864,76,19239,311,1,65395,0.0010000000000000009
371999,10401,8606,129033,10886,6734,125856,73,19232,299,1,65396,0.0010000000000000009
372999,7902,6633,127083,-2812,6691,123465,69,19232,299,1,65397,0.0010000000000000009
373999,8723,-1725,126810,-10832,-1133,124891,72,19236,283,1,65398,0.0010000000000000009
374999,7197,-4199,126177,11210,-5939,131793,72,19234,295,1,65399,0.0010000000000000009
375999,9013,1237,127639,-1105,-276,126734,80,19230,328,1,65400,0.0010000000000000009
376999,8403,1992,128624,-10099,1477,123153,89,19231,365,0,65401,0.0010000000000000009
378000,7925,1643,129038,7716,1382,127976,64,19234,262,0,65402,0.0010010000000000296
378999,12130,-1066,127114,1352,-1060,129442,70,19234,287,0,65403,0.0009989999999999721
379999,5405,-801,127108,-6389,-2023,125498,71,19236,287,0,65404,0.0010000000000000009
380999,8361,1205,126913,2063,-431,126385,72,19233,291,0,65405,0.0010000000000000009
382001,8801,4416,128554,3773,3697,126153,72,19234,295,0,65406,0.0010020000000000029
382999,9432,-1425,127551,-7427,-728,128755,72,19233,295,0,65407,0.0009979999999999989
383999,11564,2069,127103,3705,-644,124649,73,19233,299,0,65408,0.0010000000000000009
384999,6492,2355,127822,5573,2131,127447,80,19233,328,0,65409,0.0010000000000000009
386000,9944,-2051,127930,-9688,-2625,127184,88,19230,328,0,65410,0.0010010000000000296
386999,7333,-129,128323,2460,-1118,129972,58,19231,360,1,65411,0.0009989999999999721
387999,8836,1082,128116,3800,1877,124988,58,19236,238,1,65412,0.0010000000000000009
388999,10679,2317,127440,-4449,514,125037,70,19235,287,1,65413,0.0010000000000000009
389999,6908,-4263,126965,4163,-5373,131556,75,19236,307,1,65414,0.0010000000000000009
390999,8471,2980,127709,-2838,3968,124188,73,19236,299,1,65415,0.0010000000000000009
391999,6661,5910,128925,-5342,4336,125972,71,19235,299,1,65416,0.0010000000000000009
392999,11150,1872,127501,4848,434,125974,73,19235,291,1,65417,0.0010000000000000009
393999,8108,-3318,127622,514,-5153,129242,73,19233,299,1,65418,0.0010000000000000009
394999,7960,-4344,127670,-4185,-4593,129079,78,19232,319,1,65419,0.0010000000000000009
396001,7743,1784,127811,2186,1483,126044,91,19232,373,0,65420,0.0010020000000000029
397001,7085,3887,128297,-3425,3497,126313,79,19236,324,0,65421,0.0010000000000000009
397999,10280,3586,126775,-2004,1987,125316,71,19236,324,0,65422,0.0009979999999999989
398999,8869,361,127287,-222,-710,126684,78,19232,291,0,65423,0.0010000000000000009
399999,9113,-4263,126809,3806,-5040,128775,78,19232,319,0,65424,0.0010000000000000009
400999,7313,288,127764,-2712,-109,125970,78,19233,319,0,65425,0.0010000000000000009
401999,8002,4559,129064,-2666,3859,126423,74,19234,303,0,65426,0.0010000000000000009
403002,8753,1094,126966,103,-28,126724,74,19233,303,0,65427,0.0010029999999999761
403999,8346,-827,127484,-1076,-1611,127223,78,19233,303,0,65428,0.0009970000000000256
404999,7886,-2372,127196,1887,-3052,128110,85,19235,319,0,65429,0.0010000000000000009
405999,7730,756,127462,-3652,140,125642,85,19233,348,0,65430,0.0010000000000000009
406999,8991,3319,128605,-2224,2567,126524,94,19232,385,1,65431,0.0010000000000000009
407999,7021,1270,127629,1654,790,126309,66,19242,270,1,65432,0.0010000000000000009
409007,11374,1140,127383,1696,622,126044,68,19232,279,1,65433,0.0010079999999999534
409999,7354,-3886,126588,-1770,-4650,128579,73,19232,279,1,65434,0.0009920000000000484
410999,8779,544,127735,101,-646,126464,71,19231,299,1,65435,0.0010000000000000009
411999,8781,3681,129122,257,2803,126944,71,19235,291,1,65436,0.0010000000000000009
413011,9350,1994,127917,-2137,1357,126323,71,19237,291,1,65437,0.0010119999999999574
414001,9553,-669,127135,978,-1556,127530,70,19236,287,1,65438,0.0009900000000000464
414999,7189,-432,127139,639,-1421,127330,75,19233,307,1,65439,0.0009979999999999989
415999,9387,2113,127252,-1674,1237,124911,87,19233,307,0,65440,0.0010000000000000009
416999,7442,886,128041,-775,-142,127802,54,19230,356,0,65441,0.0010000000000000009
417999,11055,1230,129148,-1530,1554,126424,54,19235,221,0,65442,0.0009999999999999454
418999,8977,-758,127899,-1021,-1481,127776,72,19232,295,0,65443,0.0010000000000000009
419999,6623,-1995,127472,428,-3134,128329,74,19234,303,0,65444,0.0010000000000000009
421002,7690,591,127717,-1627,-675,127330,74,19238,303,0,65445,0.0010030000000000316
421999,7193,3440,128316,-2075,1774,126235,72,19238,295,0,65446,0.0009969999999999701
423002,10312,3372,127542,356,3473,123940,73,19237,295,0,65447,0.0010030000000000316
424001,8122,-2490,126967,1147,-2937,128686,78,19228,299,0,65448,0.0009989999999999721
424999,7542,-1418,127885,-2653,-2756,128024,78,19236,319,0,65449,0.0009979999999999989
426002,6997,1294,128375,-1486,-3,127829,85,19236,348,1,65450,0.0010030000000000316
426999,7342,3908,129253,-1566,3509,126070,61,19240,250,1,65451,0.0009969999999999701
427999,12400,-2108,127929,1055,909,128221,68,19240,279,1,65452,0.0010000000000000009
428999,7971,-3572,127347,429,-4577,127972,74,19235,279,1,65453,0.0010000000000000009
429999,7705,842,127575,-679,-502,125948,74,19236,303,1,65454,0.0010000000000000009
431002,5899,3312,128235,-2299,587,127194,74,19239,303,1,65455,0.0010030000000000316
431999,8065,6276,128274,-3264,6174,125045,69,19231,283,1,65456,0.0009969999999999701
433000,9835,142,126914,-477,-1484,126783,65,19235,266,1,65457,0.0010010000000000296
433999,8581,-2510,127284,3845,-3934,128716,71,19235,291,1,65458,0.0009989999999999721
435002,8846,-4544,126852,-1709,-4858,127287,83,19233,291,1,65459,0.0010030000000000316
435999,7816,2769,128446,-2846,3489,126125,91,19229,340,0,65460,0.0009969999999999701
436999,6487,5600,128649,-1874,3827,126169,91,19228,373,0,65461,0.0010000000000000009
438001,8468,1563,126603,-1612,359,126072,64,19237,262,0,65462,0.0010020000000000029
438999,8023,-1236,127275,920,-2636,128502,67,19239,274,0,65463,0.0009979999999999989
439999,8556,-3509,126428,1502,-3481,126562,70,19234,287,0,65464,0.0010000000000000009
440999,10875,3946,128406,300,3568,124411,65,19234,287,0,65465,0.0010000000000000009
441999,9748,1101,127896,750,-323,128030,67,19234,266,0,65466,0.0010000000000000009
442999,9107,634,127092,-2105,26,125674,67,19236,274,0,65467,0.0010000000000000009
444002,6988,1676,127854,-1364,494,127721,71,19235,291,0,65468,0.0010029999999999761
445001,6287,-959,127208,-1040,-1844,127485,76,19232,311,1,65469,0.0009990000000000276
445999,7948,1068,128004,-1943,-83,126555,62,19240,254,1,65470,0.0009979999999999989
446999,10902,478,128663,1550,588,127422,64,19240,254,1,65471,0.0010000000000000009
447999,10646,-588,127270,436,-1617,126237,70,19233,262,1,65472,0.0010000000000000009
448999,7089,-1161,127443,294,-1939,128189,70,19232,287,1,65473,0.0010000000000000009
450000,6531,2431,127815,-4576,1619,126852,71,19236,291,1,65474,0.0010009999999999741
450999,7246,4157,128197,-1800,3482,125213,66,19237,270,1,65475,0.0009990000000000276
451999,9451,2313,127810,1644,1374,125931,65,19235,266,1,65476,0.0010000000000000009
453003,8884,-4349,126922,1007,-5298,128360,69,19235,266,1,65477,0.0010040000000000049
453999,7922,-3252,127466,-1599,-4099,128667,77,19233,283,1,65478,0.0009959999999999969
455001,7839,3088,128359,-1587,2054,126541,77,19232,315,0,65479,0.0010020000000000029
455999,7585,5076,128577,-1996,4490,125553,88,19239,360,0,65480,0.0009979999999999989
456999,10302,1805,127636,59,1340,126142,65,19235,266,0,65481,0.0010000000000000009
457999,8175,-2760,126943,-1025,-3680,128179,69,19233,283,0,65482,0.0010000000000000009
459002,7897,-1998,127273,763,-2978,126989,69,19233,283,0,65483,0.0010029999999999761
459999,8341,1345,128297,-485,445,126879,69,19234,283,0,65484,0.0009970000000000256
461000,9068,2827,128329,-3217,1926,126013,69,19234,283,0,65485,0.0010009999999999741
461999,8582,1215,127639,219,888,126810,66,19235,270,0,65486,0.0009990000000000276
462999,7821,-1471,126602,169,-1373,127084,72,19237,295,0,65487,0.0010000000000000009
463999,8035,-447,127665,-642,-1703,127147,77,19235,315,0,65488,0.0010000000000000009
464999,7249,1700,127994,-3044,721,126268,83,19235,315,1,65489,0.0010000000000000009
465999,8450,693,127511,-2094,334,126671,51,19228,340,1,65490,0.0010000000000000009
466999,9832,2942,127176,3083,1143,126234,51,19239,209,1,65491,0.0010000000000000009
467999,8206,-1594,126885,-3575,-1670,127619,65,19237,266,1,65492,0.0010000000000000009
468999,7829,-657,127235,-167,-2136,126443,68,19236,279,1,65493,0.0010000000000000009
470000,8418,2775,128478,592,1408,127378,67,19238,274,1,65494,0.0010009999999999741
470999,9173,1657,127594,-851,1049,126797,66,19238,270,1,65495,0.0009990000000000276
472001,9014,1085,127471,-679,579,125347,66,19241,270,1,65496,0.0010020000000000029
472999,8345,-713,127312,219,-1732,128392,75,19230,270,1,65497,0.0009979999999999989
473999,7797,187,127350,-559,-658,126179,75,19237,307,1,65498,0.0010000000000000009
474999,7390,1662,128247,-661,536,126927,80,19229,328,0,65499,0.0010000000000000009
475999,7092,2362,127130,-1693,705,126333,58,19233,238,0,65500,0.0010000000000000009
476999,10791,-466,127568,-488,-519,127681,69,19233,283,0,65501,0.0009999999999999454
478000,8020,-72,127877,2109,-972,126994,76,19238,283,0,65502,0.0010010000000000296
478999,7091,-348,127006,-776,-1505,127030,73,19228,311,0,65503,0.0009989999999999721
479999,6653,2134,128262,-4852,1609,126757,73,19234,299,0,65504,0.0010000000000000009
480999,8880,1865,127889,-366,756,127144,71,19239,291,0,65505,0.0010000000000000009
482000,7943,1208,127664,515,495,125930,71,19235,291,0,65506,0.0010010000000000296
482999,7473,314,127894,-2912,-1074,127229,79,19235,324,0,65507,0.0009989999999999721
483999,7119,-2498,127804,-866,-2923,129413,85,19234,324,0,65508,0.0010000000000000009
484999,7232,-1847,126408,-1006,-2210,126780,93,19236,348,1,65509,0.0010000000000000009
485999,7305,7918,128476,2432,8716,121270,93,19241,381,1,65510,0.0010000000000000009
486999,11972,1482,126708,-2741,-1134,129312,67,19237,274,1,65511,0.0010000000000000009
487999,10846,-3399,127806,3644,-3694,128246,72,19236,295,1,65512,0.0010000000000000009
488999,6823,-1742,128362,-3571,-2418,126727,74,19233,303,1,65513,0.0010000000000000009
489999,8205,2837,129847,-2632,1463,127698,71,19233,303,1,65514,0.0010000000000000009
490999,6430,-3965,127600,3321,-5121,129443,71,19233,291,1,65515,0.0010000000000000009
491999,7662,4449,127045,-3948,4463,124447,71,19234,291,1,65516,0.0010000000000000009
492999,7143,9840,127447,-5263,9003,119766,73,19233,299,1,65517,0.0010000000000000009
493999,9385,-734,127290,2865,-3014,129472,83,19232,340,1,65518,0.0010000000000000009
494999,10058,-6459,126799,4985,-6872,130475,90,19238,369,0,65519,0.0010000000000000009
495999,6101,3246,130246,-5352,2844,124449,65,19238,369,0,65520,0.0010000000000000009
496999,10524,363,128058,-4135,-710,127855,72,19236,266,0,65521,0.0010000000000000009
497999,7480,-2051,127725,8292,-3025,128597,72,19235,295,0,65522,0.0010000000000000009
499001,7719,1875,126487,-2838,1350,125665,74,19234,303,0,65523,0.0010020000000000029
499999,6545,6967,127444,-9731,6088,122758,70,19233,287,0,65524,0.0009979999999999989
500999,8976,-623,127569,3909,-1394,127973,71,19234,291,0,65525,0.0010000000000000009
501999,12648,1339,127709,6770,605,126489,76,19234,291,0,65526,0.0010000000000000009
502999,8525,-714,128452,-3314,-1458,127785,82,19229,311,0,65527,0.0010000000000000009
504000,7265,-5569,127201,-4035,-6403,128998,82,19234,336,0,65528,0.0010010000000000296
504999,7378,1497,128295,2097,15,127913,89,19231,365,1,65529,0.0009989999999999721
505999,9510,7749,128890,-345,7772,123306,59,19239,242,1,65530,0.0010000000000000009
506999,10101,663,126626,-2017,523,125644,75,19232,307,1,65531,0.0010000000000000009
507999,6186,-6404,126695,-2232,-7534,130585,77,19232,307,1,65532,0.0010000000000000009
508999,8700,2265,128707,2156,573,126654,76,19237,315,1,65533,0.0010000000000000009
509999,7598,4807,128385,-251,4462,126547,76,19236,311,1,65534,0.0010000000000000009
510999,9734,116,127463,-3257,-366,126352,73,19232,299,1,65535,0.0010000000000000009
511999,8521,98,127379,76,-957,126823,74,19235,303,1,0,0.0010000000000000009
512999,8948,960,127712,1949,291,127115,81,19232,332,1,1,0.0010000000000000009
513999,7652,-2790,127663,-2410,-3186,126963,92,19232,377,1,2,0.0010000000000000009
514999,6138,1090,128664,-4184,-926,128511,66,19229,377,0,3,0.0010000000000000009
515999,10414,4370,127504,718,2933,126058,74,19237,270,0,4,0.0010000000000000009
516999,9288,646,127699,975,905,126808,74,19233,303,0,5,0.0010000000000000009
517999,8016,-4259,125621,-694,-4478,128068,78,19235,319,0,6,0.0010000000000000009
518999,7716,2643,127437,-1126,-433,125329,77,19236,315,0,7,0.0010000000000000009
520001,8608,6790,129186,-2151,6781,124518,74,19236,303,0,8,0.0010019999999999474
520999,10707,-1373,127051,1113,-1203,128174,76,19237,303,0,9,0.0009980000000000544
521999,7202,-2357,127814,-500,-3731,128095,82,19235,311,0,10,0.0010000000000000009
522999,6870,-1606,127822,-1843,-2574,127921,82,19234,336,0,11,0.0010000000000000009
524001,8036,1064,127638,264,-571,126730,86,19230,352,0,12,0.0010019999999999474
525001,9503,2552,128225,-1105,1470,126206,94,19228,385,1,13,0.0010000000000000009
526001,8174,4708,127529,-2744,4960,122745,55,19228,225,1,14,0.0010000000000000009
526999,11493,1833,127594,1867,-317,127433,69,19236,225,1,15,0.0009980000000000544
527999,8633,-7158,126905,879,-7668,130930,72,19233,283,1,16,0.0010000000000000009
528999,7988,-634,127849,821,818,126372,72,19235,295,1,17,0.0010000000000000009
530002,7463,2760,129232,-2020,2233,126611,73,19234,299,1,18,0.0010029999999999761
530999,9541,4078,128732,640,2166,126616,69,19234,283,1,19,0.0009970000000000256
532002,10754,-3748,126355,1846,-4799,129569,70,19234,287,1,20,0.0010029999999999761
532999,8479,2014,126973,-851,2597,123491,75,19234,287,1,21,0.0009970000000000256
533999,9024,2696,127455,-1123,591,126190,89,19232,307,0,22,0.0010000000000000009
535001,7586,-598,128361,-1124,-1333,128680,89,19235,365,0,23,0.0010019999999999474
536001,10938,-678,129575,1148,-1060,128708,66,19239,270,0,24,0.0010000000000000009
536999,8990,-261,127603,-690,-754,126668,76,19232,311,0,25,0.0009980000000000544
537999,6722,349,127451,-1550,-920,125896,73,19235,299,0,26,0.0010000000000000009
538999,9089,-1831,127469,-78,-2358,129594,73,19235,299,0,27,0.0010000000000000009
539999,8397,5880,128600,-653,5574,123704,71,19231,299,0,28,0.0010000000000000009
540999,10287,1401,127296,-814,88,126194,71,19229,291,0,29,0.0010000000000000009
541999,7109,-1469,127440,-366,-2454,127675,73,19235,299,0,30,0.0010000000000000009
542999,7717,-3921,127652,-204,-4700,130509,81,19235,332,0,31,0.0010000000000000009
544000,7686,2224,127606,-1260,1562,126106,89,19234,365,1,32,0.0010009999999999186
544999,8106,6004,129074,-1838,5863,124270,58,19234,365,1,33,0.0009990000000000832
545999,12412,-2366,127287,2737,-3049,127841,69,19241,238,1,34,0.0010000000000000009
546999,8378,-1763,127685,-174,-2643,127101,69,19236,283,1,35,0.0010000000000000009
548001,6889,-2020,127479,-1754,-3311,128777,75,19229,307,1,36,0.0010019999999999474
548999,5330,3897,128392,-3529,2942,125196,73,19236,299,1,37,0.0009980000000000544
549999,8530,3310,128091,-1766,2680,127701,69,19240,283,1,38,0.0010000000000000009
550999,9249,2274,126853,1349,1421,124832,69,19240,283,1,39,0.0010000000000000009
552001,9584,-1947,126759,815,-2149,126544,74,19234,283,1,40,0.0010019999999999474
553000,9321,-3742,126935,-23,-4896,128363,74,19231,303,1,41,0.0009989999999999721
553999,7303,2332,128725,-2992,1209,125868,83,19229,340,0,42,0.0009990000000000832
554999,6994,3899,128634,-3335,2988,126829,93,19240,381,0,43,0.0010000000000000009
555999,7097,2381,126878,-1251,1471,126209,64,19234,262,0,44,0.0010000000000000009
557002,8294,-3925,126420,-1308,-4661,129074,67,19234,274,0,45,0.0010029999999999761
558001,8406,495,126600,1919,-786,125297,69,19237,274,0,46,0.0009989999999999721
558999,10889,2653,127820,502,1950,125801,69,19238,283,0,47,0.0009980000000000544
559999,9679,2127,127972,-174,1466,126073,68,19236,279,0,48,0.0010000000000000009
561001,8564,-194,127923,-814,766,126982,69,19236,283,0,49,0.0010019999999999474
562000,7464,403,127714,-581,-1427,128183,72,19236,295,0,50,0.0009989999999999721
563001,4667,-572,127474,-1989,-19,126362,75,19236,307,0,51,0.0010010000000000296
563999,8924,383,127744,-2455,-1604,128135,59,19232,307,1,52,0.0009980000000000544
564999,10741,4105,128431,2405,3768,125037,66,19238,242,1,53,0.0010000000000000009
565999,10509,-700,127226,678,-827,126373,66,19232,270,1,54,0.0010000000000000009
566999,7427,-1114,127496,-2179,-2228,127578,73,19235,299,1,55,0.0009999999999998899
567999,5567,-25,128162,-2333,-1844,128285,70,19236,287,1,56,0.0010000000000000009
568999,7599,4218,128284,-1308,2811,124818,66,19236,270,1,57,0.0010000000000000009
570001,8574,2207,127644,-329,2700,126933,65,19237,270,1,58,0.0010020000000000584
570999,8153,-2747,126855,-2228,-3078,127616,70,19231,266,1,59,0.0009979999999999434
572000,8403,-2536,127561,1735,-3226,128123,70,19238,287,1,60,0.0010010000000000296
572999,7503,1582,128309,-696,-674,127248,80,19233,328,0,61,0.0009989999999999721
573999,7657,3929,128569,-4210,3308,125431,87,19239,356,0,62,0.0010000000000000009
574999,9948,2665,127385,-310,841,127110,64,19236,262,0,63,0.0010000000000000009
575999,9319,-1173,127386,830,-2714,127287,69,19236,262,0,64,0.0010000000000000009
577001,7424,-3695,126783,-623,-3942,127385,68,19233,283,0,65,0.0010020000000000584
577999,7045,1362,128140,-1978,1699,126734,68,19232,279,0,66,0.0009979999999999434
578999,7115,3842,128558,-3584,2673,126084,69,19240,283,0,67,0.0010000000000000009
579999,9259,1788,127844,1598,897,126942,70,19236,287,0,68,0.0010000000000000009
581001,7087,-1377,127188,-740,-3162,128315,72,19238,295,0,69,0.0010020000000000584
581999,8568,-2695,126844,-2147,-2639,126563,74,19238,295,0,70,0.0009979999999999434
582999,7788,2641,128004,123,2067,126615,85,19231,303,1,71,0.0010000000000000009
583999,7803,2935,128257,-3107,2103,125838,85,19233,348,1,72,0.0010000000000000009
585001,8572,2684,127090,-783,1145,126031,58,19236,238,1,73,0.0010020000000000584
586003,7962,-1788,127316,-1546,-2858,128806,67,19239,274,1,74,0.0010019999999999474
587005,8022,-1147,127069,2237,-1902,126276,69,19234,283,1,75,0.0010020000000000584
588001,8174,951,128013,-2312,234,127509,67,19234,283,1,76,0.0009959999999999969
589001,8970,2517,128319,-686,1949,125804,65,19235,274,1,77,0.0010000000000000009
589999,9906,1726,126966,1347,618,126270,65,19235,266,1,78,0.0009979999999999434
591001,8620,-84,126899,-296,-1031,127124,66,19236,270,1,79,0.0010020000000000584
592002,6645,-150,127038,-1202,-1072,126381,73,19231,299,1,80,0.0010010000000000296
592999,7544,334,127656,-2229,-587,127800,86,19232,352,0,81,0.0009969999999999146
593999,7003,3021,127473,1464,1042,125209,65,19232,352,0,82,0.0010000000000000009
594999,11122,149,127518,366,-490,127311,74,19237,266,0,83,0.0010000000000000009
595999,7452,-1930,127246,-381,-2498,126579,74,19233,303,0,84,0.0010000000000000009
597002,7750,-1114,127527,-1505,-2055,128167,74,19235,303,0,85,0.0010029999999999761
598000,8177,3241,128404,-1845,1955,126760,72,19235,295,0,86,0.0009980000000000544
598999,7417,2581,127519,-1815,2342,125280,72,19235,295,0,87,0.0009989999999999721
599999,8617,1013,127182,290,-289,125780,73,19235,295,0,88,0.0010000000000000009
601002,9101,913,127289,369,992,126988,77,19229,299,0,89,0.0010029999999999761
602001,8441,-2054,128066,-1986,-3549,128809,77,19236,315,0,90,0.0009990000000000832
602999,7967,5452,129261,-3846,4720,124350,88,19232,360,1,91,0.0009979999999999434
603999,5798,-746,128570,-268,-705,129042,80,19235,328,1,92,0.0010000000000000009
604999,10210,-5774,125821,933,-7153,128742,69,19232,283,1,93,0.0010000000000000009
605999,9102,5662,128479,4304,3999,124417,73,19232,299,1,94,0.0010000000000000009
606999,9223,-341,126823,-4988,-445,127831,74,19234,299,1,95,0.0010000000000000009
607999,10165,6642,129995,-2844,5118,123633,70,19233,303,1,96,0.0010000000000000009
608999,8710,-3128,128038,3270,-2110,130473,70,19240,287,1,97,0.0010000000000000009
609999,8908,-1914,127326,1347,-3780,126631,70,19234,287,1,98,0.0010000000000000009
610999,3974,-3078,126875,-5571,-3089,128620,75,19237,307,1,99,0.0010000000000000009
611999,8046,4033,126828,1671,961,126327,84,19237,344,1,100,0.0010000000000000009
612999,8297,9418,128140,-3953,9352,120117,93,19231,344,0,101,0.0010000000000000009
613999,10323,-1606,128364,-248,1511,129120,65,19235,381,0,102,0.0010000000000000009
614999,11474,-8102,126227,4657,-10128,129141,65,19236,266,0,103,0.0010000000000000009
615999,7649,768,129786,-2936,-749,128480,72,19239,295,0,104,0.0010000000000000009
617000,8028,-55,126631,-775,-1724,126339,74,19237,303,0,105,0.0010010000000000296
617999,6883,2832,127847,3734,1675,126798,73,19237,299,0,106,0.0009989999999999721
618999,7906,4619,127177,-6108,2902,124412,74,19236,299,0,107,0.0010000000000000009
619999,9744,3722,126732,-2253,3976,123889,74,19232,303,0,108,0.0010000000000000009
620999,10643,-677,128224,4572,-2059,129819,74,19235,303,0,109,0.0010000000000000009
621999,9498,-4128,127740,3558,-5326,128487,82,19232,336,0,110,0.0010000000000000009
622999,7932,-108,128839,-6159,86,127536,93,19233,381,1,111,0.0010000000000000009
623999,6770,1205,127996,125,-707,128495,64,19238,262,1,112,0.0010000000000000009
624999,10932,-349,126358,1418,-14,125035,73,19238,262,1,113,0.0010000000000000009
625999,7030,3384,127258,-4862,1618,125243,74,19238,299,1,114,0.0010000000000000009
626999,6776,2017,127223,-1822,1197,126963,74,19233,303,1,115,0.0010000000000000009
627999,8994,1875,128441,379,871,128015,73,19234,299,1,116,0.0010000000000000009
629000,10443,2207,128850,1012,1836,126875,75,19240,307,1,117,0.0010010000000000296
629999,8599,-2543,126391,-16,-4157,126825,75,19229,307,1,118,0.0009989999999999721
630999,8305,-4674,127660,-1723,-4725,130088,84,19229,307,1,119,0.0010000000000000009
632000,8557,2528,127905,-890,2080,124388,92,19235,344,1,120,0.0010010000000000296
632999,7797,4867,128287,-852,4055,125770,92,19231,377,0,121,0.0009989999999999721
633999,7070,3673,127915,-5099,1889,125228,56,19237,229,0,122,0.0010000000000000009
634999,9707,-4491,126648,222,-5577,130250,72,19234,295,0,123,0.0010000000000000009
635999,8678,-402,127118,4633,-1230,127147,78,19233,319,0,124,0.0010000000000000009
636999,7350,2146,127929,-2217,1491,124846,76,19233,319,0,125,0.0010000000000000009
637999,7775,-139,127539,-5010,-714,127419,76,19235,311,0,126,0.0010000000000000009
638999,10564,2767,127621,3018,1797,126087,76,19234,311,0,127,0.0010000000000000009
639999,8764,1676,127671,-135,840,126291,74,19235,303,0,128,0.0010000000000000009
641001,7364,-711,127574,-3289,-1788,126548,81,19232,332,0,129,0.0010019999999999474
642019,6682,-4520,127765,-757,-5518,130793,85,19234,348,0,130,0.0010180000000000744
643000,7888,3013,128389,-917,2109,126351,96,19234,348,1,131,0.0009810000000000096
643999,8323,4723,127573,-1138,4066,124000,58,19232,393,1,132,0.0009989999999999721
644999,11060,40,126174,1750,-711,126766,58,19234,238,1,133,0.0010000000000000009
645999,9983,-2221,126970,-2035,-2864,127330,70,19237,287,1,134,0.0010000000000000009
646999,8458,1279,128229,1443,206,126716,72,19239,295,1,135,0.0010000000000000009
647999,8063,2667,128807,-199,2033,126653,69,19236,283,1,136,0.0010000000000000009
649001,7168,-1939,128239,-3032,-2845,129397,69,19236,283,1,137,0.0010019999999999474
650001,9015,734,127798,328,-391,126956,72,19234,283,1,138,0.0010000000000000009
650999,8930,1389,126869,2728,565,126229,72,19229,295,1,139,0.0009980000000000544
651999,9050,1587,126593,-807,700,124929,79,19231,324,1,140,0.0010000000000000009
653002,8371,942,127706,-3114,256,126930,90,19233,369,0,141,0.0010029999999999761
654001,8889,2508,128835,787,2602,126511,67,19239,274,0,142,0.0009989999999999721
654999,9981,-830,128289,502,-424,127675,73,19239,299,0,143,0.0009980000000000544
656002,6649,-5147,127229,-851,-6409,130166,73,19236,299,0,144,0.0010029999999999761
657001,6981,545,127755,-2089,-1392,126677,70,19236,299,0,145,0.0009989999999999721
658001,7928,4735,127828,-1051,3404,125568,70,19237,287,0,146,0.0010000000000000009
658999,10916,4148,127341,648,4240,124002,73,19235,299,0,147,0.0009980000000000544
660000,8454,-1750,126678,-540,-1474,127258,76,19234,311,0,148,0.0010009999999999186
660999,7091,-1531,127419,-1275,-2445,127596,81,19234,332,0,149,0.0009990000000000832
662000,7542,-1233,127996,-587,-1853,129224,88,19230,332,1,150,0.0010009999999999186
662999,7095,1953,128950,-1798,1276,124807,58,19235,360,1,151,0.0009990000000000832
663999,11679,577,126762,-143,610,127517,58,19239,238,1,152,0.0010000000000000009
664999,10037,2165,127573,-168,-93,124456,70,19238,287,1,153,0.0010000000000000009
665999,7750,-1238,127027,-470,-152,128330,76,19237,311,1,154,0.0010000000000000009
666999,6689,-1006,127974,-2053,-4241,127924,73,19237,299,1,155,0.0010000000000000009
667999,6851,6570,128703,-2734,5129,124635,68,19234,299,1,156,0.0010000000000000009
668999,9162,-131,127390,-9,-1107,127494,70,19240,279,1,157,0.0010000000000000009
669999,8801,-176,127163,379,-1994,126530,70,19232,287,1,158,0.0010000000000000009
670999,9161,-5293,126488,1637,-5731,129576,75,19233,307,1,159,0.0010000000000000009
671999,7993,3406,127917,-3274,4320,123463,82,19232,336,1,160,0.0010000000000000009
672999,7723,4310,128869,-3449,2520,126662,93,19239,381,0,161,0.0010000000000000009
673999,6871,1858,127592,230,972,126892,64,19239,381,0,162,0.0010000000000000009
674999,8772,-1487,127243,-916,-3463,128558,70,19233,262,0,163,0.0010000000000000009
675999,7924,-4144,126013,1360,-4701,127978,70,19238,287,0,164,0.0010000000000000009
676999,9521,2031,127724,520,1935,124829,69,19238,283,0,165,0.0010000000000000009
677999,9880,2786,128330,13,2304,126542,65,19232,266,0,166,0.0010000000000000009
678999,10182,4638,127813,-947,3294,124744,66,19240,270,0,167,0.0010000000000000009
680008,7835,-2384,127303,-1068,-3387,129610,69,19240,270,0,168,0.0010089999999999266
681001,6187,-998,127612,-463,-1785,126922,78,19233,283,0,169,0.0009930000000000216
682001,7711,241,127687,-1173,-781,127641,78,19233,319,1,170,0.0010000000000000009
682999,8032,2221,127934,241,1959,126015,56,19236,229,1,171,0.0009980000000000544
683999,11644,664,127412,-257,-235,126487,64,19234,262,1,172,0.0010000000000000009
684999,7795,-1297,127148,-149,-2312,127952,69,19232,283,1,173,0.0009999999999998899
685999,6675,2247,128130,-2626,1468,125708,69,19232,283,1,174,0.0010000000000000009
686999,6701,1609,128149,-2501,705,127996,65,19236,283,1,175,0.0010000000000000009
687999,9331,2906,128167,-411,2210,125392,65,19238,266,1,176,0.0010000000000000009
688999,8659,-2622,127137,1209,-3525,128525,68,19233,279,1,177,0.0010000000000000009
690001,7937,-1992,127277,-471,-3012,127179,73,19236,299,1,178,0.0010020000000000584
690999,7572,-15,127966,-2248,-1017,127638,81,19227,332,1,179,0.0009979999999999434
691999,7003,3901,128323,-3126,2727,126419,74,19227,332,0,180,0.0010000000000000009
692999,9795,4991,127477,522,4130,124634,65,19235,303,0,181,0.0010000000000000009
694001,9633,-2257,127117,-403,-2217,128054,65,19241,266,0,182,0.0010020000000000584
695001,7800,-3745,126799,-698,-4715,127794,70,19236,287,0,183,0.0010000000000000009
696001,7652,382,128365,-327,-692,128003,72,19233,295,0,184,0.0010000000000000009
697001,6716,2684,128300,-2006,1690,126644,69,19232,283,0,185,0.0010000000000000009
698001,9077,5440,128037,-2657,4527,124930,69,19232,283,0,186,0.0010000000000000009
698999,8168,759,127011,-23,852,125559,70,19236,283,0,187,0.0009979999999999434
699999,8311,-4706,126872,1165,-5636,130403,75,19232,287,0,188,0.0010000000000000009
700999,7537,40,127453,-1599,-1553,125917,75,19231,307,0,189,0.0010000000000000009
701999,7623,4023,128313,-3312,2340,126152,85,19239,348,1,190,0.0010000000000000009
702999,8270,4042,127661,446,3711,125351,59,19232,242,1,191,0.0010000000000000009
703999,8851,-1927,126644,678,-1996,128137,68,19232,279,1,192,0.0010000000000000009
704999,7357,-2051,126603,-2200,-3691,128038,69,19232,279,1,193,0.0010000000000000009
705999,7685,2036,128148,-472,564,125362,65,19231,283,1,194,0.0010000000000000009
706999,9152,3113,128765,-747,2770,126990,65,19234,266,1,195,0.0010000000000000009
708008,11020,616,127475,820,14,126708,62,19236,254,1,196,0.0010090000000000376
709001,7684,-1198,126928,-591,-1889,127446,69,19236,283,1,197,0.0009930000000000216
710000,6997,90,126862,-271,-1076,126362,74,19236,303,1,198,0.0009989999999999721
710999,7102,1078,127624,-1292,-445,127203,88,19232,303,0,199,0.0009989999999999721
711999,7902,3875,128073,-3068,2333,125948,63,19233,360,0,200,0.0010000000000000009
712999,11362,2154,127784,-154,2630,125989,63,19238,258,0,201,0.0010000000000000009
713999,9121,-1966,127575,92,-1640,128554,71,19230,291,0,202,0.0010000000000000009
715002,6743,-3257,127200,1284,-3583,127761,72,19236,295,0,203,0.0010029999999999761
715999,6808,1802,128297,-3755,2144,126713,71,19232,291,0,204,0.0009970000000000256
716999,8400,5219,128369,-2046,4209,125303,70,19232,291,0,205,0.0010000000000000009
718001,8162,2415,127561,151,1179,126011,76,19235,287,0,206,0.0010020000000000584
718999,7381,-1820,127817,-2238,-3246,128615,76,19235,311,0,207,0.0009979999999999434
719999,7067,-3597,126601,-921,-5384,129292,80,19233,328,0,208,0.0010000000000000009
720999,8267,2058,128186,3292,3948,121835,89,19228,365,1,209,0.0010000000000000009
721999,7721,9326,129066,-6983,6852,127137,68,19239,279,1,210,0.0010000000000000009
723001,13304,-4173,126633,4399,-4402,128201,65,19239,279,1,211,0.0010020000000000584
724001,8610,3209,128421,4389,1679,126072,73,19239,266,1,212,0.0010000000000000009
725000,7435,-6698,126895,-9035,-7176,129382,73,19236,299,1,213,0.0009989999999999721
726001,7549,921,128697,-563,129,126321,74,19232,303,1,214,0.0010010000000000296
726999,8201,716,128898,8637,-483,131081,70,19237,287,1,215,0.0009979999999999434
727999,8663,6645,125884,-9846,6451,120014,70,19237,287,1,216,0.0010000000000000009
728999,5678,8129,128269,-4588,4892,124690,74,19237,287,1,217,0.0010000000000000009
729999,9871,-2883,125179,10014,-7971,132281,84,19235,303,1,218,0.0010000000000000009
730999,8939,-5636,128372,-2318,237,125747,84,19234,344,0,219,0.0010000000000000009
731999,7174,4805,130112,-9238,3236,125374,96,19239,393,0,220,0.0010000000000000009
732999,11118,108,127318,7306,-3547,129499,67,19233,274,0,221,0.0010000000000000009
733999,8920,-2597,128392,941,-1510,127765,73,19235,299,0,222,0.0010000000000000009
734999,6040,959,126609,-4325,472,126359,73,19235,299,0,223,0.0010000000000000009
735999,7229,671,127126,-2312,2695,123539,73,19236,299,0,224,0.0010000000000000009
736999,9051,6210,128812,2105,3473,127762,73,19232,299,0,225,0.0010000000000000009
738000,11890,-1742,126538,1506,-2862,127734,73,19233,299,0,226,0.0010010000000000296
738999,8185,1407,128572,606,1264,124841,77,19233,315,0,227,0.0009989999999999721
739999,7755,-2490,127023,-3318,-7161,131447,84,19230,344,0,228,0.0010000000000000009
740999,8276,3234,128429,2416,1325,125888,91,19230,373,1,229,0.0010000000000000009
742000,6912,5524,128262,-1756,4026,126548,63,19234,373,1,230,0.0010010000000000296
742999,11127,1665,126528,-2071,915,124044,73,19236,258,1,231,0.0009989999999999721
743999,7199,-813,127582,2315,-4220,129159,73,19236,299,1,232,0.0010000000000000009
744999,8941,-5402,127177,2324,-3858,129585,77,19233,315,1,233,0.0010000000000000009
745999,7183,4018,128356,-4780,4782,123428,75,19235,307,1,234,0.0010000000000000009
746999,9470,4119,128341,-3067,2191,127476,73,19235,299,1,235,0.0010000000000000009
747999,9550,2904,126907,5002,1341,124889,76,19234,299,1,236,0.0010000000000000009
748999,8109,-1438,127225,-957,-4410,129200,84,19232,311,1,237,0.0010000000000000009
750000,7376,-3484,127535,-5727,-3162,126716,84,19233,344,1,238,0.0010010000000000296
750999,7834,-178,128719,2454,-299,128297,93,19233,381,0,239,0.0009989999999999721
751999,8319,3398,128749,1536,4099,126828,61,19235,250,0,240,0.0010000000000000009
752999,9740,3676,126576,-3887,935,125292,76,19235,311,0,241,0.0010000000000000009
754000,7887,-3255,126252,1006,-4347,128664,77,19235,311,0,242,0.0010010000000000296
754999,8353,-547,127166,3587,106,125253,77,19235,315,0,243,0.0009989999999999721
755999,8175,2844,128188,-4347,2469,125801,77,19235,315,0,244,0.0010000000000000009
756999,9539,3699,128193,-3506,2313,126859,75,19232,307,0,245,0.0010000000000000009
758000,8780,-95,127466,3250,-1998,128976,74,19234,303,0,246,0.0010010000000000296
758999,7945,-2257,127527,1097,-2820,126564,81,19234,332,0,247,0.0009989999999999721
760000,7576,-1508,127590,-5416,-2302,127580,86,19233,332,0,248,0.0010010000000000296
760999,9188,1658,128113,535,1555,126447,97,19233,352,1,249,0.0009989999999999721
761999,8182,4764,127570,1578,3072,125053,97,19236,397,1,250,0.0010000000000000009
762999,10333,3965,126387,-1860,-758,125127,66,19239,270,1,251,0.0010000000000000009
764000,8984,-1540,127628,-248,-3551,129666,70,19235,287,1,252,0.0010010000000000296
765001,8958,-4206,127191,2934,-4456,128504,72,19231,295,1,253,0.0010009999999999186
766001,9849,-1087,128678,-2560,3045,124747,70,19231,295,1,254,0.0010000000000000009
766999,6929,4165,128512,-1326,1623,127874,70,19232,287,1,255,0.0009980000000000544
767999,9738,1082,126807,2185,510,125431,70,19231,287,1,256,0.0010000000000000009
768999,7899,1261,126733,-447,-941,127990,71,19234,291,1,257,0.0010000000000000009
770001,8182,-482,126779,-2888,845,124848,81,19229,332,1,258,0.0010019999999999474
770999,9345,3032,128079,1572,1096,126466,90,19238,369,0,259,0.0009980000000000544
771999,8816,-5,128235,1186,-2141,130417,66,19238,369,0,260,0.0010000000000000009
772999,11034,-1637,127950,-3041,-1457,126127,74,19235,270,0,261,0.0010000000000000009
773999,6181,-584,127591,683,-2224,128833,74,19240,303,0,262,0.0010000000000000009
774999,6811,217,127358,-2365,2562,125025,74,19236,303,0,263,0.0010000000000000009
775999,7753,4330,127433,-1877,1769,126388,72,19234,295,0,264,0.0010000000000000009
777001,9791,1694,127209,781,1376,125593,71,19229,291,0,265,0.0010019999999999474
777999,8919,1870,127580,464,-1270,126433,73,19229,291,0,266,0.0009980000000000544
779000,8531,-3886,127568,-269,-4786,129843,81,19228,299,0,267,0.0010009999999999186
780004,8121,746,128264,-769,-148,127358,81,19236,332,1,268,0.0010040000000000049
781001,6579,1767,128401,-2964,2028,126918,89,19234,365,1,269,0.0009970000000000256
782001,10737,4064,127139,-901,3118,124047,64,19234,262,1,270,0.0010000000000000009
782999,10081,802,127018,1172,-3368,128741,71,19236,291,1,271,0.0009980000000000544
783999,7150,-4036,127046,-210,-3799,127101,74,19236,291,1,272,0.0010000000000000009
784999,6781,479,128011,-3472,791,126712,71,19237,303,1,273,0.0010000000000000009
785999,6753,2857,128747,-1045,3359,127360,71,19235,291,1,274,0.0010000000000000009
786999,9969,4213,127273,-5,2115,125429,68,19235,279,1,275,0.0010000000000000009
787999,8692,-137,126952,435,-2320,127790,68,19236,279,1,276,0.0010000000000000009
788999,8948,-2422,127088,249,-3390,126764,77,19229,315,1,277,0.0010000000000000009
789999,8097,-2199,127518,-1012,-2597,127578,87,19229,356,1,278,0.0010000000000000009
790999,7121,2494,129099,-4566,3970,125878,73,19235,356,0,279,0.0010000000000000009
791999,6103,4362,127592,114,1559,126496,65,19240,299,0,280,0.0010000000000000009
792999,8580,346,126890,141,-1501,127959,65,19234,266,0,281,0.0010000000000000009
793999,8711,-1204,126463,521,-2030,126928,67,19232,274,0,282,0.0010000000000000009
794999,9678,-3167,127532,1744,-801,126242,69,19235,283,0,283,0.0010000000000000009
795999,10321,4941,128213,73,4772,124381,68,19235,279,0,284,0.0010000000000000009
796999,9735,-724,128068,-1002,-1527,128317,67,19234,279,0,285,0.0010000000000000009
797999,6726,1911,128280,-1523,960,126855,71,19236,274,0,286,0.0010000000000000009
798999,6133,-1806,127025,-1066,-4199,129286,71,19235,291,0,287,0.0010000000000000009
799999,7282,351,128264,-889,1735,125342,78,19230,319,1,288,0.0010000000000000009
800999,8351,2650,127177,262,-756,127335,53,19236,217,1,289,0.0010000000000000009
802001,12832,725,127407,2457,1573,124747,69,19236,283,1,290,0.0010019999999999474
803001,7937,1377,127438,-265,-1805,128233,69,19237,283,1,291,0.0010000000000000009
804000,6503,-3890,127642,-2629,-3531,125311,71,19237,283,1,292,0.0009989999999999721
804999,5693,4002,129018,-2522,3757,128155,71,19234,291,1,293,0.0009989999999999721
805999,8376,2040,127778,-2264,736,125580,65,19232,266,1,294,0.0010000000000000009
807000,8686,2219,127388,-125,1031,127226,67,19235,274,1,295,0.0010010000000000296
808001,8693,-3596,126823,1559,-5461,129254,71,19231,291,1,296,0.0010010000000000296
808999,8726,-1711,127844,-970,3008,123903,82,19231,291,1,297,0.0009979999999999434
809999,6890,3948,128743,-2479,1105,128917,68,19234,336,0,298,0.0010000000000000009
810999,8509,1950,127746,-1596,2857,124768,68,19238,279,0,299,0.0010000000000000009
811999,9006,2549,127304,991,-2853,128449,67,19236,274,0,300,0.0010000000000000009
812999,6856,-3104,126546,-117,-3815,127169,72,19232,295,0,301,0.0010000000000000009
813999,7176,-1023,127641,-1730,-550,126887,71,19234,291,0,302,0.0010000000000000009
814999,7754,13,128336,-1608,2491,127341,68,19234,291,0,303,0.0010000000000000009
815999,9752,5492,127512,-172,4192,123718,68,19236,279,0,304,0.0010000000000000009
816999,7619,2099,127266,-1634,-2635,128739,68,19240,279,0,305,0.0010000000000000009
818000,8012,-2729,127101,-15,-2793,126935,72,19235,295,0,306,0.0010010000000000296
818999,7268,-1371,127545,-1046,-1648,127619,78,19234,319,0,307,0.0009989999999999721
820008,7499,4661,128482,-4448,4066,124734,87,19241,356,1,308,0.0010090000000000376
820999,7283,4465,127489,411,902,126484,61,19241,356,1,309,0.0009909999999999641
821999,9885,-135,127061,-559,-1697,127726,68,19236,250,1,310,0.0010000000000000009
823000,7700,-431,126979,455,-1398,125949,68,19234,279,1,311,0.0010010000000000296
824000,7176,-1382,127700,-2320,-1573,128131,67,19236,274,1,312,0.0010000000000000009
824999,8623,1477,128632,-813,2710,125649,66,19239,270,1,313,0.0009989999999999721
825999,10321,3803,127565,964,858,126913,66,19234,270,1,314,0.0010000000000000009
827001,8612,1010,127224,-283,-1000,126039,71,19234,270,1,315,0.0010020000000000584
827999,6862,-514,127283,-789,-1247,126825,77,19232,291,1,316,0.0009979999999999434
828999,7705,-465,127833,-1907,611,127230,77,19232,315,0,317,0.0010000000000000009
829999,8014,260,128281,-1490,1389,126196,86,19239,352,0,318,0.0010000000000000009
831000,11170,2345,127793,1467,-176,127338,64,19236,262,0,319,0.0010010000000000296
831999,9514,-944,126588,330,-943,125417,71,19239,291,0,320,0.0009989999999999721
832999,6779,659,127958,-2252,-1106,128303,74,19239,291,0,321,0.0010000000000000009
833999,7740,-955,127881,-1854,-239,127227,73,19232,303,0,322,0.0010000000000000009
834999,8114,3652,128359,399,3514,125465,73,19238,299,0,323,0.0010000000000000009
835999,7711,1558,127765,-2038,-1534,127804,70,19233,287,0,324,0.0010000000000000009
836999,7768,-1792,127236,-912,-2818,127231,73,19231,299,0,325,0.0010000000000000009
838002,7365,-1060,128114,-160,-745,128271,81,19235,332,0,326,0.0010029999999999761
838999,7499,3124,128927,-5276,3556,125087,90,19235,369,1,327,0.0009970000000000256
839999,7730,3400,126936,-1612,-1276,128409,56,19233,369,1,328,0.0010000000000000009
840999,10353,-5215,127045,8026,-1268,124355,69,19235,229,1,329,0.0010000000000000009
841999,10838,8148,127657,-4139,5540,126730,69,19240,283,1,330,0.0010000000000000009
842999,10855,-5768,126826,-2510,-8532,130974,73,19228,299,1,331,0.0010000000000000009
844002,7499,1455,130395,3126,5205,122824,70,19235,287,1,332,0.0010029999999999761
844999,8590,4589,128329,-1415,65,130646,70,19235,287,1,333,0.0009970000000000256
845999,6018,-4677,126633,-4282,-5894,127029,71,19234,287,1,334,0.0010000000000000009
846999,6638,-2103,127276,3327,-1959,129154,78,19232,291,1,335,0.0010000000000000009
848000,8484,5262,126976,-2094,7826,121311,78,19231,319,1,336,0.0010010000000000296
848999,8585,11166,128797,-7373,7725,122057,88,19231,360,0,337,0.0009989999999999721
849999,10467,-6722,126506,9159,-10890,135430,72,19238,295,0,338,0.0010000000000000009
850999,9373,-4155,128458,-746,-1449,123500,68,19236,279,0,339,0.0010000000000000009
851999,9584,3528,129177,-12416,1595,128351,73,19236,279,0,340,0.0010000000000000009
852999,7636,-1842,126538,11644,-3662,128224,72,19234,299,0,341,0.0010000000000000009
853999,8398,-941,128140,954,-348,125080,72,19232,295,0,342,0.0010000000000000009
854999,6214,7489,127118,-12262,7215,124256,73,19236,299,0,343,0.0010000000000000009
855999,10648,200,126113,1832,-1957,127363,71,19236,291,0,344,0.0010000000000000009
856999,11227,1424,128999,11299,1964,126518,77,19231,315,0,345,0.0010000000000000009
857999,8439,435,127282,-5281,-3964,127414,84,19231,315,0,346,0.0010000000000000009
859000,8407,-2782,128406,-4940,-3254,129545,94,19235,344,1,347,0.0010010000000000296
859999,6836,-3078,127197,4731,-1032,127414,94,19237,385,1,348,0.0009989999999999721
860999,12730,1875,128180,-3113,8819,120557,67,19234,274,1,349,0.0010000000000000009
862000,5975,6832,127327,-2879,-3434,129823,77,19235,315,1,350,0.0010010000000000296
862999,6314,-7777,126486,-1200,-4786,128677,78,19237,319,1,351,0.0009989999999999721
863999,9813,1946,129698,2659,6602,125327,74,19237,319,1,352,0.0010000000000000009
864999,9799,6928,127509,-85,1854,125679,75,19235,303,1,353,0.0010000000000000009
866000,8768,-33,126517,-2177,-4736,127512,75,19232,307,1,354,0.0010010000000000296
867000,7798,-4887,128281,-1082,-2779,129228,74,19229,303,1,355,0.0010000000000000009
867999,9530,1792,127558,2700,2935,124603,86,19233,352,1,356,0.0009989999999999721
868999,6582,2565,128334,-3490,-323,127254,96,19235,393,0,357,0.0010000000000000009
870001,5279,455,128515,-5391,131,127277,68,19235,393,0,358,0.0010019999999999474
871000,11714,-191,127128,4923,-855,127916,77,19235,279,0,359,0.0009990000000000832
871999,7675,1181,128086,2274,1408,125727,77,19232,315,0,360,0.0009989999999999721
872999,8390,-502,126115,-3824,-4490,127692,79,19232,324,0,361,0.0010000000000000009
873999,7396,-2260,128046,-2644,2984,125060,74,19238,303,0,362,0.0010000000000000009
875001,10594,8357,129026,1141,5335,125488,75,19236,307,0,363,0.0010019999999999474
875999,9323,-155,126535,548,-4369,128859,77,19236,307,0,364,0.0009980000000000544
876999,6877,-2928,128257,-2611,-3108,127600,84,19236,315,0,365,0.0010000000000000009
877999,7351,-2782,127684,-1316,-2821,128679,84,19231,344,0,366,0.0010000000000000009
878999,7960,1816,128644,-609,3573,125036,90,19229,369,1,367,0.0010000000000000009
879999,8628,3522,127539,-994,431,127703,100,19239,410,1,368,0.0010000000000000009
881000,9019,127,126088,-634,1476,124340,64,19240,262,1,369,0.0010010000000000296
881999,10352,3777,127705,-1412,947,126129,70,19240,287,1,370,0.0009989999999999721
882999,8910,-2755,126927,3407,-5651,129882,74,19238,287,1,371,0.0010000000000000009
883999,8247,-2172,128312,-1487,-993,127353,72,19231,303,1,372,0.0010000000000000009
884999,6880,2351,129402,-3523,2566,126716,72,19229,295,1,373,0.0010000000000000009
885999,9603,3801,127145,1195,1966,125522,72,19235,295,1,374,0.0010000000000000009
887002,9446,-1134,126695,1727,-3516,129225,72,19235,295,1,375,0.0010029999999999761
887999,8113,-652,127085,-1121,810,124344,81,19235,332,1,376,0.0009970000000000256
888999,8417,3488,127351,-2021,1895,125518,95,19232,332,0,377,0.0010000000000000009
889999,7687,1058,127936,1005,-405,127871,70,19240,389,0,378,0.0010000000000000009
890999,10939,-260,127932,522,-1871,128215,70,19233,287,0,379,0.0010000000000000009
891999,6300,-2289,127421,-739,-2714,128036,76,19235,311,0,380,0.0010000000000000009
893000,6685,1143,127699,-1771,577,125384,72,19236,295,0,381,0.0010009999999999186
894001,8011,1408,127287,-1741,-243,128162,71,19236,291,0,382,0.0010010000000000296
895002,10347,3457,128202,1013,4438,124179,71,19236,291,0,383,0.0010010000000000296
895999,7172,4660,126898,-1985,2418,125314,78,19232,291,0,384,0.0009970000000000256
896999,8803,-5034,126999,-1275,-5242,128949,78,19230,319,0,385,0.0010000000000000009
897999,7813,-1457,128815,991,-1247,128753,86,19226,352,0,386,0.0010000000000000009
898999,6493,1524,127843,-2237,1690,123448,94,19234,385,1,387,0.0010000000000000009
899999,10322,4913,127393,-2513,4431,126590,63,19239,258,1,388,0.0010000000000000009
900999,10375,-841,127015,3062,-2952,128610,73,19239,258,1,389,0.0010000000000000009
901999,8995,-3560,126536,374,-3845,126573,75,19233,299,1,390,0.0010000000000000009
902999,5831,293,128377,-2479,1705,127004,75,19239,307,1,391,0.0010000000000000009
903999,5483,3438,128690,-4541,3152,126401,72,19237,295,1,392,0.0010000000000000009
904999,9716,2916,127288,-560,385,127361,70,19235,287,1,393,0.0010000000000000009
905999,8556,1155,127406,2239,-997,126283,70,19234,287,1,394,0.0010000000000000009
907000,9931,-1387,126379,-456,-3847,126838,75,19234,287,1,395,0.0010009999999999186
908000,7938,-3128,127747,-2350,-1107,127219,87,19233,307,1,396,0.0010000000000000009
908999,8384,2245,129095,-2260,3579,126292,87,19234,356,0,397,0.0009990000000000832
909999,5771,3835,128202,-565,2309,126266,73,19238,299,0,398,0.0010000000000000009
910999,7995,2027,127309,-2448,-2631,128092,67,19236,274,0,399,0.0010000000000000009
911999,7361,-3941,126329,1530,-4394,128222,70,19234,287,0,400,0.0010000000000000009
912999,9805,-1680,127316,1535,1667,125172,68,19234,287,0,401,0.0010000000000000009
913999,11187,4150,128322,432,2821,125267,66,19238,279,0,402,0.0010000000000000009
914999,9850,2583,127821,-1457,526,126664,66,19236,270,0,403,0.0010000000000000009
916000,8375,445,127687,-804,-1607,128165,69,19232,283,0,404,0.0010009999999999186
917001,6294,-260,127731,378,-1339,127675,74,19236,303,0,405,0.0010010000000000296
917999,7201,-372,127573,-2681,-659,127145,82,19233,336,1,406,0.0009980000000000544
919000,7266,655,127732,198,465,126028,59,19233,336,1,407,0.0010009999999999186
919999,12574,1902,127602,2328,1134,126468,67,19234,242,1,408,0.0009990000000000832
920999,9140,-458,127051,1233,-1956,127420,67,19238,274,1,409,0.0010000000000000009
921999,6134,-885,127704,-3992,-1292,127342,71,19235,291,1,410,0.0010000000000000009
922999,6831,1149,128482,-2719,1582,127281,71,19232,291,1,411,0.0009999999999998899
923999,8556,3502,128560,124,3962,125660,67,19234,274,1,412,0.0010000000000000009
924999,8984,2276,127489,-64,-1850,127357,68,19234,274,1,413,0.0010000000000000009
925999,8193,-3564,127000,-50,-4580,127667,75,19235,279,1,414,0.0010000000000000009
926999,7897,-1376,128036,-740,-1933,127479,75,19232,307,1,415,0.0010000000000000009
927999,7870,1354,128399,-1693,2476,126927,84,19229,344,0,416,0.0010000000000000009
928999,7862,5680,128893,-1173,5672,125370,55,19240,225,0,417,0.0010000000000000009
929999,10558,105,126523,316,-2772,128038,69,19231,283,0,418,0.0010000000000000009
930999,7690,-1757,127104,-537,-1888,126936,70,19231,287,0,419,0.0010000000000000009
931999,7283,-1199,127524,422,-1969,126984,70,19231,287,0,420,0.0010000000000000009
932999,6948,106,128209,-3621,1037,127601,69,19239,287,0,421,0.0010000000000000009
934000,9331,4510,127911,-3008,3145,125147,69,19234,283,0,422,0.0010010000000000296
934999,8738,1348,127643,3157,33,127370,68,19236,279,0,423,0.0009989999999999721
935999,8171,-795,126998,-459,-2863,127556,72,19233,295,0,424,0.0010000000000000009
936999,7993,-2853,127437,-4089,-2943,126907,77,19233,315,0,425,0.0010000000000000009
937999,7709,1388,128352,444,2335,126542,88,19232,315,1,426,0.0010000000000000009
938999,7107,4087,127948,-487,2308,125991,63,19239,360,1,427,0.0010000000000000009
939999,9520,2044,127367,-1294,336,126114,63,19235,258,1,428,0.0010000000000000009
940999,6729,-872,126908,-356,-2720,128022,68,19231,279,1,429,0.0010000000000000009
941999,8145,-2058,127731,646,-1865,126987,69,19234,283,1,430,0.0010000000000000009
942999,8911,2817,128653,-1099,2155,126123,65,19234,266,1,431,0.0010000000000000009
944000,10694,1543,127560,-790,574,126793,65,19231,266,1,432,0.0010010000000000296
945006,8739,2101,127212,324,906,126831,71,19239,266,1,433,0.0010060000000000624
946001,7652,-257,127054,389,-1848,127509,71,19233,291,1,434,0.0009949999999999681
947001,7495,-1107,127541,-1680,-1438,126510,78,19234,319,0,435,0.0010000000000000009
947999,6866,2390,128590,-3178,1916,126117,91,19243,373,0,436,0.0009979999999999434
948999,11023,3922,128633,458,2636,126549,67,19232,274,0,437,0.0010000000000000009
950009,10063,-317,127544,792,-2928,128179,71,19232,274,0,438,0.0010100000000000664
951002,6909,-2662,127526,-692,-2257,127301,71,19235,291,0,439,0.0009929999999999106
952001,7084,-394,127993,-2919,959,126818,71,19236,291,0,440,0.0009990000000000832
953001,7136,2934,128995,-1857,3215,126616,71,19237,291,0,441,0.0010000000000000009
953999,8476,2617,127752,-483,355,126520,73,19232,299,0,442,0.0009979999999999434
954999,7345,44,126073,-711,-5026,128426,75,19235,307,0,443,0.0010000000000000009
956002,7802,-3495,127921,594,2984,123169,81,19235,307,0,444,0.0010029999999999761
957001,8778,6117,127307,-3229,-364,129985,90,19233,332,0,445,0.0009990000000000832
957999,7803,-2095,128783,-4073,1714,125671,90,19229,369,1,446,0.0009979999999999434
958999,8863,4685,127068,3235,255,126017,52,19241,213,1,447,0.0010000000000000009
959999,10806,-465,127038,5916,-3433,129892,69,19233,283,1,448,0.0010000000000000009
960999,5288,-4852,127239,-11877,-7339,127932,76,19232,311,1,449,0.0010000000000000009
961999,11301,-3813,129803,3287,5337,127005,75,19232,311,1,450,0.0010000000000000009
962999,6126,8503,127437,4042,5283,125223,70,19228,307,1,451,0.0010000000000000009
963999,9251,2703,128461,-11157,1135,123927,70,19233,287,1,452,0.0010000000000000009
964999,6157,558,126033,4523,-3096,129099,69,19230,283,1,453,0.0010000000000000009
966000,6931,-4590,127745,4611,-3435,130263,77,19232,315,1,454,0.0010010000000000296
966999,8809,1858,127625,-11915,3021,121410,87,19233,356,1,455,0.0009989999999999721
967999,8451,2864,128812,4291,1629,127956,73,19233,356,0,456,0.0010000000000000009
968999,10955,1316,126368,3423,-1318,128252,69,19240,299,0,457,0.0010000000000000009
969999,8816,-2109,127928,-8473,-3675,127341,69,19237,283,0,458,0.0010000000000000009
970999,6850,-3038,126643,1488,-2890,127922,72,19229,295,0,459,0.0010000000000000009
971999,7757,2264,128310,5489,4271,124067,72,19237,295,0,460,0.0010000000000000009
972999,6387,5890,128007,-9656,2960,127150,73,19236,299,0,461,0.0010000000000000009
973999,11833,-607,126534,1813,-2535,126618,72,19236,295,0,462,0.0010000000000000009
974999,8400,683,127394,7356,1888,125703,78,19232,295,0,463,0.0010000000000000009
975999,8929,2016,127991,-6008,-1745,126974,86,19230,319,0,464,0.0010000000000000009
976999,9209,-2799,127905,-1099,-3133,127730,86,19227,352,1,465,0.0010000000000000009
977999,6202,-105,129013,2567,-82,130706,92,19244,377,1,466,0.0010000000000000009
979012,11795,1782,127878,-5011,2331,122862,66,19231,270,1,467,0.0010130000000000416
980000,7565,3565,127564,1269,340,127124,75,19231,307,1,468,0.0009879999999999889
980999,7932,-4286,126199,2165,-5252,129947,76,19234,307,1,469,0.0009989999999999721
981999,7798,2430,128471,-4512,5018,122530,73,19236,311,1,470,0.0010000000000000009
982999,9201,6100,128403,-1250,3381,128287,73,19233,299,1,471,0.0010000000000000009
983999,10157,931,127209,4469,-1148,125415,73,19234,299,1,472,0.0010000000000000009
984999,7322,-3439,127931,-2512,-5583,130251,77,19234,315,1,473,0.0010000000000000009
985999,8294,-3315,127411,-2086,-2659,127809,87,19234,356,1,474,0.0010000000000000009
986999,7044,1141,128294,1460,994,125862,95,19229,356,0,475,0.0010000000000000009
987999,7867,4099,129019,-4428,4036,126728,68,19233,389,0,476,0.0010000000000000009
988999,10629,4439,127072,208,1649,124624,68,19240,279,0,477,0.0010000000000000009
989999,8658,-979,127332,860,-2564,128610,74,19235,303,0,478,0.0010000000000000009
990999,7976,-2303,126817,1259,-3523,127234,78,19233,319,0,479,0.0010000000000000009
991999,8082,-725,128676,-1318,137,126323,76,19235,311,0,480,0.0010000000000000009
992999,9496,4433,128361,-2354,3587,126724,75,19235,311,0,481,0.0010000000000000009
993999,8351,1497,126921,-137,-1427,127597,75,19231,307,0,482,0.0010000000000000009
994999,8352,-1974,127711,591,-2384,127527,75,19231,307,0,483,0.0010000000000000009
995999,7806,1382,127250,-859,941,125242,80,19231,328,0,484,0.0010000000000000009
996999,8087,-730,127888,-2077,-590,128884,88,19234,360,0,485,0.0010000000000000009
997999,8411,2116,128718,-1268,4576,123905,100,19243,410,1,486,0.0010000000000000009
998999,8594,4467,126901,1372,-479,126844,65,19243,410,1,487,0.0010000000000000009
999999,10822,-1419,127093,2502,-2576,128157,72,19240,266,1,488,0.0010000000000000009
1000999,8377,-1869,126822,512,-4057,127895,72,19231,295,1,489,0.0010000000000000009
1001999,9217,-2333,128268,157,2588,126210,72,19232,295,1,490,0.0009999999999998899
1003001,7644,6728,129440,-2659,5227,124843,68,19237,279,1,491,0.0010020000000001694
1004001,10417,2039,126720,2001,-4649,129855,72,19232,295,1,492,0.0009999999999998899
1005001,8263,-3368,126918,993,-1418,126834,75,19232,295,1,493,0.001000000000000112
1006000,8827,880,126730,-491,682,125015,83,19231,307,1,494,0.0009989999999999721
1006999,9044,2722,127398,-578,2890,125067,83,19228,340,0,495,0.0009989999999999721
1008002,7956,3054,127555,-109,-834,128489,77,19234,315,0,496,0.0010030000000000872
1009001,10732,-2199,127356,278,-1764,127438,68,19236,279,0,497,0.0009989999999999721
1010001,6818,200,127955,-787,-853,126692,75,19231,307,0,498,0.0009999999999998899
1011001,7237,-1650,127430,-179,-2643,128122,75,19231,307,0,499,0.001000000000000112
1011999,7612,-107,127866,-2559,607,126765,74,19242,307,0,500,0.0009979999999998324
1012999,10714,2634,127834,517,3695,125050,74,19238,303,0,501,0.001000000000000112
1013999,9230,4329,127381,1228,1676,124896,73,19232,299,0,502,0.0009999999999998899
1014999,8523,-748,127058,-1721,-4444,129203,74,19238,303,0,503,0.001000000000000112
1016001,7622,-3707,128364,-905,-1459,128226,81,19228,332,0,504,0.0010019999999999474
1017002,6633,2031,128600,-2255,2041,126776,92,19228,377,1,505,0.0010010000000000296
1017999,8984,2766,128270,526,2375,125621,63,19241,377,1,506,0.0009969999999999146
1019000,10363,591,127182,1212,-2837,128208,71,19234,258,1,507,0.0010010000000000296
1020002,8343,-4150,126608,-676,-4619,127863,71,19235,291,1,508,0.0010019999999999474
1020999,6951,64,128145,-2022,1795,125842,73,19232,299,1,509,0.0009970000000001367
1021999,6952,3469,128505,-2840,2789,127159,69,19236,283,1,510,0.0009999999999998899
1022999,9331,4450,127780,-545,3023,125149,68,19236,279,1,511,0.001000000000000112
1024002,8128,1479,127563,-121,-1267,128015,70,19234,279,1,512,0.0010029999999998651
1025000,9372,-3786,126660,1005,-5182,127830,78,19235,287,1,513,0.0009980000000000544
1025999,8189,-2871,127860,-267,-2436,127441,78,19233,319,1,514,0.0009989999999999721
1026999,7734,1060,129070,-3782,4120,126459,89,19234,365,0,515,0.001000000000000112
1027999,6052,4419,128466,-2055,3980,125224,60,19236,246,0,516,0.0009999999999998899
1028999,9006,2055,128291,1395,15,128889,65,19236,266,0,517,0.001000000000000112
1030002,7164,-4072,126413,-1261,-4775,126825,66,19234,266,0,518,0.0010029999999998651
1030999,8370,-2615,127498,1198,-1381,127420,69,19237,270,0,519,0.0009970000000001367
1032001,10466,3924,128309,295,3847,124107,69,19235,283,0,520,0.0010019999999999474
1032999,9927,700,127965,58,-627,128267,67,19235,274,0,521,0.0009980000000000544
1033999,7849,1617,127805,-2495,448,126552,69,19240,283,0,522,0.0009999999999998899
1034999,6742,342,127570,-1071,-1092,127178,72,19234,295,0,523,0.001000000000000112
1036002,7007,-245,127922,29,81,126926,81,19234,295,1,524,0.0010029999999998651
1036999,7394,825,127014,-2356,-1618,127628,57,19236,332,1,525,0.0009970000000001367
1037999,12020,-1061,128128,908,168,126735,57,19233,233,1,526,0.0009999999999998899
1038999,8770,2102,127322,753,759,126744,70,19237,287,1,527,0.001000000000000112
1039999,6238,-418,127287,-1142,-1798,127314,70,19234,287,1,528,0.0009999999999998899
1040999,6662,1369,128489,-4598,1242,127518,69,19236,283,1,529,0.001000000000000112
1041999,7633,2287,127744,-728,1067,125959,67,19236,283,1,530,0.0009999999999998899
1043001,9048,2687,127675,-508,1642,125499,69,19236,274,1,531,0.0010019999999999474
1044012,8304,-1528,127350,1038,-4876,129339,69,19238,283,1,532,0.0010110000000000952
1044999,8003,-3499,127543,-1219,-1227,127289,75,19234,307,1,533,0.0009870000000000712
1045999,7444,1881,128724,-3386,3424,126346,82,19231,336,0,534,0.0009999999999998899
1046999,6584,5013,128905,-2106,4058,125535,51,19240,209,0,535,0.001000000000000112
1047999,9683,2917,127035,-618,-2877,127650,68,19240,209,0,536,0.0009999999999998899
1048999,7002,-3335,127179,-1423,-3851,128100,74,19232,279,0,537,0.001000000000000112
1049999,8623,-2440,127074,846,-521,126257,74,19239,303,0,538,0.0009999999999998899
1050999,7517,1917,128412,-2894,2791,125741,70,19234,287,0,539,0.001000000000000112
1052003,8980,4759,128289,-2343,2214,126342,68,19235,279,0,540,0.0010040000000000049
1053001,8203,129,126984,1001,-1761,127736,66,19235,270,0,541,0.0009979999999998324
1053999,7920,-652,127313,-740,-1687,126781,72,19235,270,0,542,0.0009980000000000544
1054999,8192,-880,127367,-1440,-1029,126466,82,19234,295,0,543,0.001000000000000112
1055999,7652,932,128301,-2190,2447,125710,82,19233,336,1,544,0.0009999999999998899
1056999,6944,3407,128257,-231,667,127286,77,19240,315,1,545,0.001000000000000112
1057999,9205,871,127235,-3,-743,126969,63,19238,258,1,546,0.0009999999999998899
1058999,7291,-439,127370,-795,-1899,127244,66,19230,270,1,547,0.001000000000000112
1059999,7527,260,127488,-1267,-1504,127277,65,19230,270,1,548,0.0009999999999998899
1061000,9210,86,128499,588,1956,126127,64,19237,266,1,549,0.0010010000000000296
1061999,10581,3409,127970,147,2615,126216,64,19234,262,1,550,0.0009989999999999721
1063001,8789,-429,126865,-142,-1348,126864,66,19233,270,1,551,0.0010019999999999474
1063999,7391,205,128006,-91,117,126978,70,19233,287,1,552,0.0009980000000000544
1064999,8092,-169,127206,-1359,-1192,127599,78,19232,319,1,553,0.001000000000000112
1065999,6796,661,128644,-1197,1629,126478,70,19232,287,0,554,0.0009999999999998899
1066999,9517,3578,128593,-1452,1054,127495,67,19237,287,0,555,0.001000000000000112
1067999,10704,-858,127328,481,-1532,126411,73,19233,274,0,556,0.0009999999999998899
1068999,7552,974,128026,801,-904,127349,73,19232,299,0,557,0.001000000000000112
1069999,7489,-1361,127221,-2057,-2507,128043,73,19234,299,0,558,0.0009999999999998899
1070999,6224,1262,128891,-2774,2389,126330,71,19237,291,0,559,0.001000000000000112
1072000,8806,3829,127869,-652,2026,126948,68,19237,279,0,560,0.0010009999999998076
1072999,8141,1251,127286,-440,399,125823,73,19238,279,0,561,0.0009990000000001942
1073999,7456,-830,128075,-701,-2837,128569,82,19232,299,0,562,0.0009999999999998899
1074999,7067,-2001,127429,-3688,-2048,128109,82,19228,336,0,563,0.001000000000000112
1075999,8883,-2081,127365,1197,-1929,126082,91,19236,373,1,564,0.0009999999999998899
1076999,7101,7074,128371,2636,8957,122852,59,19239,242,1,565,0.001000000000000112
1078004,13260,2015,126688,-3960,-2842,129364,69,19239,283,1,566,0.0010049999999999226
1079000,8627,-2761,127375,5154,-2034,127427,73,19236,283,1,567,0.0009959999999999969
1080001,6875,-1260,128926,-3180,-1319,126493,72,19232,299,1,568,0.0010010000000000296
1081001,9057,2345,127431,-3917,190,127710,72,19238,295,1,569,0.0009999999999998899
1081999,7475,-4992,127111,4461,-5734,130101,70,19235,287,1,570,0.0009980000000000544
1082999,8456,4047,126149,-2284,5224,123827,72,19233,295,1,571,0.001000000000000112
1083999,7146,8576,127417,-6550,7612,120695,78,19232,319,1,572,0.0009999999999998899
1084999,10294,1229,126521,2312,-3791,129646,90,19232,319,1,573,0.001000000000000112
1085999,9644,-7650,127969,5667,-5880,126688,63,19231,369,0,574,0.0009999999999998899
1086999,7692,2373,128076,-5508,2504,126378,63,19239,258,0,575,0.001000000000000112
1087999,10690,-334,127852,-3065,-1596,126853,70,19236,287,0,576,0.0009999999999998899
1088999,7808,-2335,126556,7785,-3547,129450,72,19236,295,0,577,0.001000000000000112
1089999,7047,1536,127860,-2925,2399,122379,74,19235,303,0,578,0.0009999999999998899
1090999,5921,6003,126621,-8906,895,126044,72,19235,303,0,579,0.001000000000000112
1091999,10889,644,127459,4655,563,127770,74,19234,295,0,580,0.0009999999999998899
1092999,11024,1836,127763,4879,1421,125736,74,19235,303,0,581,0.001000000000000112
1093999,8334,-958,127192,-2517,-4650,130292,79,19237,324,0,582,0.0009999999999998899
1094999,7136,-4760,126852,-371,-3578,128398,85,19228,348,1,583,0.001000000000000112
1095999,8063,988,128599,-302,3999,124884,69,19240,283,1,584,0.0009999999999998899
1096999,11367,9025,128982,-910,5883,124652,69,19240,283,1,585,0.001000000000000112
1097999,8611,2128,126634,-1329,-6437,128711,77,19233,283,1,586,0.0009999999999998899
1098999,7525,-7000,127080,1132,-4333,129261,77,19236,315,1,587,0.001000000000000112
1099999,7813,1928,129476,598,5399,125211,77,19233,315,1,588,0.0009999999999998899
1100999,8325,5792,127669,-3019,1080,127188,73,19235,299,1,589,0.001000000000000112
1101999,9588,-524,127719,-1013,-1071,127181,73,19235,299,1,590,0.0009999999999998899
1102999,8456,617,127676,2117,508,125951,77,19235,299,1,591,0.0009999999999998899
1103999,8906,912,127102,-312,-2012,127368,88,19235,315,1,592,0.001000000000000112
1104999,6734,-2767,128106,-4251,-3621,128647,88,19232,360,0,593,0.0009999999999998899
1105999,6989,-66,129062,-1365,2030,127750,98,19239,401,0,594,0.001000000000000112
1106999,11046,4546,128364,1596,4149,125242,69,19236,283,0,595,0.0009999999999998899
1107999,8427,2925,127293,134,-1753,127590,77,19231,315,0,596,0.001000000000000112
1108999,7397,-5178,125344,-69,-6388,128268,76,19231,315,0,597,0.0009999999999998899
1109999,8336,659,128639,-2313,5870,122755,74,19235,311,0,598,0.001000000000000112
1110999,9869,7805,128202,-1281,2957,126987,74,19232,303,0,599,0.0009999999999998899
1111999,9533,-686,127288,1254,-3973,128328,76,19236,311,0,600,0.001000000000000112
1112999,6915,-2675,128350,-1276,-2409,128357,78,19237,319,0,601,0.0009999999999998899
1114000,7079,-1022,127341,-1961,-1032,126893,84,19232,344,0,602,0.0010010000000000296
1114999,8022,868,127815,-552,261,126771,89,19232,365,0,603,0.0009989999999999721
1116000,8640,1194,127871,-1543,1228,127236,86,19232,365,1,604,0.0010010000000000296
1116999,7797,4104,127260,-39,4871,122195,63,19240,352,1,605,0.0009989999999999721
1117999,10878,3845,127173,2015,-578,127421,63,19234,258,1,606,0.001000000000000112
1119000,7722,-5529,126301,86,-7842,130704,71,19234,291,1,607,0.0010010000000000296
1119999,8347,-4002,128429,-979,-702,126938,73,19231,299,1,608,0.0009989999999999721
1120999,7597,6026,129201,-1875,5872,124964,70,19231,287,1,609,0.0009999999999998899
1121999,10143,3720,126911,123,-195,126889,68,19240,287,1,610,0.001000000000000112
1122999,9377,-3567,126696,832,-3834,128765,73,19241,279,1,611,0.0009999999999998899
1123999,8409,1032,127215,56,1725,124258,73,19232,299,1,612,0.001000000000000112
1124999,8474,3463,127343,-1234,1504,125456,80,19233,328,0,613,0.0009999999999998899
1125999,7086,52,128088,-2144,-1918,129225,69,19241,283,0,614,0.001000000000000112
1126999,10993,-970,127967,1270,-289,127828,72,19236,295,0,615,0.0009999999999998899
1128000,7651,381,128060,-792,866,125761,75,19236,295,0,616,0.0010010000000000296
1128999,6876,438,126435,-414,-1454,126554,71,19235,307,0,617,0.0009989999999999721
1130000,8050,-4294,128204,-1937,-3013,129117,71,19233,291,0,618,0.0010010000000000296
1130999,9486,5823,128331,-1066,6377,124029,69,19236,283,0,619,0.0009989999999999721
1131999,8953,2919,127095,109,240,126013,72,19237,295,0,620,0.001000000000000112
1132999,7305,-1647,127708,-527,-2905,130067,80,19236,328,0,621,0.0009999999999998899
1133999,7397,-4438,127656,-1149,-4944,127725,85,19236,328,0,622,0.001000000000000112
1134999,8031,3036,128493,-832,3664,124201,71,19230,348,1,623,0.0009999999999998899
1135999,8397,4822,128278,-1322,2972,127890,71,19244,291,1,624,0.001000000000000112
1136999,11212,-1557,127147,1084,-2112,126157,66,19237,270,1,625,0.0009999999999998899
1137999,7218,-326,127211,834,-3688,128747,73,19240,299,1,626,0.001000000000000112
1139000,6251,-2561,127741,-1933,416,126845,74,19239,303,1,627,0.0010010000000000296
1139999,5955,2469,128534,-4155,1486,128355,69,19239,303,1,628,0.0009989999999999721
1140999,9463,1936,127508,-1203,3063,125026,68,19238,283,1,629,0.0009999999999998899
1141999,9393,5394,127646,1257,2324,124665,68,19234,279,1,630,0.001000000000000112
1142999,9405,-2015,126393,-52,-7738,130360,71,19234,291,1,631,0.0009999999999998899
1143999,8795,-5378,127836,-1555,-1133,126251,80,19228,328,1,632,0.001000000000000112
1144999,7171,2168,129016,-2342,3407,127117,89,19230,365,0,633,0.0009999999999998899
1145999,5741,4874,128639,-2153,3291,124892,59,19230,365,0,634,0.001000000000000112
1147001,8571,2672,127565,159,-4014,129881,68,19237,242,0,635,0.0010019999999999474
1148000,7958,-5336,126634,820,-2684,127183,68,19231,279,0,636,0.0009989999999999721
1149000,9718,1490,126929,1591,1996,123877,68,19234,279,0,637,0.001000000000000112
1149999,10263,2561,128224,-264,1009,127280,68,19234,279,0,638,0.0009989999999999721
1150999,10275,1251,127914,-1381,838,126205,68,19241,279,0,639,0.0009999999999998899
1152001,8571,1145,127690,270,-1517,128328,70,19241,279,0,640,0.0010020000000001694
1153000,6574,536,127667,-515,96,126421,72,19239,287,0,641,0.0009989999999999721
1153999,6807,-825,127010,-2512,-3027,128477,72,19232,295,1,642,0.0009989999999999721
1154999,7862,-668,128067,-1104,1146,125969,81,19239,332,1,643,0.0009999999999998899
1155999,13350,4037,128350,4241,3055,125279,61,19232,250,1,644,0.001000000000000112
1156999,9195,105,127276,-687,-2512,127565,70,19240,287,1,645,0.0009999999999998899
1157999,6382,-1366,127858,-2620,-2791,127702,71,19240,291,1,646,0.001000000000000112
1158999,6318,-1096,128165,-2104,944,128089,67,19238,291,1,647,0.0009999999999998899
1159999,8423,4733,128305,-1062,6142,124103,63,19237,274,1,648,0.001000000000000112
1160999,9014,1225,127574,-482,-1018,127100,63,19238,258,1,649,0.0009999999999998899
1161999,8573,-2618,127147,-315,-2057,127316,69,19237,283,1,650,0.001000000000000112
1162999,8816,-3305,127764,959,-3564,127711,77,19230,315,1,651,0.0009999999999998899
1163999,8101,1704,128974,-2105,2666,127454,87,19230,356,0,652,0.001000000000000112
1164999,6925,3078,128228,-2590,2105,126210,63,19236,356,0,653,0.0009999999999998899
1166001,9507,3218,128003,1006,878,126412,70,19235,258,0,654,0.0010019999999999474
1166999,7516,293,127255,-62,-1701,127378,70,19236,287,0,655,0.0009980000000000544
1167999,7964,-3258,126500,-79,-4271,127198,69,19234,283,0,656,0.001000000000000112
1168999,7071,221,128546,-1332,726,127182,69,19234,283,0,657,0.0009999999999998899
1169999,9059,4436,128209,-3851,4285,125202,71,19234,291,0,658,0.001000000000000112
1171001,9465,2677,127793,1440,310,126962,70,19234,291,0,659,0.0010019999999999474
1171999,7462,-1519,127373,1050,-3677,128782,76,19236,287,0,660,0.0009980000000000544
1173000,8344,-3070,127211,-3119,-2516,126727,76,19234,311,0,661,0.0010010000000000296
1173999,7379,1950,128421,-1606,1921,125792,80,19231,328,1,662,0.0009989999999999721
1174999,7407,4550,127919,-1317,3166,126126,65,19239,266,1,663,0.0009999999999998899
1175999,9943,1045,127347,472,-367,126463,62,19237,254,1,664,0.001000000000000112
1177001,7829,370,127485,-3018,-983,127378,68,19237,254,1,665,0.0010019999999999474
1177999,7556,-2286,127315,2412,-3384,127704,68,19234,279,1,666,0.0009980000000000544
1178999,8832,485,128558,-1057,760,126871,68,19238,279,1,667,0.0009999999999998899
1179999,10049,2658,127768,-2349,2070,125939,65,19238,266,1,668,0.001000000000000112
1180999,9193,2709,126945,1601,1217,126791,65,19233,266,1,669,0.0009999999999998899
1182001,8183,-848,126916,304,-1771,127027,72,19237,295,1,670,0.0010019999999999474
1183001,7288,-74,127223,-2476,-451,126213,81,19237,295,1,671,0.001000000000000112
1183999,7134,1873,128149,-1152,741,127412,65,19232,332,0,672,0.0009980000000000544
1184999,8857,2061,128335,88,1501,126240,65,19235,266,0,673,0.0009999999999998899
1186000,10419,736,127702,547,-1648,127667,69,19234,283,0,674,0.0010010000000000296
1187001,7499,-831,127274,-626,-1815,127082,70,19233,287,0,675,0.0010010000000000296
1187999,7181,-364,127736,-1616,-751,127685,73,19236,299,0,676,0.0009980000000000544
1188999,6329,502,127357,-2673,-196,127285,72,19236,299,0,677,0.0009999999999998899
1189999,9084,1362,127526,432,3936,123134,73,19233,295,0,678,0.001000000000000112
1190999,8562,5135,127008,409,-443,128673,73,19235,299,0,679,0.0009999999999998899
1191999,8100,-3131,127205,-3168,-3194,126922,75,19231,307,0,680,0.001000000000000112
1192999,7926,1912,128605,-2737,1796,126206,84,19235,344,0,681,0.0009999999999998899
1193999,6690,399,128744,-533,-730,128965,92,19232,377,1,682,0.001000000000000112
1194999,5388,265,127488,-4110,-1904,126386,64,19232,377,1,683,0.0009999999999998899
1195999,11464,-6241,126458,6919,-2134,126956,71,19239,262,1,684,0.001000000000000112
1196999,8379,6083,128018,-1447,7855,123605,71,19235,291,1,685,0.0009999999999998899
1197999,10695,2100,126734,-5623,-4279,128826,73,19231,299,1,686,0.001000000000000112
1199000,7703,566,129482,2355,3663,126261,73,19236,299,1,687,0.0010009999999998076
1200000,9258,2085,128414,344,-3385,128828,69,19235,283,1,688,0.001000000000000112
1200999,6454,-4295,126228,-4188,-5107,128202,72,19235,295,1,689,0.0009989999999999721
1202000,5604,-3191,127670,2573,-2047,128237,80,19237,295,1,690,0.0010010000000000296
1202999,8752,3231,126556,-4052,6460,122310,90,19235,328,1,691,0.0009989999999999721
1203999,7484,9959,129132,-6896,9367,122006,90,19232,369,0,692,0.001000000000000112
1205001,11042,2348,126523,9218,-7086,131867,54,19239,221,0,693,0.0010019999999999474
1206000,9403,-9152,127394,-346,-5315,127927,70,19234,287,0,694,0.0009989999999999721
1206999,7611,1011,128630,-9440,-1598,127145,74,19234,303,0,695,0.0009989999999999721
1208000,8103,-2675,127531,9906,-1826,128410,74,19235,303,0,696,0.0010010000000000296
1208999,6698,2395,127776,-2613,3154,125769,71,19237,303,0,697,0.0009989999999999721
1210000,8571,6066,127311,-8575,5490,123505,71,19231,291,0,698,0.0010010000000000296
1210999,8786,3521,126308,2213,315,125558,73,19238,299,0,699,0.0009989999999999721
1211999,11245,-333,128664,7888,-1139,128756,77,19230,315,0,700,0.001000000000000112
1212999,7972,-2237,127665,-5568,-4680,128309,86,19230,352,0,701,0.0009999999999998899
1213999,8300,-2017,129013,-2983,-841,128340,69,19232,352,1,702,0.001000000000000112
1214999,8734,1010,127534,3804,-1488,128666,70,19237,283,1,703,0.0009999999999998899
1216000,11132,982,127857,96,3057,123778,70,19231,287,1,704,0.0010010000000000296
1217000,6644,4679,126904,-4050,1584,125825,77,19231,315,1,705,0.0009999999999998899
1217999,6807,-1503,127969,-1741,-1972,128013,74,19237,303,1,706,0.0009990000000001942
1219000,8537,2230,128656,467,2163,127304,72,19237,295,1,707,0.0010009999999998076
1219999,10176,2262,127941,1353,1073,126572,75,19238,295,1,708,0.0009990000000001942
1220999,8118,936,126640,-171,-1680,126565,78,19236,307,1,709,0.0009999999999998899
1221999,7585,-6109,127113,-1892,-6548,131008,78,19232,319,1,710,0.0009999999999998899
1222999,9233,738,127915,-964,2674,124223,89,19231,365,0,711,0.001000000000000112
1223999,7231,6789,128763,1230,5138,125377,98,19238,401,0,712,0.0009999999999998899
1224999,10277,1399,127111,-6219,-304,126261,69,19234,283,0,713,0.001000000000000112
1226002,9205,-2360,127623,1229,-4513,129804,77,19234,283,0,714,0.0010030000000000872
1227001,7321,-1773,126765,4567,-2818,124433,78,19232,315,0,715,0.0009989999999999721
1227999,8232,3415,127740,-2160,2996,126007,78,19235,319,0,716,0.0009979999999998324
1228999,7021,2579,126822,-4902,1018,126257,77,19236,315,0,717,0.001000000000000112
1229999,11967,1560,127929,2018,2169,125700,76,19233,311,0,718,0.0009999999999998899
1231002,8685,2291,127348,1812,-1150,127237,78,19232,319,0,719,0.0010030000000000872
1232001,6856,-1413,127351,-2945,-4638,127704,83,19232,319,0,720,0.0009989999999999721
1233001,6748,-4339,127764,-1773,-3051,130631,93,19234,340,0,721,0.001000000000000112
1233999,7955,1263,128678,-1052,5271,123432,93,19228,381,1,722,0.0009979999999998324
1234999,8794,5876,127461,-480,1491,125963,73,19242,299,1,723,0.001000000000000112
1235999,10701,454,126750,-979,-1149,126338,68,19233,279,1,724,0.0009999999999998899
1236999,9462,-930,126787,-1176,-2206,126989,73,19236,299,1,725,0.001000000000000112
1237999,9261,-1384,128016,2838,692,127728,72,19236,299,1,726,0.0009999999999998899
1238999,8137,3302,129066,-2053,931,127197,70,19232,295,1,727,0.001000000000000112
1239999,8639,-301,128165,-1761,-2401,128613,70,19237,287,1,728,0.0009999999999998899
1240999,8471,-613,127511,1092,683,126334,71,19234,291,1,729,0.001000000000000112
1241999,9778,1598,126952,2852,-659,126657,76,19230,311,1,730,0.0009999999999998899
1242999,8876,5,127030,-2506,1064,125255,87,19232,356,0,731,0.001000000000000112
1243999,7990,2792,128079,-2710,1404,126337,62,19232,356,0,732,0.0009999999999998899
1244999,11204,2058,128707,2845,827,127640,72,19239,254,0,733,0.001000000000000112
1246001,8762,-758,127978,-725,-3571,129186,72,19231,295,0,734,0.0010019999999999474
1247001,5927,-4062,127419,-152,-4814,128627,76,19233,311,0,735,0.001000000000000112
1248000,6966,-484,127931,-3250,1685,125446,71,19236,291,0,736,0.0009989999999999721
1248999,9901,4480,127985,143,4585,125057,73,19238,299,0,737,0.0009989999999999721
1250000,10149,4509,127425,1250,1510,125335,73,19238,299,0,738,0.0010010000000000296
1250999,8568,-734,127124,-1494,-3279,128354,81,19232,299,0,739,0.0009989999999999721
1251999,6763,-2383,128010,-1521,-2357,128195,86,19230,332,0,740,0.0009999999999998899
1252999,7187,-173,128468,-1042,-790,128725,86,19231,352,1,741,0.001000000000000112
1254001,7661,1661,128822,186,2477,126021,68,19237,279,1,742,0.0010019999999999474
1255001,11109,3480,127584,461,948,125507,67,19236,274,1,743,0.001000000000000112
1255999,8341,-1037,127047,0,-3162,127390,75,19236,307,1,744,0.0009979999999998324
1256999,6983,-2035,126777,-1364,-1422,127161,74,19237,307,1,745,0.001000000000000112
1257999,7033,1253,128203,-2745,1617,126911,70,19230,303,1,746,0.0009999999999998899
1258999,8246,4910,128712,-1786,4382,125297,70,19234,287,1,747,0.001000000000000112
1259999,8601,1904,127691,-622,-536,128032,67,19234,274,1,748,0.0009999999999998899
1260999,9225,-3871,126226,1618,-4556,128157,71,19234,291,1,749,0.001000000000000112
1261999,9159,-1617,126981,-887,93,126242,79,19234,324,1,750,0.0009999999999998899
1262999,7749,959,127013,-2710,1026,125174,89,19234,324,0,751,0.001000000000000112
1264000,7489,3745,128451,-3628,2951,126608,64,19237,365,0,752,0.0010010000000000296
1265000,8571,3739,128397,545,1734,126471,64,19239,262,0,753,0.0009999999999998899
1265999,7495,-2333,126852,-2176,-4606,128920,68,19232,279,0,754,0.0009989999999999721
1266999,7560,-2796,126585,1046,-3234,126894,68,19242,279,0,755,0.001000000000000112
1267999,10276,-694,127039,734,-61,126882,65,19239,266,0,756,0.0009999999999998899
1269001,10702,4957,128292,-138,5167,123829,66,19239,266,0,757,0.0010020000000001694
1269999,8802,4805,127757,-306,1797,126059,70,19237,270,0,758,0.0009979999999998324
1271001,7324,-2787,127436,-2671,-3602,129211,70,19233,287,0,759,0.0010020000000001694
1271999,6424,-1225,127687,493,-2193,127828,77,19231,315,1,760,0.0009979999999998324
1272999,7428,312,128113,-1513,284,127366,83,19239,340,1,761,0.001000000000000112
1273999,11391,3794,127639,-116,3009,126389,63,19233,258,1,762,0.0009999999999998899
1274999,9482,-551,127254,-638,-2470,128467,70,19233,258,1,763,0.001000000000000112
1275999,7864,-1265,126868,103,-1238,125394,71,19233,287,1,764,0.0009999999999998899
1277001,6229,1692,127988,-1722,923,127492,71,19233,291,1,765,0.0010020000000001694
1277999,7096,2582,128239,-4041,1925,125720,68,19236,279,1,766,0.0009979999999998324
1279008,8973,2308,127887,-465,-921,127966,67,19236,274,1,767,0.0010090000000000376
1280002,8196,-1501,127385,1141,-3416,127938,69,19231,283,1,768,0.0009939999999999394
1280999,7729,-2326,127197,336,-2860,126958,77,19231,283,1,769,0.0009970000000001367
1281999,6778,-886,127705,-2921,1546,127347,87,19230,315,0,770,0.0009999999999998899
1282999,8090,3997,128436,-645,4988,125213,87,19236,356,0,771,0.001000000000000112
1284001,10434,4833,128087,1693,380,127069,62,19237,254,0,772,0.0010019999999999474
1284999,7930,-1228,127057,-1669,-3394,127515,72,19234,295,0,773,0.0009980000000000544
1285999,6596,-3415,126793,-678,-4151,127899,74,19233,303,0,774,0.0009999999999998899
1286999,7586,-1361,127809,-587,1432,127217,69,19233,303,0,775,0.001000000000000112
1287999,8615,4137,128726,-2670,4037,124994,66,19232,283,0,776,0.0009999999999998899
1288999,8425,3472,127587,-1646,551,126236,66,19230,270,0,777,0.001000000000000112
1289999,7929,459,127337,1141,-1929,127655,69,19232,283,0,778,0.0009999999999998899
1290999,8259,-2796,127138,-1200,-4025,128236,74,19236,303,0,779,0.001000000000000112
1291999,7522,-1418,127485,-2182,591,125971,84,19230,344,1,780,0.0009999999999998899
1292999,6827,4139,128394,-2743,3993,125765,63,19230,344,1,781,0.001000000000000112
1293999,10273,1203,127476,1567,208,127196,64,19237,258,1,782,0.0009999999999998899
1294999,8410,580,127265,-1733,-219,127215,64,19235,262,1,783,0.001000000000000112
1295999,7284,-3376,126153,451,-4423,127569,65,19237,266,1,784,0.0009999999999998899
1296999,8790,-393,127594,-1550,3709,125569,68,19236,279,1,785,0.001000000000000112
1298028,9100,6507,128261,-1162,2387,125986,62,19235,254,1,786,0.0010289999999999466
1299001,9755,-1524,127370,2324,-2774,129078,65,19235,266,1,787,0.0009729999999998906
1300000,7660,-584,127117,-761,-703,125904,73,19234,266,1,788,0.0009990000000001942
1301002,7374,-899,126569,-1599,-1387,127267,81,19228,299,1,789,0.0010019999999999474
1301999,7794,2106,127580,-595,3310,125215,81,19231,332,0,790,0.0009969999999999146
1302999,8055,4055,128328,-620,1025,127282,60,19241,246,0,791,0.001000000000000112
1303999,10507,-749,127835,-502,-1405,126777,67,19239,274,0,792,0.0009999999999998899
1304999,6887,-187,127295,1565,-2188,127368,76,19239,311,0,793,0.001000000000000112
1305999,7398,-2053,127692,-2485,-2360,128083,69,19232,311,0,794,0.0009999999999998899
1306999,7481,1290,128072,-2354,1896,125948,70,19238,283,0,795,0.001000000000000112
1307999,8924,3866,128472,-1054,1774,127187,70,19234,287,0,796,0.0009999999999998899
1309001,8002,2096,127515,-484,1075,125210,75,19231,307,0,797,0.0010019999999999474
1310001,7458,-427,127547,-547,-3202,128677,79,19232,324,0,798,0.001000000000000112
1310999,8276,-6015,125666,24,-3654,127427,85,19228,348,0,799,0.0009980000000000544
1311999,7631,7589,128911,-1883,8524,123012,88,19228,348,1,800,0.0009999999999998899
1312999,8612,1161,127682,-2533,-3066,130645,61,19237,360,1,801,0.001000000000000112
1313999,11848,1991,127705,4410,2799,123632,61,19235,250,1,802,0.0009999999999998899
1314999,7994,1271,128184,4156,-3076,129333,72,19236,295,1,803,0.001000000000000112
1316001,6034,-8831,125828,-10041,-8649,129549,76,19233,311,1,804,0.0010019999999999474
1316999,9930,1315,129313,289,3550,126230,71,19237,291,1,805,0.0009980000000000544
1318000,8590,6158,128954,10655,4912,127179,70,19237,291,1,806,0.0010009999999998076
1318999,6625,6562,126191,-16557,5477,120363,72,19233,287,1,807,0.0009990000000001942
1319999,9292,-1569,127800,2163,-4792,130213,72,19238,295,1,808,0.0009999999999998899
1320999,8517,-5230,125578,11630,-4799,123803,81,19230,332,1,809,0.001000000000000112
1321999,9214,3593,128761,-12327,3502,126283,92,19238,377,0,810,0.0009999999999998899
1322999,6616,1025,128875,-279,-534,128122,64,19230,262,0,811,0.001000000000000112
1323999,11111,1003,126971,7032,443,127803,70,19230,262,0,812,0.0009999999999998899
1324999,7266,-185,128475,-5376,-1241,127215,73,19232,287,0,813,0.001000000000000112
1326000,7118,-2243,126196,-1348,968,124227,73,19235,299,0,814,0.0010009999999998076
1326999,8890,3474,127493,2683,3339,128405,70,19237,287,0,815,0.0009990000000001942
1327999,9129,2682,128395,-388,-1422,127403,72,19231,295,0,816,0.0009999999999998899
1328999,10479,383,126977,-4419,1753,123623,78,19233,319,0,817,0.001000000000000112
1330001,7734,2113,128001,4879,-2774,130789,80,19233,319,0,818,0.0010019999999999474
1330999,8736,-2061,127232,-4204,56,123851,89,19229,328,0,819,0.0009980000000000544
1332000,8758,2052,128190,-2717,-1295,130538,89,19228,365,1,820,0.0010009999999998076
1332999,8006,-724,128027,3314,1051,125920,58,19238,238,1,821,0.0009990000000001942
1333999,11111,3856,127913,-3239,1013,124449,70,19233,287,1,822,0.0009999999999998899
1334999,7394,-2236,127852,1221,-5386,130966,75,19235,307,1,823,0.001000000000000112
1335999,6869,-1152,126855,-814,2673,124528,76,19235,307,1,824,0.0009999999999998899
1336999,7557,4651,128366,-3965,3132,128038,75,19235,311,1,825,0.001000000000000112
1338024,10336,2795,127203,1054,3223,123168,73,19236,307,1,826,0.0010249999999998316
1339001,9061,3053,127670,3639,-2540,128227,73,19230,299,1,827,0.0009770000000000056
1339999,7772,-6124,127438,-3820,-7168,130242,79,19236,324,1,828,0.0009980000000000544
1340999,7633,-2594,127316,-2296,-234,125814,89,19229,365,1,829,0.0009999999999998899
1341999,7186,2476,128921,1569,2880,127942,78,19229,319,0,830,0.001000000000000112
1342999,9581,5058,128402,-3679,4088,123143,71,19235,319,0,831,0.0009999999999998899
1343999,9720,1133,127500,-2191,-3593,129165,78,19233,291,0,832,0.001000000000000112
1344999,8293,-3635,126736,5009,-2932,127077,78,19228,319,0,833,0.0009999999999998899
1345999,8500,895,126884,-2343,1238,125089,77,19228,315,0,834,0.001000000000000112
1346999,7380,2933,128620,-3513,2103,126950,75,19233,307,0,835,0.0009999999999998899
1347999,9314,1680,128275,825,-637,127354,76,19233,311,0,836,0.001000000000000112
1348999,7960,-1436,127452,304,-2066,128467,79,19232,311,0,837,0.0009999999999998899
1349999,6900,-587,127732,-2091,-1267,125991,85,19232,324,0,838,0.001000000000000112
1350999,8514,-580,127180,-548,-1144,127203,85,19232,348,0,839,0.0009999999999998899
1351999,8330,1792,128221,-1096,2378,126729,93,19233,381,1,840,0.001000000000000112
1352999,7906,3118,127843,-2925,1819,125181,66,19236,270,1,841,0.0009999999999998899
1353999,10811,2121,126787,3766,-234,126523,67,19236,274,1,842,0.001000000000000112
1354999,7770,-1467,127306,-492,-3830,128839,72,19232,274,1,843,0.0009999999999998899
1356000,8495,-3130,127045,-935,-2552,127216,70,19239,295,1,844,0.0010010000000000296
1357000,8222,2806,128734,-93,2962,126620,70,19228,287,1,845,0.001000000000000112
1358000,9742,3272,127870,-1368,1741,126316,69,19230,283,1,846,0.0009999999999998899
1359007,9637,1016,127340,645,-726,126731,68,19237,279,1,847,0.0010069999999999801
1359999,8292,-877,127272,1675,-485,128139,77,19234,315,1,848,0.000992000000000104
1360999,8408,-1299,126743,-805,-530,126269,87,19234,315,1,849,0.0009999999999998899
1362000,7719,1658,127544,-1629,1470,127107,56,19231,356,0,850,0.0010010000000000296
1362999,10376,1303,127102,-384,689,126552,56,19237,229,0,851,0.0009989999999999721
1363999,8774,350,127913,-1359,-776,127791,69,19235,283,0,852,0.001000000000000112
1364999,7241,-886,127817,-1355,-2095,127155,75,19236,307,0,853,0.0009999999999998899
1365999,7912,-1573,127334,275,-2013,128337,73,19233,299,0,854,0.001000000000000112
1366999,7172,2344,127846,-952,2166,126248,71,19233,299,0,855,0.0009999999999998899
1367999,9862,3963,127750,-2326,2667,126526,75,19231,291,0,856,0.001000000000000112
1368999,8696,-24,127287,2872,-1584,128850,75,19235,307,0,857,0.0009999999999998899
1370002,7676,-1923,127198,-646,-2846,126807,78,19232,319,0,858,0.0010030000000000872
1370999,6560,309,128459,-6739,29,127227,86,19227,352,1,859,0.0009969999999999146
1371999,7644,2548,128854,-935,1965,126719,59,19241,242,1,860,0.001000000000000112
1372999,10660,2221,127212,6176,-1033,126995,66,19241,242,1,861,0.0009999999999998899
1374000,7223,-1250,126971,-5929,-2757,126703,73,19236,270,1,862,0.0010010000000000296
1375000,8246,-1778,126503,-2215,-215,126708,73,19234,299,1,863,0.001000000000000112
1375999,8492,2216,128229,4078,2882,127025,72,19235,295,1,864,0.0009989999999999721
1376999,9360,3758,128780,-5639,1744,125669,68,19235,279,1,865,0.0009999999999998899
1377999,7648,678,127343,2530,-1494,128239,69,19236,283,1,866,0.001000000000000112
1378999,7143,-2171,127036,724,-3973,128481,74,19236,283,1,867,0.0009999999999998899
1379999,8827,-1753,126595,-4011,505,125154,81,19228,303,1,868,0.001000000000000112
1380999,7999,2553,127662,1068,2888,126144,81,19229,332,0,869,0.0009999999999998899
1381999,7579,3405,127893,-3267,1702,125892,89,19234,365,0,870,0.001000000000000112
1382999,9300,1299,127825,-1429,-411,127654,63,19241,258,0,871,0.0009999999999998899
1384000,8943,-1848,127402,1904,-3875,129112,67,19238,274,0,872,0.0010010000000000296
1384999,8195,-2328,126723,1543,-1327,125561,67,19238,274,0,873,0.0009989999999999721
1385999,8558,1104,127390,-2413,1937,126248,67,19235,274,0,874,0.001000000000000112
1386999,9548,2499,127961,243,745,126564,67,19233,274,0,875,0.0009999999999998899
1387999,9677,2116,127331,852,1557,125738,69,19234,283,0,876,0.001000000000000112
1388999,7993,1243,127463,-1621,291,126605,72,19240,295,0,877,0.0009999999999998899
1389999,7528,93,127335,-11,-1873,127265,76,19232,311,1,878,0.001000000000000112
1390999,7388,-641,127859,-1680,-1136,128852,69,19232,283,1,879,0.0009999999999998899
1391999,10854,903,127801,93,807,126463,64,19235,283,1,880,0.001000000000000112
1392999,10320,1179,127397,1479,439,126067,71,19231,262,1,881,0.0009999999999998899
1393999,6708,-1844,127217,-698,-2036,127862,71,19233,291,1,882,0.001000000000000112
1394999,6602,-26,127414,-3989,1069,126556,69,19237,283,1,883,0.0009999999999998899
1395999,7247,2316,128035,-1858,2362,126897,66,19235,270,1,884,0.001000000000000112
1397016,8883,4650,128180,1091,3113,125219,64,19235,262,1,885,0.0010170000000000456
1397999,8553,-608,127343,-1929,-4666,128366,70,19240,262,1,886,0.0009829999999999561
1398999,8562,-5163,127211,2632,-5045,129469,81,19232,287,1,887,0.0009999999999998899
1400002,7314,-569,127724,-1249,365,126847,81,19232,332,0,888,0.0010030000000000872
1400999,7616,3655,128283,-4939,4011,125115,90,19238,369,0,889,0.0009969999999999146
1401999,10233,5064,128287,129,2749,126236,64,19231,262,0,890,0.001000000000000112
1402999,9004,-379,127094,-424,-2750,128259,68,19235,279,0,891,0.0009999999999998899
1403999,6848,-2325,126727,841,-3242,126830,69,19235,279,0,892,0.001000000000000112
1404999,7324,-1000,127678,-1681,-964,127624,70,19235,283,0,893,0.0009999999999998899
1405999,8554,1868,128289,-2130,2214,126432,70,19236,287,0,894,0.001000000000000112
1406999,9338,3030,128291,-279,1610,126469,69,19239,283,0,895,0.0009999999999998899
1407999,7846,716,127437,577,-348,126594,70,19235,287,0,896,0.001000000000000112
1409000,7460,-1331,127325,-2640,-2731,126934,76,19236,311,0,897,0.0010010000000000296
1409999,7355,-1274,127549,-1551,-1846,127534,85,19236,311,1,898,0.0009989999999999721
1410999,7391,3151,128595,-1395,2714,125979,54,19230,348,1,899,0.0009999999999998899
1411999,9724,1249,127664,-762,87,126641,54,19238,221,1,900,0.001000000000000112
1413001,8419,308,127202,-1140,-679,126662,64,19235,262,1,901,0.0010019999999999474
1413999,7832,-668,127157,1176,-1729,127557,70,19240,287,1,902,0.0009980000000000544
1414999,8272,-148,127235,-1894,-302,125682,66,19238,270,1,903,0.0009999999999998899
1415999,8512,3660,128515,-2180,2661,126770,64,19238,270,1,904,0.001000000000000112
1416999,9630,864,127694,1785,-246,126432,66,19233,262,1,905,0.0009999999999998899
1418001,8576,13,127096,-59,-879,127064,66,19239,270,1,906,0.0010019999999999474
1418999,7167,-987,127185,-913,-2144,127334,72,19233,295,1,907,0.0009980000000000544
1419999,7386,1259,127211,-1383,2581,125326,83,19235,340,0,908,0.001000000000000112
1421003,7526,4071,128477,-2300,2401,126823,60,19242,246,0,909,0.0010040000000000049
1422000,10416,1131,128663,918,-1498,127058,71,19242,246,0,910,0.0009969999999999146
1422999,7203,-1266,127245,-368,-3889,128025,73,19236,291,0,911,0.0009989999999999721
1423999,7021,-2388,127858,-2127,-1163,127351,73,19236,299,0,912,0.001000000000000112
1424999,7541,1526,127877,-1497,2270,126112,72,19235,295,0,913,0.0009999999999998899
1425999,8981,2946,128418,-1196,3004,126930,70,19236,287,0,914,0.001000000000000112
1427001,7353,121,127730,-974,507,126188,69,19240,283,0,915,0.0010019999999999474
1428001,7016,142,127391,-834,-566,127486,75,19240,283,0,916,0.0009999999999998899
1428999,6959,-1429,127602,-3021,-1872,127959,85,19235,307,0,917,0.0009980000000000544
1430000,6101,2001,128717,-2505,798,127873,85,19229,348,1,918,0.0010010000000000296
1430999,8639,-2737,125944,4132,179,123892,86,19240,352,1,919,0.0009989999999999721
1431999,11230,8067,127427,989,6945,125134,67,19236,274,1,920,0.001000000000000112
1432999,9686,-387,127206,-1491,-7661,131005,73,19231,299,1,921,0.0009999999999998899
1433999,8686,-4433,126922,-258,-445,125235,72,19231,295,1,922,0.001000000000000112
1434999,6929,3286,129619,-2617,2536,128483,70,19235,295,1,923,0.0009999999999998899
