t_us,ax,ay,az,ax1,ay1,az1,shunt_raw,bus_raw,curr_raw,pg_rpm,seq,dt
0,8199,-1092,127632,5564,3403,125579,197,19220,807,0,65153,
1001,8094,7378,129022,-3905,6281,125101,206,19218,844,0,65154,0.001001
2001,8952,4755,128096,-6067,2306,125254,210,19218,844,0,65155,0.0009999999999999998
3002,7174,1023,126002,4412,-3212,126804,222,19219,860,0,65156,0.0010010000000000002
4000,9593,-5194,127010,1581,-6518,131281,222,19218,909,0,65157,0.0009980000000000002
5000,8812,-2803,127996,-2149,994,125138,234,19209,958,1,65158,0.001
6000,7465,6211,129520,-3256,3005,126940,184,19240,754,1,65159,0.001
7000,14849,-742,126532,4436,-2033,127693,165,19222,676,1,65160,0.0009999999999999992
8002,8160,-273,126228,3539,-305,125337,193,19222,676,1,65161,0.0010020000000000012
9000,5196,-700,126340,-6059,-2307,128124,205,19217,790,1,65162,0.0009979999999999989
10000,5189,3195,128038,-4925,6988,123721,205,19216,840,1,65163,0.0010000000000000009
11000,7746,7433,130133,-789,2077,130418,204,19219,836,1,65164,0.0009999999999999992
12000,13409,166,127775,3863,1829,123148,201,19216,823,1,65165,0.0010000000000000009
13001,5731,-815,127643,294,-8661,130758,218,19213,893,1,65166,0.0010009999999999984
14000,8743,-13314,125799,-4878,-10519,130421,241,19213,893,1,65167,0.0009989999999999999
15000,6472,4040,128280,2470,7687,123285,259,19212,987,0,65168,0.0010000000000000009
16001,6735,8958,129997,-4583,8984,126802,259,19239,1061,0,65169,0.0010009999999999984
17000,12952,6313,125615,1518,1808,122744,163,19217,668,0,65170,0.0009989999999999999
18000,6491,-6789,127012,2823,-9196,134563,185,19219,758,0,65171,0.0010000000000000009
19000,7434,-6559,125248,3304,-3014,123977,196,19216,803,0,65172,0.0010000000000000009
20000,4032,6616,128478,-5692,6574,125357,203,19216,831,0,65173,0.0010000000000000009
21000,12942,5518,129349,-7104,5364,125064,210,19221,831,0,65174,0.0009999999999999974
22001,9639,3251,126240,7813,-643,125908,210,19224,860,0,65175,0.0010010000000000019
23000,7682,-4711,127579,-1765,-6626,130480,219,19213,897,0,65176,0.0009989999999999999
24000,7089,-5703,126858,-3425,-6739,127060,230,19215,942,0,65177,0.0010000000000000009
25000,5068,-3235,128097,-4150,-1209,130339,242,19209,991,0,65178,0.0009999999999999974
26000,9311,10469,130245,-1536,10926,121833,215,19209,881,1,65179,0.0010000000000000009
27000,7118,4128,126875,3924,781,126296,158,19242,881,1,65180,0.0010000000000000009
28000,13597,-3444,125576,2525,-4851,127187,187,19222,647,1,65181,0.0009999999999999974
29000,8388,-4629,125877,299,-5326,127086,187,19217,766,1,65182,0.0010000000000000009
30000,9888,2281,128142,794,4878,125546,196,19221,803,1,65183,0.0010000000000000009
31000,5924,9083,130789,-2249,5840,126516,198,19222,811,1,65184,0.0010000000000000009
32000,9193,-2335,127999,-5067,-3783,127406,195,19222,799,1,65185,0.0010000000000000009
33001,8268,-382,127204,3215,-1021,127141,207,19215,799,1,65186,0.001000999999999995
34000,8229,-2674,126604,2999,-4172,126588,232,19209,848,1,65187,0.0009989999999999999
35000,10723,-1112,126553,-3176,-791,125840,232,19209,950,0,65188,0.0010000000000000009
36000,6481,2491,128738,-1955,1564,126745,131,19236,537,0,65189,0.0010000000000000009
37001,14846,4734,130746,2192,3207,124468,174,19216,713,0,65190,0.0010010000000000019
38000,4613,-10,127444,-1459,-7962,132008,190,19216,778,0,65191,0.0009989999999999999
39000,4273,-7238,126374,450,-2089,127395,192,19224,778,0,65192,0.0010000000000000009
40002,6943,3375,127902,-4250,4992,124306,191,19215,786,0,65193,0.001001999999999996
41000,12072,6367,128719,2056,6571,123338,191,19219,782,0,65194,0.0009979999999999989
42000,11455,3423,127429,1573,-5372,127960,203,19219,831,0,65195,0.0010000000000000009
43001,6547,-7784,126123,-3432,-7631,130756,221,19211,905,0,65196,0.0010010000000000019
44000,6785,-2592,128095,-2548,568,127955,240,19208,983,0,65197,0.0009989999999999999
45000,5720,1928,128289,-1896,2881,127584,214,19208,983,1,65198,0.0010000000000000009
46000,9838,6402,129479,1643,6336,123057,155,19240,876,1,65199,0.0010000000000000009
47000,14782,2071,126694,5031,-5321,128323,155,19227,635,1,65200,0.0010000000000000009
48000,7787,-5963,125762,627,-5920,126725,181,19229,741,1,65201,0.0010000000000000009
49001,5798,-2486,126522,-4375,338,128079,198,19221,811,1,65202,0.001000999999999995
50000,4357,6088,129278,-6151,9499,124622,197,19222,807,1,65203,0.0009989999999999999
51000,9794,12993,130004,-891,6568,125013,198,19222,807,1,65204,0.0010000000000000009
52000,9277,-982,127312,208,-10574,131212,202,19220,811,1,65205,0.0010000000000000009
53000,10160,-10398,126267,4819,-9903,128447,202,19213,827,1,65206,0.0010000000000000009
54000,8974,-5537,127288,-1668,-3525,127201,220,19207,901,1,65207,0.0010000000000000009
55000,8078,4054,128361,-6515,8973,122782,240,19204,983,0,65208,0.0010000000000000009
56000,4717,10339,129730,-484,5577,127234,70,19227,287,0,65209,0.000999999999999994
57000,11418,3402,125463,3311,686,126419,168,19227,287,0,65210,0.0010000000000000009
58000,6640,-1506,126168,1334,-4665,127429,184,19221,688,0,65211,0.0010000000000000009
59000,8009,-7084,125311,-17,-6086,128044,184,19222,754,0,65212,0.0010000000000000009
60000,12142,2314,128490,1793,5397,124163,191,19213,782,0,65213,0.0010000000000000009
61000,12190,5570,129449,42,4309,126446,190,19215,778,0,65214,0.0010000000000000009
62000,8983,3456,127021,-3396,90,124919,200,19222,819,0,65215,0.0010000000000000009
63003,4742,-3593,126950,-394,-6838,131574,211,19222,819,0,65216,0.0010030000000000039
64002,6972,-5349,127067,-2262,-2920,127640,233,19209,864,1,65217,0.0009989999999999999
65002,7114,4478,128201,-1188,3539,124753,233,19232,954,1,65218,0.000999999999999987
66001,16003,3288,128325,3142,3511,126260,146,19227,598,1,65219,0.0009989999999999999
67001,10368,-534,126792,926,-3440,126666,182,19218,745,1,65220,0.0010000000000000009
68000,4134,-3181,126474,261,-3879,129153,191,19220,782,1,65221,0.0009989999999999999
69000,4790,2287,127693,-6513,4073,125326,189,19220,774,1,65222,0.0010000000000000009
70005,6681,7694,129446,-4490,6295,125347,192,19220,774,1,65223,0.0010050000000000059
71003,11610,4201,128694,825,1418,126140,201,19220,786,1,65224,0.0009979999999999989
72000,8922,-5684,126758,4503,-8646,129699,201,19215,823,1,65225,0.0009969999999999979
73000,7359,-9847,126894,-1896,-9795,131127,221,19217,905,1,65226,0.0010000000000000009
74000,6008,-533,128343,-4624,1558,126596,240,19211,983,0,65227,0.0010000000000000009
75000,7066,9843,129895,-3983,10613,124358,74,19211,303,0,65228,0.0010000000000000009
76000,14224,9533,126569,6253,4469,124654,173,19225,303,0,65229,0.0010000000000000009
77000,5969,-3593,126313,-2704,-5802,128300,187,19222,709,0,65230,0.0010000000000000009
78000,6462,-8207,125557,329,-8008,128910,187,19218,766,0,65231,0.0010000000000000009
79001,5134,1892,128122,-165,2916,125350,194,19221,795,0,65232,0.0010010000000000019
80000,10249,9329,130437,-6508,8883,125014,198,19224,811,0,65233,0.0009989999999999999
81000,8905,2732,127160,-1709,292,127080,206,19224,844,0,65234,0.0010000000000000009
82000,8025,-4154,126701,3573,-6089,130455,215,19214,844,0,65235,0.000999999999999987
83002,8346,-6869,126487,28,-5613,126715,231,19216,881,0,65236,0.0010020000000000029
84000,5564,857,127665,-6367,6702,125049,231,19211,946,1,65237,0.0009979999999999989
85000,6818,9535,129372,-4557,3342,125861,227,19241,930,1,65238,0.0010000000000000009
86000,11327,3655,127770,4225,1435,126115,154,19223,631,1,65239,0.0010000000000000009
87001,9413,-1607,126444,871,-7074,128541,179,19220,733,1,65240,0.0010010000000000019
88000,6572,-5859,125208,-562,-2109,124680,195,19220,733,1,65241,0.0009989999999999999
89000,9651,3200,128544,-702,5180,127554,190,19217,799,1,65242,0.0010000000000000009
90000,9382,5270,130235,-1102,4596,125632,190,19221,778,1,65243,0.0010000000000000009
91000,9324,3369,127424,-2612,-3201,128014,190,19222,778,1,65244,0.0010000000000000009
92000,6601,-4288,126566,101,-3979,127676,202,19214,827,1,65245,0.0010000000000000009
93002,7775,-2532,126941,3397,-2875,127412,226,19206,926,1,65246,0.0010020000000000029
94000,6884,-1081,127283,-4993,946,126965,246,19206,926,0,65247,0.0009979999999999989
95000,9220,7089,128989,-3135,7762,124061,166,19242,1008,0,65248,0.0010000000000000009
96000,14569,1724,128273,8096,-1409,128384,166,19220,680,0,65249,0.0010000000000000009
97000,3925,-199,126700,-3295,-2001,126769,188,19213,770,0,65250,0.000999999999999987
98000,5148,-2092,127220,-7871,-3609,129180,193,19220,790,0,65251,0.0010000000000000009
99000,4140,315,127840,-439,5098,125612,194,19220,795,0,65252,0.0010000000000000009
100000,12368,9617,129584,1440,4131,124739,200,19220,795,0,65253,0.0010000000000000009
101000,8463,-745,127410,-2336,-3813,126807,217,19216,819,0,65254,0.0010000000000000009
102000,6415,-5655,127457,-1253,-8043,130851,217,19216,889,0,65255,0.0010000000000000009
103000,6784,-4405,128288,-2421,-2788,130591,235,19215,962,0,65256,0.0010000000000000009
104000,6150,1359,127920,-3288,4100,123340,247,19216,1012,1,65257,0.0010000000000000009
105000,6813,11254,129525,-1663,10206,122263,94,19227,385,1,65258,0.0010000000000000009
106000,16009,2130,125696,7910,-6271,129503,169,19227,385,1,65259,0.0010000000000000009
107000,10282,-6345,125847,3833,-3558,126925,192,19220,692,1,65260,0.0010000000000000009
108000,6307,278,127825,-5706,-928,127212,192,19220,786,1,65261,0.0010000000000000009
109000,6410,1526,128702,-1989,4446,126159,204,19220,836,1,65262,0.0010000000000000009
110000,7918,3642,130077,-5067,-182,131327,201,19216,823,1,65263,0.0010000000000000009
111002,8929,-2803,127565,4098,-958,124793,205,19220,840,1,65264,0.001001999999999989
112000,5871,4556,125964,-2462,1598,123538,216,19220,885,1,65265,0.0009979999999999989
113000,9866,-3316,126796,-4593,-3772,127729,241,19215,885,1,65266,0.0010000000000000009
114000,6978,1110,127512,2493,650,126388,148,19213,987,0,65267,0.0010000000000000009
115000,8762,2558,129403,1083,2921,128927,148,19236,606,0,65268,0.0010000000000000009
116000,12015,3515,126043,-513,1060,124739,168,19222,688,0,65269,0.0010000000000000009
117000,6218,-4125,127458,3390,-4468,128961,190,19214,778,0,65270,0.0010000000000000009
118000,7786,-1492,127067,-567,817,126563,196,19214,803,0,65271,0.0010000000000000009
119002,7118,1988,127667,-3705,2105,124658,196,19224,803,0,65272,0.0010020000000000029
120000,10492,6369,128577,-335,5317,125776,202,19217,803,0,65273,0.0009979999999999989
121000,10308,211,126820,847,-1939,127145,202,19216,827,0,65274,0.0010000000000000009
122000,7595,-2331,126821,421,-2973,127435,217,19214,889,0,65275,0.0010000000000000009
123000,9317,-2492,127787,1122,-4110,130292,236,19205,967,0,65276,0.0010000000000000009
124000,8086,-2569,127773,-1535,-695,126328,254,19205,1040,1,65277,0.0010000000000000009
125000,8475,7446,129484,-3002,4482,124441,152,19240,1040,1,65278,0.0010000000000000009
126000,14865,-1253,127940,6570,-550,126564,184,19218,623,1,65279,0.0010000000000000009
127000,4804,-962,127198,1795,-3077,130309,184,19216,754,1,65280,0.0010000000000000009
128001,5458,-4710,126283,-6847,-4229,124288,199,19220,815,1,65281,0.0010010000000000019
129000,5317,9974,129614,-471,9892,128185,202,19212,827,1,65282,0.0009989999999999999
130000,13150,3040,128765,-3058,1293,124948,205,19216,840,1,65283,0.0010000000000000009
131000,9218,2664,127495,4697,-2887,126902,215,19216,840,1,65284,0.0010000000000000009
132000,8574,-8773,126664,-1822,-12506,132961,233,19219,881,1,65285,0.0010000000000000009
133001,8535,-5645,126858,-1844,2854,123523,233,19210,954,1,65286,0.0010009999999999741
134001,4407,5148,129785,451,2017,130797,252,19220,1032,0,65287,0.0010000000000000009
135002,10493,4008,129231,-1320,7040,120230,130,19231,532,0,65288,0.0010010000000000019
136000,10791,5510,127945,1035,-4458,131266,181,19218,741,0,65289,0.0009979999999999989
137001,9424,-7510,126104,4612,-5719,126467,197,19218,741,0,65290,0.0010010000000000019
138000,6682,1396,125603,-2042,4123,123776,204,19222,807,0,65291,0.0009989999999999999
139002,6627,4169,129418,-7721,3700,128124,204,19222,836,0,65292,0.0010020000000000029
140000,11878,6064,128155,4459,2495,123829,206,19216,844,0,65293,0.0009979999999999989
141000,6968,-1891,127882,-1353,-7210,132417,212,19213,868,0,65294,0.0010000000000000009
142000,7529,-5849,127478,-1299,-4407,125383,225,19215,922,0,65295,0.0010000000000000009
143001,6542,-3767,126668,-1662,-4986,130531,239,19215,922,0,65296,0.0010010000000000019
144000,9187,697,128728,-3316,8272,123583,255,19211,979,1,65297,0.0009989999999999999
145000,7314,11613,128815,-963,5619,122962,255,19231,1044,1,65298,0.0010000000000000009
146000,13206,445,126398,5529,-1498,127531,139,19224,569,1,65299,0.0010000000000000009
147000,9822,-1655,126256,790,-6050,127764,179,19220,733,1,65300,0.0010000000000000009
148000,7201,-8097,125492,-143,-5300,129395,192,19219,786,1,65301,0.0010000000000000009
149001,8878,6811,129938,-790,10512,122582,196,19219,786,1,65302,0.0010010000000000019
150000,6756,6522,130210,-3758,-986,131027,193,19216,803,1,65303,0.0009989999999999999
151000,10993,-2328,126950,444,96,125319,193,19220,790,1,65304,0.0010000000000000009
152000,6023,965,126906,2737,-3568,128415,203,19214,831,1,65305,0.0010000000000000009
153000,10625,-5689,125925,-1656,-1019,124912,228,19209,934,1,65306,0.0010000000000000009
154000,8659,4453,128067,-98,1667,127071,251,19251,1028,0,65307,0.0010000000000000009
155000,9590,750,126992,1352,1793,128108,163,19251,1028,0,65308,0.0010000000000000009
156000,12665,5988,128294,-2614,3360,123870,186,19216,668,0,65309,0.0010000000000000009
157000,3841,-3529,127639,1754,-7098,131499,186,19222,762,0,65310,0.0010000000000000009
158000,6373,-1238,127009,-4141,1315,125467,188,19217,770,0,65311,0.0010000000000000009
159000,6096,3521,128566,-2075,2471,126870,192,19224,786,0,65312,0.0010000000000000009
160000,12030,6886,128404,462,6688,121761,202,19212,827,0,65313,0.0010000000000000009
161000,9655,-555,127184,1314,-6465,129246,210,19212,860,0,65314,0.0010000000000000009
162000,5409,-9954,127391,-236,-8642,131370,233,19217,860,0,65315,0.0010000000000000009
163000,6657,-34,128415,-6823,528,127573,242,19212,954,1,65316,0.0010000000000000009
164000,6285,3436,128943,-799,5502,125906,242,19236,991,1,65317,0.0009999999999999731
165000,13988,10670,129717,4155,7489,122461,141,19228,577,1,65318,0.0010000000000000009
166002,12399,-5351,125840,-614,-8612,130164,180,19219,737,1,65319,0.0010020000000000029
167000,6594,-5558,125862,2314,-5029,125446,198,19219,811,1,65320,0.0009979999999999989
168000,5342,114,127967,-2211,-121,129797,202,19220,811,1,65321,0.0010000000000000009
169001,5068,7836,129522,-7334,10365,123243,192,19215,827,1,65322,0.0010010000000000019
170000,8889,8760,129553,-2615,3891,126814,192,19218,786,1,65323,0.0009989999999999999
171000,8714,-5336,126239,3998,-6662,129526,201,19215,823,1,65324,0.0010000000000000009
172000,9355,-5355,126953,910,-6636,126410,217,19220,889,1,65325,0.0010000000000000009
173002,7733,-6977,127067,-4290,-6932,124938,241,19220,987,1,65326,0.0010020000000000029
174002,6333,7584,129732,-3537,8914,125054,140,19208,987,0,65327,0.0010000000000000009
175002,5751,5232,129220,1357,4068,128215,162,19235,573,0,65328,0.0010000000000000009
176000,9683,1470,126830,-444,857,124640,162,19226,664,0,65329,0.0009979999999999989
177000,8280,-2640,126337,1341,-4728,130121,179,19218,733,0,65330,0.0010000000000000009
178000,10979,-3374,126270,3257,4661,122423,184,19223,754,0,65331,0.0010000000000000009
179000,10287,7045,129447,-942,1376,127645,190,19218,778,0,65332,0.0010000000000000009
180000,10487,245,128328,-287,-632,126887,199,19218,778,0,65333,0.0010000000000000009
181002,5516,449,127307,-1886,-2393,128537,212,19219,815,0,65334,0.0010020000000000029
182001,3884,-2957,127792,-3598,-4460,129281,212,19211,868,0,65335,0.0009989999999999999
183000,6908,967,127257,245,1929,124329,227,19213,930,1,65336,0.0009989999999999999
184000,9134,2202,127752,1682,1484,127304,102,19228,418,1,65337,0.0010000000000000009
185000,16704,2466,129242,934,2311,123078,169,19220,692,1,65338,0.0010000000000000009
186000,7997,-2966,126430,3306,-5532,130866,191,19220,692,1,65339,0.0010000000000000009
187000,5347,-4008,127168,-5973,-24,127033,195,19218,782,1,65340,0.0010000000000000009
188000,2352,6295,128334,-4316,6735,124656,195,19222,799,1,65341,0.0010000000000000009
189000,8612,5863,129054,-3275,3757,127017,194,19215,795,1,65342,0.0010000000000000009
190000,10092,1335,127564,2139,-4454,125783,199,19213,815,1,65343,0.0010000000000000009
191000,9003,-6555,127092,2670,-8936,132006,211,19211,864,1,65344,0.0010000000000000009
192000,9736,-6752,127291,-1173,-3031,127251,230,19211,864,1,65345,0.0010000000000000009
193002,5104,3384,128537,-5169,5586,125445,114,19208,942,0,65346,0.0010019999999999751
194000,10944,7380,130221,1481,6080,126198,114,19227,467,0,65347,0.0009979999999999989
195000,11835,2237,127491,647,-773,125121,169,19216,692,0,65348,0.0010000000000000009
196000,6071,-1690,126965,-390,-6110,128889,191,19222,782,0,65349,0.0010000000000000009
197000,5231,-4986,126331,-2093,-2466,127195,194,19217,795,0,65350,0.0010000000000000009
198000,5582,4164,128860,-4666,6460,125551,193,19217,795,0,65351,0.0010000000000000009
199001,12065,7547,128981,605,3878,125874,197,19223,790,0,65352,0.0010010000000000019
200001,8400,677,127372,13,-1562,126141,197,19222,807,0,65353,0.0010000000000000009
201000,8379,-6080,127320,711,-9432,130762,212,19218,868,0,65354,0.0009989999999999999
202000,5820,-6694,126561,-2449,-4474,127477,230,19219,942,0,65355,0.0010000000000000009
203001,6763,3755,129144,-6684,6441,125336,244,19228,999,1,65356,0.0010010000000000019
204001,5803,8175,128558,822,6354,124008,132,19228,999,1,65357,0.0010000000000000009
205000,13629,5255,125758,4252,1446,126010,172,19221,541,1,65358,0.0009989999999999999
206000,8187,-3653,126148,387,-5985,128186,172,19218,704,1,65359,0.0010000000000000009
207000,7010,-4885,126259,-12,-3717,126976,186,19225,762,1,65360,0.0010000000000000009
208000,8824,3287,129669,-1010,4070,127195,192,19224,786,1,65361,0.0010000000000000009
209000,10798,5064,129432,-2011,4022,126074,191,19218,782,1,65362,0.0010000000000000009
210000,8589,1542,126723,-384,-901,126740,202,19218,827,1,65363,0.0010000000000000009
211001,6609,-1796,126897,-395,-2918,127433,219,19220,827,1,65364,0.0010010000000000019
212000,8945,-2706,126634,1270,-3379,127754,239,19207,897,0,65365,0.0009989999999999999
213000,6046,-818,127685,-3434,-303,127314,239,19231,979,0,65366,0.0010000000000000009
214002,16726,7129,128214,-1282,7944,124513,154,19220,631,0,65367,0.0010020000000000029
215003,10252,-286,126689,4495,-2328,128713,184,19220,754,0,65368,0.0010010000000000019
216000,3695,-1664,126818,-4113,-2348,127373,195,19220,799,0,65369,0.0009969999999999979
217000,5446,-289,127023,-4881,-1134,127074,197,19220,799,0,65370,0.0010000000000000009
218000,6926,4918,128795,42,5798,125821,200,19221,807,0,65371,0.0010000000000000009
219000,10732,3694,128101,-228,-823,124898,200,19215,819,0,65372,0.0010000000000000009
220000,9225,-5751,126899,-1406,-6287,129318,208,19213,852,0,65373,0.0010000000000000009
221000,7389,-2540,127493,3070,-2834,127260,224,19211,917,0,65374,0.0010000000000000009
222000,4438,448,128538,-5853,-768,128720,240,19211,983,0,65375,0.0010000000000000009
223000,6906,4833,129118,-7214,5251,124323,187,19211,983,1,65376,0.0010000000000000009
224000,9273,3157,127853,3774,1414,126616,164,19245,766,1,65377,0.0009999999999999731
225000,14075,-1100,124896,9220,2575,122455,164,19218,672,1,65378,0.0010000000000000009
226000,9731,1394,127424,-3220,-7872,131795,190,19220,778,1,65379,0.0010000000000000009
227001,10127,-8346,126511,1445,3434,127424,200,19215,819,1,65380,0.0010010000000000019
228002,1932,12229,131156,1100,10178,124443,198,19220,811,1,65381,0.0010010000000000019
229000,10682,2895,128460,-4133,-3638,126911,200,19220,811,1,65382,0.0009979999999999989
230000,6955,-4930,126303,10974,-7057,130742,214,19219,819,1,65383,0.0010000000000000009
231000,7223,-8781,126142,-4537,-7959,128910,214,19222,876,1,65384,0.0010000000000000009
232000,7998,2235,126053,-8247,12304,116275,236,19206,967,1,65385,0.0010000000000000009
233001,5513,12118,130064,137,2040,132101,256,19245,1049,0,65386,0.0010010000000000019
234000,13881,-2444,129281,8056,-2069,127135,157,19214,643,0,65387,0.0009989999999999999
235000,9524,-103,127461,-8653,-2390,126855,180,19214,643,0,65388,0.0010000000000000009
236001,8273,-4028,128161,360,-5556,128255,192,19219,737,0,65389,0.0010010000000000019
237000,7248,-878,125498,8655,899,125253,192,19225,786,0,65390,0.0009989999999999999
238000,8111,4413,130098,-8366,5946,128239,200,19218,819,0,65391,0.0010000000000000009
239001,8685,6129,127265,-4203,3124,121235,206,19213,844,0,65392,0.0010010000000000019
240000,7649,684,126249,3638,-3204,129533,216,19213,885,0,65393,0.0009989999999999999
241000,10173,-4399,127898,4209,-4720,129537,227,19213,885,0,65394,0.0010000000000000009
242000,8104,-3070,126889,-3452,-1253,125824,240,19206,930,1,65395,0.0010000000000000009
243001,8574,3347,129572,-4764,3234,128073,240,19218,983,1,65396,0.0010010000000000019
244000,12545,1413,126944,4366,-341,125660,115,19232,471,1,65397,0.0009989999999999999
245000,11342,2371,126755,4628,2359,125739,183,19221,750,1,65398,0.0010000000000000009
246000,3720,-1625,126862,-5731,-6860,130150,201,19214,823,1,65399,0.0010000000000000009
247000,4475,-2943,126317,-6158,3702,124259,204,19214,823,1,65400,0.0010000000000000009
248000,7385,10767,130950,2398,7557,128869,201,19212,836,1,65401,0.0010000000000000009
249000,13772,2928,128050,-101,1772,123110,201,19223,823,1,65402,0.0010000000000000009
250000,6971,1017,127818,1101,-6771,129437,206,19213,844,1,65403,0.0010000000000000009
251000,7776,-14386,125968,-3570,-12837,133109,226,19212,926,1,65404,0.0010000000000000009
252000,8410,2337,128362,2002,8005,122428,248,19209,1016,0,65405,0.0010000000000000009
253000,4607,6258,129247,-5299,3284,128989,137,19209,561,0,65406,0.0010000000000000009
254000,15711,3413,127983,-4391,3590,122445,176,19231,561,0,65407,0.0010000000000000009
255016,9149,1548,126718,4535,-3107,129515,193,19211,721,0,65408,0.0010159999999999614
256002,7464,-5658,125964,4243,-5502,128134,193,19216,790,0,65409,0.0009860000000000424
257000,6016,2114,127007,-3609,3096,124245,198,19222,811,0,65410,0.0009979999999999989
258000,8443,3581,129174,-8480,3596,128117,201,19224,823,0,65411,0.0010000000000000009
259000,11484,7069,128157,6380,5128,122159,212,19224,868,0,65412,0.0010000000000000009
260000,6785,-3406,127806,58,-7859,131721,226,19218,868,0,65413,0.0010000000000000009
261000,7509,-9331,126493,-4407,-9077,128803,241,19215,926,0,65414,0.0010000000000000009
262000,5205,-2456,127922,-1200,-1392,127810,241,19211,987,0,65415,0.0010000000000000009
263000,9863,8762,129474,-3519,10225,124159,249,19210,1020,1,65416,0.0010000000000000009
264001,6632,7541,127157,795,3818,123582,93,19230,381,1,65417,0.0010009999999999741
265000,13928,-3059,125017,4499,-4715,129136,168,19230,688,1,65418,0.0009990000000000276
266000,9069,-3259,126141,477,-3858,126227,192,19223,688,1,65419,0.0010000000000000009
267001,8471,-2388,127011,1290,-2003,127308,198,19220,786,1,65420,0.0010009999999999741
268000,7818,7677,130465,-2401,7059,127171,198,19218,811,1,65421,0.0009989999999999721
269002,8150,2895,129232,-5003,1109,128300,197,19216,807,1,65422,0.0010020000000000029
270002,9071,-611,127239,825,-1417,126944,200,19217,819,1,65423,0.0010000000000000009
271002,7635,-3131,126370,4977,-4882,127857,216,19211,885,1,65424,0.0010000000000000009
272000,10405,-3949,126178,-2636,1272,125306,238,19211,885,0,65425,0.0009979999999999989
273000,7379,3981,128393,-2591,2613,125977,143,19227,975,0,65426,0.0010000000000000009
274000,15413,4958,128582,2102,3315,125901,143,19221,586,0,65427,0.0010000000000000009
275011,8056,442,127515,-1751,-4835,129741,185,19220,758,0,65428,0.0010110000000000396
276001,2469,-4985,126462,100,-3357,127718,192,19220,786,0,65429,0.0009899999999999909
277000,6756,1060,127674,-4216,3963,125222,191,19216,782,0,65430,0.0009989999999999721
278000,10028,5295,128403,639,5296,124258,195,19216,782,0,65431,0.0010000000000000009
279000,12139,4496,127884,2266,-1718,125752,208,19210,799,0,65432,0.0010000000000000009
280001,7147,-4708,126372,-1968,-7939,130687,208,19216,852,0,65433,0.0010010000000000296
281002,6346,-5321,127168,-3835,-2912,128813,231,19211,946,0,65434,0.0010009999999999741
282000,5468,1051,129008,-2490,2221,128331,244,19220,999,1,65435,0.0009979999999999989
283000,7674,6544,129041,-849,9312,122845,93,19229,381,1,65436,0.0010000000000000009
284000,16049,7011,127258,7035,-3181,125532,168,19229,381,1,65437,0.0010000000000000009
285000,9106,-7504,125321,1548,-9431,130298,190,19215,688,1,65438,0.0010000000000000009
286000,6058,-4612,126627,-3620,-2179,125463,190,19217,778,1,65439,0.0010000000000000009
287000,3816,2133,127914,-5320,6970,127158,196,19217,803,1,65440,0.0010000000000000009
288000,8191,14768,131081,-4653,13988,121561,197,19219,807,1,65441,0.0010000000000000009
289000,9390,3618,127470,1911,-6617,130524,201,19219,823,1,65442,0.0010000000000000009
290000,9466,-11305,125658,3410,-11855,130524,211,19219,823,1,65443,0.0010000000000000009
291000,9650,-7676,126819,988,-6563,127116,230,19213,864,1,65444,0.0010000000000000009
292000,6805,-784,127693,-6443,5599,124144,230,19208,942,0,65445,0.0010000000000000009
293000,6152,13512,130688,-5796,10413,123819,246,19239,1008,0,65446,0.0010000000000000009
294000,10980,2913,127701,4292,-1265,130137,153,19220,627,0,65447,0.0010000000000000009
295000,7719,-1494,125326,-2861,-3634,125818,177,19218,725,0,65448,0.0010000000000000009
296000,6501,-4884,125195,3899,-6652,127884,189,19218,774,0,65449,0.0010000000000000009
297006,11688,482,127655,449,5242,124179,190,19227,774,0,65450,0.0010060000000000069
298000,12054,6739,129619,-171,3267,126858,193,19222,778,0,65451,0.0009939999999999949
299000,8632,1899,127752,-1694,306,126287,193,19227,790,0,65452,0.0010000000000000009
300002,5670,-1403,127157,-1005,-4032,128340,205,19216,840,0,65453,0.0010020000000000029
301000,4642,-5175,127020,-1925,-5144,129749,217,19218,889,1,65454,0.0009979999999999989
302000,7759,1965,128207,-3546,2310,125982,149,19218,610,1,65455,0.0010000000000000009
303000,14059,4202,127260,4059,3918,125725,165,19233,610,1,65456,0.0010000000000000009
304000,13089,3311,127689,1587,165,125023,191,19220,676,1,65457,0.0010000000000000009
305000,5118,-4600,125987,1928,-6518,129617,191,19217,782,1,65458,0.0010000000000000009
306001,3421,-1043,127447,-7017,1453,127175,192,19222,786,1,65459,0.0010009999999999741
307000,5896,7745,129136,-5060,7054,125049,189,19217,774,1,65460,0.0009990000000000276
308000,10926,7521,128714,926,5684,124428,192,19217,786,1,65461,0.0010000000000000009
309000,9798,-2720,127455,2320,-7415,129190,208,19214,786,1,65462,0.0010000000000000009
310000,7316,-12507,126362,1204,-12573,131981,229,19216,852,1,65463,0.0010000000000000009
311000,6932,-2627,128511,-4261,-559,127848,229,19211,938,0,65464,0.0010000000000000009
312000,7046,7564,129470,-3810,8499,124522,248,19248,1016,0,65465,0.0010000000000000009
313000,15056,11356,128893,2518,8309,123466,156,19218,639,0,65466,0.0010000000000000009
314000,9274,-1317,125817,-1717,-4051,128052,180,19219,737,0,65467,0.0010000000000000009
315001,4865,-6672,125095,952,-8397,127992,191,19219,737,0,65468,0.0010009999999999741
316001,6145,-1789,127790,-299,-785,126463,198,19220,782,0,65469,0.0010000000000000009
317000,8444,9521,130525,-5083,9377,123764,198,19225,811,0,65470,0.0009990000000000276
318000,10140,5329,128393,-2471,2359,128519,200,19216,819,0,65471,0.0010000000000000009
319000,7966,-2853,127520,3311,-8602,128439,208,19219,852,0,65472,0.0010000000000000009
320000,8368,-8365,126236,1075,-7121,129371,219,19213,897,0,65473,0.0010000000000000009
321000,5749,-2085,127256,-4375,6353,122850,235,19213,897,1,65474,0.0010000000000000009
322000,7743,10845,129855,-6835,6216,126633,89,19211,962,1,65475,0.0010000000000000009
323000,9877,2184,127667,4147,731,127028,89,19232,365,1,65476,0.0010000000000000009
324000,10421,431,125925,-1880,-3699,125881,167,19227,684,1,65477,0.0010000000000000009
325000,6325,-5369,126221,-422,-5547,127897,186,19215,762,1,65478,0.0010000000000000009
326000,10010,-718,127662,230,5075,125016,192,19216,786,1,65479,0.0010000000000000009
327002,9284,6502,129986,538,3858,128185,188,19216,786,1,65480,0.0010019999999999474
328002,9567,3321,128238,-3663,-265,125560,196,19225,770,1,65481,0.0010000000000000009
329000,6829,-2108,126402,516,-4231,127790,196,19218,803,1,65482,0.0009979999999999989
330000,6584,-3704,126986,1473,-4700,129201,212,19216,868,1,65483,0.0010000000000000009
331000,8520,-1027,127143,-774,1172,125614,238,19210,975,0,65484,0.0010000000000000009
332004,6561,4914,129355,-4518,5156,124916,72,19229,295,0,65485,0.0010040000000000049
333000,15845,2388,130136,7740,-863,126431,178,19229,295,0,65486,0.0009959999999999969
334000,5186,-996,126994,2392,-2027,127753,189,19216,729,0,65487,0.0010000000000000009
335000,4980,-3031,127299,-9753,-2990,128510,189,19219,774,0,65488,0.0010000000000000009
336000,4037,520,127469,-2498,2422,126311,193,19224,790,0,65489,0.0010000000000000009
337000,11116,8243,129913,2107,6884,124770,200,19222,819,0,65490,0.0010000000000000009
338000,10259,968,127172,-1783,-2699,125727,212,19217,868,0,65491,0.0010000000000000009
339000,7018,-4537,126500,-841,-8545,130573,224,19217,868,0,65492,0.0010000000000000009
340000,8018,-8372,126404,950,-2436,127480,238,19216,917,0,65493,0.0010000000000000009
341001,5874,6442,128375,-6609,8575,125395,238,19207,975,1,65494,0.0010010000000000296
342000,6431,7030,129297,-4866,3674,126218,247,19240,1012,1,65495,0.0009989999999999721
343000,12115,1318,127533,6805,-1838,125450,146,19223,598,1,65496,0.0010000000000000009
344000,13073,-4497,126551,5127,-6625,129236,183,19222,750,1,65497,0.0010000000000000009
345002,6093,-4330,125866,-1482,-3434,125658,201,19222,823,1,65498,0.0010020000000000029
346002,9024,1132,128183,-7585,3570,128789,203,19217,823,1,65499,0.0010000000000000009
347000,7197,10750,131314,1542,10583,124981,197,19220,831,1,65500,0.0009979999999999989
348000,6857,3158,126653,-3016,-1752,126143,197,19216,807,1,65501,0.0010000000000000009
349001,7729,-5207,126649,-2799,-6512,129180,206,19215,844,1,65502,0.0010010000000000296
350000,6618,-10673,125461,6378,-9799,130152,227,19213,930,1,65503,0.0009989999999999721
351000,8000,1744,127203,-5831,7359,122195,250,19213,1024,0,65504,0.0010000000000000009
352000,8019,10439,129628,-6300,8574,125352,114,19215,1024,0,65505,0.0010000000000000009
353000,13811,2435,126459,8842,-2244,127518,182,19222,467,0,65506,0.0010000000000000009
354000,7148,-2141,125851,-5659,-3932,128873,182,19223,745,0,65507,0.0010000000000000009
355000,7785,-4622,126642,-1487,-4990,126937,189,19215,774,0,65508,0.0010000000000000009
356001,6328,1854,127420,8185,2519,125865,190,19223,778,0,65509,0.0010009999999999741
357000,9873,5122,129848,-7045,4253,127149,200,19223,819,0,65510,0.0009990000000000276
358002,9380,3123,126337,-5222,1202,123614,212,19216,819,0,65511,0.0010020000000000029
359002,7363,-1114,126893,6914,-2887,129334,226,19213,868,0,65512,0.0010000000000000009
360000,9860,-2551,126727,-184,-3212,128094,226,19214,926,0,65513,0.0009979999999999989
361000,7952,-1384,128112,-4291,-1284,126317,240,19211,983,1,65514,0.0010000000000000009
362000,7314,4864,129364,-1803,3345,126438,127,19234,520,1,65515,0.0010000000000000009
363001,16209,-1815,127091,4674,-1176,125762,169,19219,692,1,65516,0.0010009999999999741
364001,5965,648,127044,2633,16,127910,194,19219,692,1,65517,0.0010000000000000009
365000,4888,-3016,126221,-4820,-4741,126820,208,19217,795,1,65518,0.0009990000000000276
366002,6127,4591,128160,-4722,11414,125093,208,19220,852,1,65519,0.0010020000000000029
367000,9855,9173,130378,-833,1227,127105,207,19217,848,1,65520,0.0009979999999999989
368000,12042,478,126955,1850,-214,124058,206,19214,844,1,65521,0.0010000000000000009
369000,6597,-5211,127353,1412,-16013,136332,217,19213,889,1,65522,0.0010000000000000009
370018,9594,-13991,125889,-151,-1507,124366,239,19213,889,1,65523,0.0010179999999999634
371002,4841,7638,128922,-406,8501,126585,258,19210,979,0,65524,0.0009840000000000404
372006,6787,6834,129645,-4822,7056,123379,258,19246,1057,0,65525,0.0010040000000000049
373002,12722,7125,125552,4052,-1034,126746,168,19221,688,0,65526,0.0009959999999999969
374000,7353,-6606,127095,4259,-8790,132122,192,19213,786,0,65527,0.0009979999999999989
375000,8392,-3244,125643,-767,3186,120789,201,19215,823,0,65528,0.0010000000000000009
376000,5105,5412,128741,-7711,2141,129873,200,19215,823,0,65529,0.0010000000000000009
377001,12929,3061,129036,1489,4807,123526,207,19211,819,0,65530,0.0010009999999999741
378000,8103,3439,127033,2851,-3610,129218,207,19216,848,0,65531,0.0009990000000000276
379001,7887,-6013,127118,-3559,-6396,127823,216,19213,885,0,65532,0.0010009999999999741
380000,6973,-3380,126893,-1065,-4326,127751,235,19211,962,0,65533,0.0009990000000000276
381000,7114,-2205,127996,-3269,3032,128507,250,19209,1024,1,65534,0.0010000000000000009
382000,8799,11240,129923,-619,9477,120867,164,19209,1024,1,65535,0.0010000000000000009
383000,9441,1576,127224,3397,-3438,129173,164,19236,672,1,0,0.0010000000000000009
384000,13091,-1897,125839,1279,-4084,125634,164,19222,672,1,1,0.0010000000000000009
385000,7766,-5070,126001,1584,-5646,129243,186,19219,762,1,2,0.0010000000000000009
386000,9687,2770,128332,-847,8775,123815,195,19220,799,1,3,0.0010000000000000009
387000,5693,7484,130658,-4352,2756,128436,196,19220,803,1,4,0.0009999999999999454
388023,10332,-1013,128634,-939,-1771,128765,202,19220,827,1,5,0.0010230000000000516
389000,8410,-1620,126485,4105,-3318,126871,213,19225,827,1,6,0.0009769999999999501
390000,8804,-4103,126352,579,-4423,127391,235,19208,872,1,7,0.0010000000000000009
391000,9380,1213,127299,-2420,2240,124208,235,19208,962,0,8,0.0010000000000000009
392000,7288,3807,128578,2028,2248,127218,124,19230,508,0,9,0.0010000000000000009
393000,14363,3697,130203,833,2687,125369,173,19215,709,0,10,0.0010000000000000009
394000,4081,-1796,127337,1444,-4783,129726,191,19215,782,0,11,0.0010000000000000009
395002,4901,-4532,126993,-1826,-2767,127674,194,19220,782,0,12,0.0010020000000000029
396000,7101,3516,127893,-5517,3122,125357,198,19220,795,0,13,0.0009979999999999989
397001,12508,5685,128805,2163,5990,124444,198,19224,811,0,14,0.0010010000000000296
398000,10231,1694,126973,2439,-2259,125758,205,19209,840,0,15,0.0009989999999999721
399000,6688,-6188,126756,-2436,-6559,129937,221,19217,905,0,16,0.0010000000000000009
400000,6459,-3110,127839,-3713,-2650,129559,233,19217,954,0,17,0.0010000000000000009
401000,5838,1133,128362,-2384,2196,127609,154,19211,954,1,18,0.0010000000000000009
402000,12231,8086,130418,1835,8498,123332,162,19240,631,1,19,0.0010000000000000009
403000,13773,-378,126738,5262,-4053,127025,162,19218,664,1,20,0.0010000000000000009
404000,6491,-7708,125817,572,-8344,128293,189,19217,774,1,21,0.0010000000000000009
405000,4940,-1805,127084,-4568,-656,127599,197,19215,807,1,22,0.0010000000000000009
406000,4757,8957,129218,-4635,10493,123733,195,19210,799,1,23,0.0010000000000000009
407001,9620,11742,129341,-2405,8024,124929,192,19210,799,1,24,0.0010010000000000296
408017,8754,-4477,127187,392,-7063,130492,206,19218,786,1,25,0.0010159999999999614
409002,9939,-10292,126529,3978,-11293,129140,206,19214,844,1,26,0.0009850000000000136
410000,8534,-6148,126977,762,-5784,125446,229,19215,938,1,27,0.0009979999999999989
411000,6785,6106,129196,-7085,7332,123799,245,19220,1003,0,28,0.0010000000000000009
412000,4595,9627,129141,-5209,7778,126611,124,19218,508,0,29,0.0010000000000000009
413000,11270,3367,125425,5049,1338,126762,169,19218,508,0,30,0.0010000000000000009
414000,6403,-3859,126322,354,-7206,128590,182,19217,692,0,31,0.0010000000000000009
415000,9101,-6520,125929,1907,-970,125648,182,19219,745,0,32,0.0010000000000000009
416000,11277,4787,128849,83,5569,125719,190,19219,778,0,33,0.0010000000000000009
417000,12071,4726,129016,-79,4091,125964,196,19219,803,0,34,0.0010000000000000009
418002,6877,-117,127279,-3375,-3283,127272,202,19214,827,0,35,0.0010020000000000029
419000,4580,-3176,126773,-1311,-3936,129035,216,19214,827,0,36,0.0009979999999999989
420000,6451,-3964,127014,-2097,-312,126885,229,19215,885,1,37,0.0010000000000000009
421000,7499,4303,128566,1305,2873,125980,229,19243,938,1,38,0.0010000000000000009
422000,16137,2351,128636,3804,1009,125458,150,19220,614,1,39,0.0010000000000000009
423000,8422,-610,126759,454,-3106,127436,183,19216,750,1,40,0.0010000000000000009
424001,3082,-2744,126335,-3288,-2553,128242,196,19219,803,1,41,0.0010009999999999741
425000,4520,3209,127604,-5986,6398,125205,193,19219,803,1,42,0.0009990000000000276
426002,8709,7668,129003,-2373,5762,125202,190,19218,790,1,43,0.0010020000000000029
427003,10438,3989,128143,1510,-2078,126010,190,19218,778,1,44,0.0010009999999999741
428000,8614,-6861,127066,3424,-11610,132509,203,19214,831,1,45,0.0009970000000000256
429000,6756,-10802,126978,-3652,-7496,129913,221,19212,905,1,46,0.0010000000000000009
430000,5837,2036,128658,-5123,6543,125452,243,19235,995,0,47,0.0010000000000000009
431000,7870,10535,130055,3178,11739,123559,147,19235,995,0,48,0.0010000000000000009
432000,14081,7844,126303,3397,835,124915,179,19229,602,0,49,0.0010000000000000009
433000,5246,-4962,126214,-1577,-8895,130031,179,19218,733,0,50,0.0010000000000000009
434000,6183,-8111,126294,-1908,-4214,127693,192,19221,786,0,51,0.0010000000000000009
435000,5633,3299,128645,-1921,6120,126221,196,19219,803,0,52,0.0010000000000000009
436000,10156,9609,130165,-5277,7107,124626,194,19216,795,0,53,0.0010000000000000009
437000,8829,530,127163,373,-2983,127688,206,19216,844,0,54,0.0010000000000000009
438000,8120,-5274,126278,2725,-7554,129701,222,19220,844,0,55,0.0010000000000000009
439010,8737,-6292,126327,-1374,-4980,126777,236,19218,909,0,56,0.0010099999999999554
440000,5523,2324,128406,-7112,5761,124946,236,19209,967,1,57,0.0009900000000000464
441000,5639,8346,129817,-2785,5211,126084,167,19236,684,1,58,0.0010000000000000009
442000,12343,2679,126718,5338,910,126451,153,19226,627,1,59,0.0010000000000000009
443000,8125,-1892,126182,-95,-4609,127580,179,19226,733,1,60,0.0010000000000000009
444002,6527,-5473,125387,-284,-5058,126435,191,19216,733,1,61,0.0010019999999999474
445000,10311,3476,128772,-1908,5409,125933,192,19222,782,1,62,0.0009980000000000544
446000,10546,5680,130160,894,4127,127288,192,19219,786,1,63,0.0010000000000000009
447000,8636,2255,127145,-1845,-441,125821,197,19215,807,1,64,0.0009999999999999454
448001,5983,-3552,126715,-1618,-5120,128739,207,19217,848,1,65,0.0010010000000000296
449000,7955,-4717,126691,1440,-5484,128511,227,19217,930,1,66,0.0009989999999999721
450000,7014,258,127467,-450,1225,126480,128,19214,930,0,67,0.0010000000000000009
451000,13252,8126,128029,-3407,6186,123858,169,19233,524,0,68,0.0010000000000000009
452000,13089,2618,126774,7004,-469,126817,169,19220,692,0,69,0.0010000000000000009
453000,3668,-2504,126508,-394,-5727,128733,193,19221,790,0,70,0.0010000000000000009
454002,5617,-1483,127500,-7934,-1202,127589,197,19213,807,0,71,0.0010020000000000029
455000,4135,3814,128536,-423,3635,126452,199,19217,815,0,72,0.0009979999999999989
456000,11597,6253,128587,-518,4192,124788,202,19217,815,0,73,0.0010000000000000009
457000,8343,-706,127311,-1439,-2087,128030,216,19216,827,0,74,0.0010000000000000009
458000,6755,-6045,127319,323,-7668,131012,216,19216,885,0,75,0.0010000000000000009
459000,6887,-3261,127866,-2237,-2807,127062,240,19219,983,0,76,0.0010000000000000009
460000,5916,5600,129868,-5378,5710,126115,253,19222,1036,1,77,0.0010000000000000009
461000,8092,2665,127056,-287,5817,120023,111,19224,455,1,78,0.0010000000000000009
462000,13933,6889,126738,7273,-3371,130551,175,19224,455,1,79,0.0010000000000000009
463001,12094,-10237,125347,-1664,-8103,128936,193,19217,717,1,80,0.0010010000000000296
464000,6492,544,127506,5184,6073,123830,193,19222,790,1,81,0.0009989999999999721
465001,4971,7765,130583,-9995,4822,128626,200,19220,819,1,82,0.0010010000000000296
466000,9911,2811,129344,-1557,-3212,127690,202,19217,827,1,83,0.0009989999999999721
467000,7488,-4671,127163,8594,-4762,131296,206,19213,844,1,84,0.0010000000000000009
468029,7887,-1529,126175,-5695,-671,121211,221,19213,844,1,85,0.0010290000000000021
469000,7618,2094,125719,-5588,3744,124005,241,19209,905,1,86,0.0009709999999999996
470000,7855,1846,129046,2364,-1613,131644,241,19206,987,0,87,0.0010000000000000009
471000,8919,1250,127669,6569,3736,124881,130,19232,532,0,88,0.0010000000000000009
472000,11507,2586,127701,-8610,-851,126727,173,19218,709,0,89,0.0010000000000000009
473000,6889,-1849,127212,2980,-4313,126473,190,19217,778,0,90,0.0010000000000000009
474002,9052,-4173,127008,6050,-1811,129859,195,19217,778,0,91,0.0010020000000000029
475002,6936,3353,128969,-7351,5305,124668,196,19229,799,0,92,0.0010000000000000009
476000,9171,7006,127161,-5452,3155,121985,196,19215,803,0,93,0.0009979999999999989
477000,9747,2382,127529,7864,-795,130072,206,19216,844,0,94,0.0010000000000000009
478000,8274,-4280,127590,245,-6721,128923,221,19216,905,0,95,0.0010000000000000009
479000,8909,-4149,126499,-4972,-2480,127068,240,19209,983,0,96,0.0010000000000000009
480000,7981,2216,129499,401,4000,127337,228,19209,983,1,97,0.0010000000000000009
481000,10362,5110,128142,3831,989,124552,163,19247,934,1,98,0.0010000000000000009
482000,13802,420,127865,656,-82,126239,163,19224,668,1,99,0.0010000000000000009
483000,4342,-1655,127379,-2267,-5598,129603,189,19218,774,1,100,0.0010000000000000009
484001,5311,-4635,125736,-1673,327,126476,201,19218,823,1,101,0.0010009999999999741
485000,5525,9244,130093,-2394,10803,126648,204,19221,836,1,102,0.0009990000000000276
486000,11794,4847,128758,-5773,3109,124204,205,19221,840,1,103,0.0010000000000000009
487000,9897,-72,126506,5365,-2413,126307,215,19223,840,1,104,0.0010000000000000009
488000,10167,-11159,127293,2191,-14515,135730,235,19216,881,1,105,0.0010000000000000009
489000,7055,-5189,126289,-2961,699,121673,235,19207,962,1,106,0.0010000000000000009
490000,4164,8860,130087,-6758,6124,128584,252,19232,1032,0,107,0.0010000000000000009
491001,13225,3295,129856,2393,4192,124766,156,19222,639,0,108,0.0010009999999999741
492000,10414,1957,127270,1871,-2076,128233,185,19222,758,0,109,0.0009990000000000276
493000,8536,-6660,126424,497,-5860,127895,200,19218,758,0,110,0.0010000000000000009
494000,6140,4006,125916,-375,3819,121999,204,19220,819,0,111,0.0010000000000000009
495000,7474,1813,129342,-3635,757,131367,204,19220,836,0,112,0.0010000000000000009
496000,10858,5941,128564,-524,5957,121229,205,19210,840,0,113,0.0010000000000000009
497000,7508,-18,127582,53,-4091,130149,214,19215,876,0,114,0.0010000000000000009
498004,6088,-8539,127247,-1650,-8565,128743,225,19216,922,0,115,0.0010040000000000049
499002,6942,-5113,127435,-2429,-5430,129371,243,19216,922,0,116,0.0009979999999999989
500000,8555,3500,128788,-1734,6731,126002,256,19211,995,1,117,0.0009979999999999989
501000,6845,13958,128603,-2267,10682,119379,256,19242,1049,1,118,0.0010000000000000009
502000,14273,-2733,125449,3802,-4598,130528,150,19226,614,1,119,0.0010000000000000009
503000,11067,-2831,126370,2331,-3860,125558,178,19217,729,1,120,0.0010000000000000009
504002,7548,-6968,126217,2018,-8043,127550,195,19221,799,1,121,0.0010019999999999474
505000,6600,6053,130232,-5645,7167,124709,196,19221,799,1,122,0.0009980000000000544
506000,7236,4402,130255,-2203,1896,131714,194,19223,803,1,123,0.0010000000000000009
507000,7845,1528,126707,1692,1336,121558,194,19219,795,1,124,0.0010000000000000009
508000,7700,2646,126760,-3179,-5550,129074,208,19212,852,1,125,0.0010000000000000009
509002,11337,-6831,125858,2435,-2575,126133,231,19205,946,1,126,0.0010019999999999474
510001,9660,1708,127866,2075,218,127558,252,19241,1032,0,127,0.0009989999999999721
511000,12032,2495,127442,1195,3691,127184,168,19241,1032,0,128,0.0009990000000000832
512000,9137,4347,128078,-1879,-752,127347,187,19215,688,0,129,0.0010000000000000009
513000,3800,-3959,127182,1907,-5771,130263,187,19219,766,0,130,0.0010000000000000009
514002,5093,1124,126436,-3599,6993,123027,193,19221,790,0,131,0.0010019999999999474
515000,7179,7145,128148,-3288,3397,124968,195,19224,799,0,132,0.0009980000000000544
516000,13075,3475,127503,2729,1441,123887,205,19219,840,0,133,0.0010000000000000009
517000,9951,-2881,127480,2048,-7735,132226,215,19219,840,0,134,0.0010000000000000009
518000,6146,-8269,127547,-1099,-6239,128776,234,19212,881,0,135,0.0010000000000000009
519000,4057,487,129033,-6608,689,128886,234,19211,958,1,136,0.0010000000000000009
520000,5115,3747,129768,-3750,4554,125329,243,19239,995,1,137,0.0010000000000000009
521000,16361,8441,128283,7784,4878,122703,149,19225,610,1,138,0.0010000000000000009
522000,11657,-1304,126616,4011,-6430,128957,181,19225,741,1,139,0.0010000000000000009
523000,4963,-6711,125282,-4797,-5365,125696,200,19225,741,1,140,0.0010000000000000009
524000,4776,-204,127968,-5295,2482,129720,200,19220,819,1,141,0.0010000000000000009
525000,6769,9746,130437,-1097,12631,123725,200,19219,819,1,142,0.0010000000000000009
526000,9909,8152,128448,-1339,-71,126642,198,19214,811,1,143,0.0010000000000000009
527000,8111,-6678,126554,924,-10402,130016,200,19217,819,1,144,0.0010000000000000009
528000,10063,-10115,126396,1974,-9237,129404,217,19212,889,1,145,0.0010000000000000009
529000,8476,-3843,127279,-1058,619,126003,241,19212,987,1,146,0.0010000000000000009
530000,5408,10845,129981,-8248,11698,122593,118,19209,987,0,147,0.0010000000000000009
531000,7821,5427,129087,-576,2518,128094,167,19235,483,0,148,0.0010000000000000009
532000,9058,281,126883,2293,-2003,126900,167,19220,684,0,149,0.0010000000000000009
533000,9016,-5272,126038,3250,-7421,129320,180,19223,737,0,150,0.0010000000000000009
534000,9854,-3202,125820,-853,412,123819,185,19213,758,0,151,0.0010000000000000009
535000,10146,7171,129851,-864,5663,125691,190,19213,778,0,152,0.0010000000000000009
536000,11460,2890,128811,2008,1266,127774,200,19222,778,0,153,0.0009999999999998899
537003,5539,-306,127161,-3286,-3057,127324,216,19218,819,0,154,0.0010030000000000872
538000,3728,-5091,127300,-2475,-6344,130188,216,19219,885,0,155,0.0009969999999999146
539008,6913,-423,127121,-1562,1352,125324,229,19220,938,1,156,0.0010080000000000089
540000,11778,4978,128475,2782,2838,126056,120,19227,491,1,157,0.0009919999999999929
541000,15522,3161,129145,4363,2064,124236,172,19227,704,1,158,0.0010000000000000009
542003,6212,-2276,126141,-690,-4424,127742,190,19221,704,1,159,0.0010030000000000872
543000,3595,-2694,126889,-3296,-2439,128608,196,19220,778,1,160,0.0009969999999999146
544000,4221,5260,128842,-5242,5230,126422,196,19226,803,1,161,0.0010000000000000009
545003,10421,6047,129381,-2136,5551,124871,195,19218,799,1,162,0.0010030000000000872
546000,9445,1455,127782,879,-2068,125785,201,19214,823,1,163,0.0009969999999999146
547000,8758,-9163,126543,3846,-10991,132028,214,19211,876,1,164,0.0010000000000000009
548000,7652,-6549,127173,-1854,-5201,128832,233,19211,876,1,165,0.0010000000000000009
549000,6304,5961,129154,-5916,6468,125563,118,19209,954,0,166,0.0010000000000000009
550000,12865,9851,129994,3487,10858,123419,118,19229,483,0,167,0.0010000000000000009
551000,11357,2380,128227,3801,-575,128892,168,19217,688,0,168,0.0010000000000000009
552000,6184,-7824,125990,-1646,-9331,128469,191,19219,782,0,169,0.0010000000000000009
553000,4800,-1749,127330,-2746,-1163,126252,196,19222,803,0,170,0.0010000000000000009
554000,6520,4426,128746,-2222,4809,125442,198,19222,803,0,171,0.0010000000000000009
555000,11340,10104,129572,-3128,4125,123694,200,19218,811,0,172,0.0010000000000000009
556000,8009,-778,127214,856,-7957,130677,200,19216,819,0,173,0.0010000000000000009
557000,7783,-10080,126668,1329,-9122,129734,210,19212,860,0,174,0.0010000000000000009
558000,7127,-4776,126879,-1926,-108,125327,230,19216,942,0,175,0.0010000000000000009
559000,7118,6522,129696,-5361,10138,124625,245,19237,1003,1,176,0.0010000000000000009
560000,6129,8795,128521,1026,3412,125301,144,19237,1003,1,177,0.0010000000000000009
561000,12059,1036,125317,2931,-4131,128421,175,19223,590,1,178,0.0010000000000000009
562000,7664,-5194,125939,3426,-6034,127547,175,19216,717,1,179,0.0010000000000000009
563000,7496,-3077,126352,-4483,993,124831,188,19218,770,1,180,0.0010000000000000009
564000,9337,6213,129977,-837,5662,127401,188,19220,770,1,181,0.0010000000000000009
565000,11189,4935,129229,1108,2013,126634,192,19218,786,1,182,0.0010000000000000009
566000,7481,-32,126188,-2858,-3117,126965,226,19218,786,1,183,0.0010000000000000009
567000,5916,-2678,126899,669,-5138,128169,224,19220,926,1,184,0.0010000000000000009
568000,8443,-3992,126631,1136,-2559,127963,224,19210,917,0,185,0.0010000000000000009
569002,7109,2546,128799,-7436,4223,125385,242,19231,991,0,186,0.0010020000000000584
570000,16675,7556,128402,4838,4173,125504,155,19218,635,0,187,0.0009979999999999434
571000,9764,-713,126745,2351,-2301,128203,178,19224,729,0,188,0.0010000000000000009
572000,3336,-2387,126726,-5938,-4344,127843,192,19224,786,0,189,0.0010000000000000009
573000,5444,-1607,127060,-1566,-271,127859,198,19222,786,0,190,0.0010000000000000009
574000,7853,7340,128965,-692,9892,122890,205,19225,811,0,191,0.0010000000000000009
575000,10331,5319,128368,-2593,-1119,126222,205,19223,840,0,192,0.0010000000000000009
576003,8051,-4854,126708,696,-6885,129751,214,19217,876,0,193,0.0010029999999999761
577000,7190,-6732,127100,1083,-5124,129400,228,19211,934,0,194,0.0009970000000000256
578001,4737,308,128492,-7324,1549,127023,240,19211,983,0,195,0.0010010000000000296
579000,6538,6779,129367,-4819,6578,125105,160,19212,983,1,196,0.0009989999999999721
580000,10105,2747,128216,4831,-282,126876,164,19240,655,1,197,0.0010000000000000009
581000,13627,-2919,124047,6499,-1588,123522,164,19218,672,1,198,0.0010000000000000009
582003,8733,771,127169,-312,-1132,127175,192,19216,786,1,199,0.0010029999999999761
583002,9711,-4078,127155,-3189,-3010,130723,203,19214,831,1,200,0.0009990000000000832
584000,4257,9663,131338,-1186,11482,124432,197,19214,807,1,201,0.0009979999999999434
585002,9036,3986,128130,-8459,-664,128118,200,19215,807,1,202,0.0010020000000000584
586006,7919,-5395,126177,4984,-5551,128279,212,19219,819,1,203,0.0010040000000000049
587002,5848,-10230,125128,5056,-12534,131755,212,19214,868,1,204,0.0009959999999999969
588000,8814,-1435,125861,-10553,5967,121349,236,19211,967,1,205,0.0009979999999999434
589001,6051,18124,130141,-5438,15694,120388,259,19249,1061,0,206,0.0010010000000000296
590000,14656,381,129555,11641,-3702,132497,163,19224,668,0,207,0.0009989999999999721
591000,9682,-6297,125569,-2593,-6226,127674,182,19224,668,0,208,0.0010000000000000009
592000,7111,-4652,128335,-6101,-5637,128194,194,19216,745,0,209,0.0010000000000000009
593000,7454,1720,126168,6797,2330,124557,194,19222,795,0,210,0.0010000000000000009
594001,8178,6654,129981,-2129,5244,127281,194,19212,795,0,211,0.0010010000000000296
595000,8316,3223,127899,-6084,1850,125037,205,19220,840,0,212,0.0009989999999999721
596000,7545,623,125758,156,-1668,125883,218,19212,893,0,213,0.0010000000000000009
597000,10048,-3918,127759,4801,-4691,130061,234,19212,893,0,214,0.0010000000000000009
598001,8683,-2716,127409,211,-3213,125840,245,19207,958,1,215,0.0010010000000000296
599000,7967,4468,129347,-6291,4311,127513,245,19226,1003,1,216,0.0009989999999999721
600000,13270,1072,126791,1621,-1589,126033,131,19227,537,1,217,0.0010000000000000009
601000,10202,1321,126139,7466,1137,125586,180,19218,737,1,218,0.0010000000000000009
602000,4294,-997,126618,-3352,-5524,129613,201,19217,823,1,219,0.0010000000000000009
603000,5556,-1012,127038,-8797,7452,123925,198,19217,823,1,220,0.0010000000000000009
604000,7150,9738,130405,1444,3449,129348,206,19216,811,1,221,0.0010000000000000009
605000,13934,1804,128300,2301,2581,122060,206,19217,844,1,222,0.0010000000000000009
606003,6108,160,127291,-537,-11624,133272,208,19217,852,1,223,0.0010029999999999761
607002,8303,-14803,125987,-4343,-8249,129138,226,19215,926,1,224,0.0009989999999999721
608002,7614,3326,128289,3882,9296,123608,245,19208,1003,0,225,0.0010000000000000009
609000,5405,8453,129931,-7220,5382,126800,89,19208,1003,0,226,0.0009980000000000544
610000,14747,6062,127071,2162,1350,123070,180,19230,365,0,227,0.0010000000000000009
611000,8180,-4592,126346,4539,-8916,134466,180,19223,737,0,228,0.0010000000000000009
612001,7823,-4942,125557,2507,574,121809,198,19216,811,0,229,0.0010010000000000296
613001,5342,5773,127870,-5743,5042,126043,201,19214,823,0,230,0.0010000000000000009
614000,10103,3773,129023,-5947,4371,126045,203,19218,831,0,231,0.0009989999999999721
615000,10447,4531,127057,6996,-135,125657,208,19218,831,0,232,0.0010000000000000009
616000,7644,-4765,127461,-1119,-6960,130588,220,19218,852,0,233,0.0010000000000000009
617000,7705,-5693,126811,-3000,-6176,126573,220,19215,901,0,234,0.0010000000000000009
618000,5299,-3341,128003,-4102,384,130010,241,19214,987,0,235,0.0010000000000000009
619000,9624,7815,129567,-813,10105,122515,254,19218,1040,1,236,0.0010000000000000009
620000,6754,6561,127126,3362,2215,126155,109,19225,446,1,237,0.0010000000000000009
621000,14048,-3490,124399,3835,-4464,126831,171,19225,700,1,238,0.0010000000000000009
622000,8836,-4412,126285,410,-4756,127510,192,19216,700,1,239,0.0010000000000000009
623000,9832,647,127398,400,3886,124879,199,19216,786,1,240,0.0010000000000000009
624000,6588,7174,130646,-1196,3387,129345,199,19224,815,1,241,0.0010000000000000009
625000,8252,423,128629,-5445,-955,128267,200,19217,819,1,242,0.0010000000000000009
626000,8673,-364,126982,3112,-1287,126340,204,19213,836,1,243,0.0010000000000000009
627000,8176,-1841,126834,2523,-3259,127392,219,19213,897,1,244,0.0010000000000000009
628000,11390,-1851,126284,-1190,-1796,125780,240,19210,897,0,245,0.0010000000000000009
629000,6457,549,128127,-2637,520,127536,152,19230,983,0,246,0.0010000000000000009
630002,16087,4711,129671,1891,6329,124673,152,19230,623,0,247,0.0010019999999999474
631000,6535,1405,127526,-245,-2330,129136,185,19221,758,0,248,0.0009980000000000544
632000,3411,-5067,126637,-866,-5733,129025,195,19214,799,0,249,0.0010000000000000009
633000,6084,813,127996,-3364,2145,126413,193,19214,790,0,250,0.0010000000000000009
634000,10975,5685,128244,-1876,6309,123573,194,19216,790,0,251,0.0010000000000000009
635000,12897,4895,127666,4209,966,124352,208,19219,795,0,252,0.0010000000000000009
636000,6906,-6374,126044,-277,-8343,131760,208,19215,852,0,253,0.0010000000000000009
637000,6842,-4991,127676,-4952,-4336,128088,229,19209,938,0,254,0.0010000000000000009
638000,4683,2351,128942,-1485,1528,129061,244,19215,999,1,255,0.0010000000000000009
639000,8580,6781,129117,-2801,7615,124255,109,19224,446,1,256,0.0010000000000000009
640000,15472,3916,126731,6339,-65,124575,171,19224,446,1,257,0.0010000000000000009
641000,8682,-5788,125704,1053,-7298,129411,191,19225,700,1,258,0.0010000000000000009
642000,6634,-4796,126091,-345,-4135,126452,191,19213,782,1,259,0.0010000000000000009
643000,3741,4400,129159,-5572,5477,126973,197,19214,807,1,260,0.0010000000000000009
644000,9092,12770,130108,-5447,11818,124035,197,19219,807,1,261,0.0010000000000000009
645000,8290,800,127332,837,-2227,130737,200,19217,819,1,262,0.0010000000000000009
646000,10459,-8540,126266,2307,-10165,128445,218,19217,819,1,263,0.0010000000000000009
647000,9656,-8197,126309,3541,-8030,127030,232,19212,893,1,264,0.0010000000000000009
648000,6771,1567,128327,-4839,2275,124319,232,19215,950,0,265,0.0010000000000000009
649000,5514,9404,129645,-7648,6331,125825,248,19256,1016,0,266,0.0010000000000000009
650000,11231,5576,127379,1702,1238,127463,157,19224,643,0,267,0.0010000000000000009
651000,7622,-1474,125487,-645,-3975,126945,175,19223,717,0,268,0.0010000000000000009
652002,5946,-6125,124612,1656,-5173,127427,188,19223,717,0,269,0.0010019999999999474
653000,11485,-987,127841,-430,5094,125647,193,19217,770,0,270,0.0009980000000000544
654000,12373,5588,129224,664,4566,124442,193,19218,790,0,271,0.0010000000000000009
655000,8498,4668,127633,-3107,-859,127480,197,19212,807,0,272,0.0009999999999998899
656000,4647,-2922,127052,-2800,-5148,129147,208,19224,852,0,273,0.0010000000000000009
657000,5463,-4431,126739,-983,-4080,129628,225,19210,922,1,274,0.0010000000000000009
658000,6981,1250,128109,-1559,3383,124926,120,19210,922,1,275,0.0010000000000000009
659000,14914,6579,127464,3691,5216,124075,166,19237,491,1,276,0.0010000000000000009
660001,12012,515,126915,-436,-4430,128228,166,19219,680,1,277,0.0010010000000000296
661000,5214,-3536,126365,964,-3369,128017,191,19219,782,1,278,0.0009989999999999721
662001,3668,263,127495,-5865,2813,127373,196,19220,803,1,279,0.0010010000000000296
663000,5221,6960,129022,-6723,7494,123716,194,19219,795,1,280,0.0009989999999999721
664003,10654,6863,128836,1603,2130,126196,194,19219,795,1,281,0.0010030000000000872
665000,9619,-4892,127241,4186,-9432,130727,207,19219,795,1,282,0.0009969999999999146
666001,7771,-9648,126635,-468,-9297,129609,228,19213,848,1,283,0.0010010000000000296
667000,5564,-2830,128096,-6537,1259,127544,228,19210,934,0,284,0.0009989999999999721
668000,7345,8011,129461,-3480,10263,123622,244,19242,999,0,285,0.0010000000000000009
669003,14310,11007,128332,7406,5045,125246,163,19219,668,0,286,0.0010030000000000872
670002,8275,-1517,126053,-4502,-5960,128351,185,19219,758,0,287,0.0009989999999999721
671000,4775,-7628,124751,466,-7334,127686,192,19221,758,0,288,0.0009979999999999434
672000,5823,-264,128324,620,1840,127813,193,19218,786,0,289,0.0010000000000000009
673000,9864,7739,129922,-5744,8770,123745,193,19224,790,0,290,0.0010000000000000009
674000,8966,5452,128008,-2608,630,126163,197,19219,807,0,291,0.0010000000000000009
675000,7930,-3809,126904,3958,-7207,129525,212,19216,868,0,292,0.0010000000000000009
676000,7936,-7374,126376,-385,-7139,128459,227,19216,930,0,293,0.0010000000000000009
677000,5983,-1066,127607,-6803,844,125865,240,19213,930,1,294,0.0010000000000000009
678000,6553,8584,129230,-4252,7924,124476,100,19213,983,1,295,0.0010000000000000009
679000,10696,4122,128038,3929,2379,126645,100,19229,410,1,296,0.0010000000000000009
680000,10738,-789,126105,1959,-2894,126248,163,19223,668,1,297,0.0010000000000000009
681000,5769,-4224,126275,484,-6085,127633,189,19220,774,1,298,0.0010000000000000009
682000,9294,-900,127616,-3628,1141,126336,192,19218,786,1,299,0.0010000000000000009
683001,9046,7295,130194,1003,6243,126411,195,19218,786,1,300,0.0010010000000000296
684000,10216,3640,128324,-451,1045,126864,198,19218,799,1,301,0.0009989999999999721
685000,6495,-2167,126619,-3373,-4830,126191,198,19216,811,1,302,0.0010000000000000009
686000,7181,-4180,127125,1739,-6191,130138,212,19212,868,1,303,0.0010000000000000009
687000,7847,-278,127333,1761,-636,126402,233,19218,954,0,304,0.0010000000000000009
688001,6971,6343,129734,-7951,5488,124446,95,19230,389,0,305,0.0010010000000000296
689000,15582,2247,130119,5623,1709,126568,181,19230,389,0,306,0.0009989999999999721
690000,5323,-401,126477,4835,-2058,126796,195,19224,741,0,307,0.0010000000000000009
691001,5385,-3821,127354,-6978,-4150,129516,195,19216,799,0,308,0.0010010000000000296
692000,4532,1517,127527,-3549,931,125375,199,19222,815,0,309,0.0009989999999999721
693000,11487,8066,129601,266,7865,125519,196,19215,803,0,310,0.0010000000000000009
694000,10141,1273,127587,-1039,-141,125884,206,19215,844,0,311,0.0010000000000000009
695002,7245,-4647,127058,836,-6406,131618,220,19215,844,0,312,0.0010020000000000584
696000,7501,-5917,127881,-2121,-3434,129563,240,19213,901,0,313,0.0009979999999999434
697002,5528,-1286,126608,-3442,7910,121341,240,19212,983,1,314,0.0010020000000000584
698000,7033,13733,130296,-4002,9125,125597,257,19243,1053,1,315,0.0009979999999999434
699000,14651,1046,126876,3893,-8500,129417,154,19220,631,1,316,0.0010000000000000009
700000,11425,-6526,125523,4439,-1645,124587,184,19225,754,1,317,0.0010000000000000009
701000,8104,2278,128118,753,-813,128700,199,19225,754,1,318,0.0010000000000000009
702000,6512,-2933,127413,-7600,-193,127277,200,19215,815,1,319,0.0010000000000000009
703000,7900,5054,131123,-4447,5315,128822,200,19223,819,1,320,0.0010000000000000009
704000,9468,1604,127941,8196,-109,125148,199,19217,815,1,321,0.0010000000000000009
705000,5689,2119,125493,-6045,234,123644,211,19213,864,1,322,0.0010000000000000009
706000,8041,-6074,127101,-5111,-9067,131799,232,19215,950,1,323,0.0010000000000000009
707000,8530,-2159,126348,7506,4183,123971,249,19215,950,0,324,0.0010000000000000009
708000,8274,8823,129487,-5407,6659,126259,147,19232,1020,0,325,0.0010000000000000009
709000,14301,3116,127139,2792,-3064,126638,147,19221,602,0,326,0.0010000000000000009
710000,7357,-4409,125354,6444,-5278,129614,178,19218,729,0,327,0.0010000000000000009
711000,6891,-2328,127233,-5589,500,126787,192,19223,786,0,328,0.0010000000000000009
712000,5988,4460,127575,-2678,4309,122533,198,19218,811,0,329,0.0010000000000000009
713000,10645,5309,128833,3343,3634,127722,203,19218,831,0,330,0.0010000000000000009
714000,9963,1483,127092,-4095,-1340,125901,214,19214,831,0,331,0.0010000000000000009
715000,8280,-2139,126671,1825,-4033,127882,225,19213,876,0,332,0.0010000000000000009
716000,9334,-3894,127054,3422,-4320,131123,225,19211,922,0,333,0.0010000000000000009
717000,8200,-1378,127913,-4931,2305,123911,241,19206,987,1,334,0.0010000000000000009
718000,7321,8512,129219,-2982,4505,125794,106,19235,434,1,335,0.0010000000000000009
719000,15959,-2782,127463,8958,-2390,127573,174,19235,713,1,336,0.0010000000000000009
720000,5186,-869,126862,414,-2510,126655,198,19220,713,1,337,0.0010000000000000009
721000,5422,-5265,126182,-7600,-3500,128343,204,19219,811,1,338,0.0010000000000000009
722000,5435,9281,129694,437,11051,124091,204,19213,836,1,339,0.0010000000000000009
723000,10739,4381,129246,-4747,-709,130329,202,19215,827,1,340,0.0010000000000000009
724000,11745,1526,127024,4778,2944,121757,204,19218,836,1,341,0.0010000000000000009
725000,6549,-3178,127485,855,-10181,132666,220,19218,901,1,342,0.0010000000000000009
726000,9549,-11296,126091,-5351,-7363,127796,246,19216,901,1,343,0.0010000000000000009
727000,4028,3976,129286,1608,3311,127973,190,19209,1008,0,344,0.0010000000000000009
728000,7824,5278,129347,-4247,7688,125498,190,19234,778,0,345,0.0010000000000000009
729000,11577,10154,126231,3348,5828,121671,172,19220,704,0,346,0.0010000000000000009
730001,7468,-8067,126469,2140,-10619,134248,191,19213,782,0,347,0.0010010000000000296
731002,8549,-2704,125525,3261,160,122072,199,19219,815,0,348,0.0010009999999999186
732000,5857,5421,128957,-6953,3819,127176,202,19219,815,0,349,0.0009980000000000544
733000,12904,6411,128946,-2312,5997,123606,210,19221,827,0,350,0.0010000000000000009
734000,6643,-1370,126989,4168,-5117,129996,210,19220,860,0,351,0.0010000000000000009
735000,7723,-6374,127305,-3735,-5815,128920,224,19222,917,0,352,0.0010000000000000009
736001,6533,-1489,127032,-1001,-2999,126201,235,19207,962,0,353,0.0010010000000000296
737000,7886,-1740,127831,-3403,-559,129853,246,19206,1008,1,354,0.0009989999999999721
738000,8279,11343,129759,-1604,10650,120340,146,19206,1008,1,355,0.0010000000000000009
739000,11279,386,126982,2889,-854,127747,165,19236,598,1,356,0.0010000000000000009
740000,11869,-912,126275,4831,-1980,127399,165,19224,676,1,357,0.0010000000000000009
741000,6555,-7411,125605,-1001,-8780,129135,192,19217,786,1,358,0.0010000000000000009
742000,9137,3532,128770,-1764,5460,122805,202,19213,827,1,359,0.0010000000000000009
743000,5806,9046,130720,-2108,-1125,130951,198,19224,811,1,360,0.0010000000000000009
744000,11693,-2426,127792,-2642,-1016,125413,198,19224,811,1,361,0.0010000000000000009
745000,7662,-362,127019,3818,-4467,129159,211,19212,811,1,362,0.0010000000000000009
746000,8933,-4857,126190,267,-1267,124524,211,19216,864,1,363,0.0010000000000000009
747000,9200,3213,127479,-2025,1144,126847,234,19205,958,0,364,0.0010000000000000009
748000,6617,821,128497,1902,3019,128371,86,19227,352,0,365,0.0010000000000000009
749000,13817,5415,129921,-1285,2970,123461,177,19218,725,0,366,0.0010000000000000009
750000,3402,-1203,127545,-140,-7596,132085,192,19218,725,0,367,0.0010000000000000009
751001,6183,-4391,127275,-2071,334,125906,194,19225,786,0,368,0.0010009999999999186
752000,6481,4941,127728,-3169,1555,126173,194,19223,795,0,369,0.0009990000000000832
753001,12691,6149,128588,952,6953,122234,194,19213,795,0,370,0.0010009999999999186
754000,8727,2841,127008,2041,-7637,129501,206,19217,844,0,371,0.0009990000000000832
755000,6964,-11304,127066,-2727,-6869,130365,224,19208,917,0,372,0.0010000000000000009
756001,6952,619,128876,-2494,791,128221,239,19208,979,0,373,0.0010009999999999186
757000,5421,1162,127972,-3992,4445,125615,150,19211,979,1,374,0.0009990000000000832
758000,12684,9823,130457,2804,6695,122753,165,19236,614,1,375,0.0010000000000000009
759000,13550,-3082,126785,5138,-8475,130327,165,19227,676,1,376,0.0010000000000000009
760002,7211,-6463,125909,-386,-5089,125872,186,19217,762,1,377,0.0010019999999999474
761000,4184,-2386,127392,-4891,-1077,129863,198,19215,811,1,378,0.0009980000000000544
762000,4543,7667,128916,-5905,13251,122148,197,19215,807,1,379,0.0010000000000000009
763000,10503,13280,129671,-12,4509,126342,196,19228,807,1,380,0.0010000000000000009
764000,8378,-4883,127016,1068,-7853,129995,208,19220,803,1,381,0.0010000000000000009
765000,10679,-9275,126372,2531,-11382,129250,208,19219,852,1,382,0.0010000000000000009
766000,8618,-7991,126730,649,-3966,127713,226,19222,926,1,383,0.0010000000000000009
767001,6973,9007,129746,-7297,11563,122190,244,19225,999,0,384,0.0010009999999999186
768000,4180,6720,128907,-1153,2884,128159,141,19225,577,0,385,0.0009990000000000832
769002,10966,3031,125990,2781,1564,125776,171,19233,577,0,386,0.0010019999999999474
770000,6549,-2477,126492,2637,-6193,128656,187,19220,700,0,387,0.0009980000000000544
771000,9255,-5250,125734,582,-2385,124766,187,19223,766,0,388,0.0010000000000000009
772002,11353,5059,129153,-730,3599,126685,192,19221,786,0,389,0.0010019999999999474
773000,12213,2944,128296,283,3255,125907,195,19216,799,0,390,0.0009980000000000544
774000,7613,4249,128006,-1160,840,125390,204,19214,836,0,391,0.0009999999999998899
775000,3605,-5357,126944,-1797,-7682,132138,222,19214,836,0,392,0.0010000000000000009
776000,6710,-3476,126911,-4876,-1666,125914,215,19214,909,1,393,0.0010000000000000009
777000,8126,2756,128325,1708,1887,127388,215,19238,881,1,394,0.0010000000000000009
778000,17192,5106,129066,5699,6434,122776,158,19216,647,1,395,0.0010000000000000009
779003,9000,-880,126667,-994,-3985,127331,187,19219,766,1,396,0.0010030000000000872
780000,3552,-4752,126637,-1203,-4653,129611,192,19218,786,1,397,0.0009969999999999146
781000,4730,4113,128262,-5141,4547,125816,190,19218,786,1,398,0.0010000000000000009
782001,7881,7054,129300,-3916,6292,125434,196,19218,778,1,399,0.0010010000000000296
783000,9636,3837,128179,-253,1183,124986,196,19218,803,1,400,0.0009989999999999721
784002,8905,-9198,126465,3245,-10790,131375,209,19214,856,1,401,0.0010020000000000584
785003,8439,-6027,126984,-1445,-5859,128727,225,19207,922,1,402,0.0010010000000000296
786000,6602,1571,128747,-3558,2554,124722,242,19233,991,0,403,0.0009969999999999146
787000,6889,11240,129831,-4519,11513,123748,146,19233,991,0,404,0.0010000000000000009
788000,13743,2805,126130,6215,378,128027,175,19225,598,0,405,0.0010000000000000009
789001,6167,-3634,126748,-305,-6897,127998,175,19219,717,0,406,0.0010010000000000296
790003,5838,-6533,125892,-50,-1651,127405,192,19217,786,0,407,0.0010020000000000584
791002,5648,4562,128593,-4002,8466,125053,199,19225,815,0,408,0.0009989999999999721
792000,10669,9072,130082,-4127,3217,125604,200,19216,819,0,409,0.0009979999999999434
793000,9716,-605,126777,1606,-4132,128730,205,19216,819,0,410,0.0010000000000000009
794000,7753,-5158,126673,2177,-7907,128901,218,19213,840,0,411,0.0010000000000000009
795000,7758,-5910,126771,-3443,-2548,126896,218,19206,893,0,412,0.0010000000000000009
796000,6447,2701,128425,-3987,7259,125221,230,19220,942,1,413,0.0010000000000000009
797000,4686,8249,129394,-573,3119,125757,156,19228,639,1,414,0.0010000000000000009
798000,12580,1877,125687,2939,-1280,126430,161,19221,659,1,415,0.0010000000000000009
799001,8356,-1464,126132,1232,-2686,126667,184,19221,659,1,416,0.0010010000000000296
800000,7960,-2579,125923,57,-1661,126157,189,19213,754,1,417,0.0009989999999999721
801000,10242,3283,128965,-1555,4543,126748,189,19212,774,1,418,0.0010000000000000009
802001,9308,3066,129388,-449,551,127900,191,19223,782,1,419,0.0010010000000000296
803000,8640,-5,126713,-1671,-2014,126404,193,19223,790,1,420,0.0009989999999999721
804000,6304,-1286,126982,-422,-2321,127890,208,19212,852,1,421,0.0010000000000000009
805000,8536,-1362,127410,186,-1255,127194,233,19212,954,1,422,0.0010000000000000009
806000,6569,671,127459,-3302,828,126543,126,19208,954,0,423,0.0010000000000000009
807000,12753,6341,128019,934,5509,125412,169,19231,516,0,424,0.0010000000000000009
808000,12523,344,126657,4893,-3773,128715,169,19220,692,0,425,0.0010000000000000009
809001,4736,-2426,126961,-5525,-2830,127529,191,19216,782,0,426,0.0010010000000000296
810000,5449,1245,127468,-3755,1946,126623,196,19222,803,0,427,0.0009989999999999721
811000,4331,5401,128805,-583,5568,125864,197,19222,807,0,428,0.0010000000000000009
812000,11292,4774,128236,-2237,-362,125965,206,19220,807,0,429,0.0010000000000000009
813000,8288,-3897,127532,-217,-5300,127807,221,19216,844,0,430,0.0010000000000000009
814000,7890,-4981,127676,1922,-5127,129015,221,19214,905,0,431,0.0010000000000000009
815000,6267,-569,128512,-3951,-170,128512,235,19215,962,0,432,0.0010000000000000009
816000,5727,3685,129238,-6814,5074,126348,247,19216,1012,1,433,0.0010000000000000009
817000,7066,3775,127804,310,-255,126269,111,19216,455,1,434,0.0010000000000000009
818000,14129,2146,125663,10721,3663,121634,173,19218,455,1,435,0.0010000000000000009
819001,11664,-1495,126567,-5113,-5215,130389,195,19222,709,1,436,0.0010010000000000296
820000,9213,-6937,126460,3310,-3511,128806,195,19220,799,1,437,0.0009989999999999721
821000,2698,8327,130143,-350,7121,124166,205,19220,840,1,438,0.0010000000000000009
822000,11784,3970,129573,-12986,1678,129181,201,19224,823,1,439,0.0010000000000000009
823000,5279,-3240,126864,8841,-5503,127488,205,19217,840,1,440,0.0010000000000000009
824003,7981,-5980,126426,1524,-6561,130552,222,19217,840,1,441,0.0010029999999999761
825009,8406,1943,125624,-9752,5728,118483,238,19208,909,1,442,0.0010060000000000624
826000,5275,9904,129665,-372,5489,126725,238,19208,975,0,443,0.0009909999999999641
827000,10851,-2747,127670,7180,-2565,131049,135,19235,553,0,444,0.0010000000000000009
828000,10587,1872,126990,1246,1498,124203,175,19222,717,0,445,0.0010000000000000009
829000,7179,-1191,128634,-7265,-2950,127906,191,19218,782,0,446,0.0010000000000000009
830000,8237,-3067,126437,9478,-3304,126355,196,19218,782,0,447,0.0010000000000000009
831000,7230,2349,129409,-2137,2892,128063,198,19216,803,0,448,0.0010000000000000009
832000,9672,7560,127137,-9616,6157,121874,198,19216,811,0,449,0.0010000000000000009
833000,8237,1753,126585,1571,465,130757,205,19227,840,0,450,0.0010000000000000009
834000,10297,-3358,127985,7507,-5174,129239,224,19220,917,0,451,0.0010000000000000009
835000,8158,-4170,126217,-2893,-4687,126143,240,19210,983,0,452,0.0010000000000000009
836000,7935,1664,129491,-6128,1601,128170,225,19210,983,1,453,0.0010000000000000009
837003,9698,3689,128154,3570,838,123824,161,19240,922,1,454,0.0010029999999999761
838002,14560,1859,128069,5629,2636,125816,161,19219,659,1,455,0.0009989999999999721
839008,4151,140,127984,-1636,-8893,130799,189,19218,774,1,456,0.0010060000000000624
840000,3914,-7159,124788,-6936,1746,124744,197,19221,807,1,457,0.0009919999999999929
841000,6599,10864,130952,231,9963,127638,203,19221,831,1,458,0.0010000000000000009
842000,12740,5211,129118,-1316,1725,123449,207,19221,831,1,459,0.0010000000000000009
843000,9120,800,126878,1132,-6354,129378,219,19222,848,1,460,0.0010000000000000009
844000,7911,-12212,126791,-1706,-11980,132441,219,19216,897,1,461,0.0010000000000000009
845000,9760,-2152,126833,1510,6240,121472,233,19210,954,1,462,0.0010000000000000009
846002,4051,7834,129790,-5215,2852,130150,252,19236,1032,0,463,0.0010019999999999474
847000,11565,1653,129413,-5248,2414,122732,155,19220,635,0,464,0.0009980000000000544
848000,11316,1176,127661,5201,-3070,130473,185,19220,758,0,465,0.0010000000000000009
849000,8280,-4054,126935,4174,-3345,125795,200,19215,758,0,466,0.0010000000000000009
850001,7178,1605,125452,-4082,1657,124579,205,19216,819,0,467,0.0010010000000000296
851000,5477,2771,129271,-6921,4029,128156,205,19219,840,0,468,0.0009989999999999721
852001,12393,8171,128856,5506,4002,122897,204,19215,836,0,469,0.0010010000000000296
853001,7100,-1824,127138,-311,-7214,131566,214,19209,876,0,470,0.0010000000000000009
854000,6079,-6852,127947,-4537,-5976,127664,228,19209,934,0,471,0.0009989999999999721
855000,6991,-6457,126563,-681,-4416,130057,241,19217,934,0,472,0.0010000000000000009
856000,9953,4245,129201,-3568,10458,123745,258,19217,987,1,473,0.0010000000000000009
857000,7419,11403,128689,643,4952,122416,258,19240,1057,1,474,0.0010000000000000009
858000,12542,-1409,125455,3412,-3330,128588,153,19225,627,1,475,0.0010000000000000009
859000,10175,-2147,126512,11,-4449,127097,184,19216,754,1,476,0.0010000000000000009
860000,7860,-6268,125796,2361,-4667,129144,195,19216,799,1,477,0.0010000000000000009
861000,8610,7299,130320,-1937,9403,123751,194,19216,799,1,478,0.0010000000000000009
862000,6847,4740,130089,-5290,219,129355,195,19218,795,1,479,0.0010000000000000009
863000,10432,-1143,127386,521,-1911,126882,195,19218,799,1,480,0.0010000000000000009
864000,7370,-1759,126963,5446,-4211,128723,207,19212,848,1,481,0.0010000000000000009
865000,9609,-3993,126167,-2774,-2421,124833,232,19218,950,1,482,0.0010000000000000009
866000,8057,4198,127717,-2730,2962,125535,239,19238,979,0,483,0.0010000000000000009
867000,12233,4200,127361,2571,3323,128679,169,19238,979,0,484,0.0010000000000000009
868000,11851,2996,127420,-517,571,125685,187,19224,692,0,485,0.0010000000000000009
869002,3762,-3423,127176,-174,-5561,129708,187,19223,766,0,486,0.0010019999999999474
870000,5947,-166,126847,-4383,1021,126140,192,19219,786,0,487,0.0009980000000000544
871000,7008,3877,128280,-1880,2939,126124,196,19217,803,0,488,0.0010000000000000009
872000,12642,6210,128332,2179,5494,123600,206,19225,844,0,489,0.0010000000000000009
873000,8134,-1992,127180,757,-5514,127908,219,19225,844,0,490,0.0010000000000000009
874000,5658,-8067,126777,-3138,-8098,130576,233,19210,897,0,491,0.0010000000000000009
875001,6397,-375,129179,-2036,-125,129259,233,19213,954,1,492,0.0010009999999999186
876002,7096,4456,128976,-3295,5422,125174,241,19243,987,1,493,0.0010010000000000296
877000,15337,9464,128771,1981,7076,122144,145,19224,594,1,494,0.0009980000000000544
878000,10902,-5124,126074,4514,-7882,130104,182,19221,745,1,495,0.0010000000000000009
879000,6818,-7017,125657,109,-7042,127026,200,19221,745,1,496,0.0010000000000000009
880000,4044,1333,128035,-4540,1363,126298,204,19223,819,1,497,0.0010000000000000009
881000,6186,10595,130172,-5498,11090,123890,204,19218,836,1,498,0.0010000000000000009
882000,9372,6756,128705,-1177,3897,128876,196,19216,803,1,499,0.0010000000000000009
883000,8920,-5415,126513,1218,-7079,128814,199,19214,815,1,500,0.0010000000000000009
884000,10342,-8229,126250,3586,-9089,128578,216,19204,885,1,501,0.0010000000000000009
885000,7364,-3811,127121,-1085,3862,125184,238,19204,885,1,502,0.0010000000000000009
886002,7138,9273,129983,-7303,8107,124703,137,19203,975,0,503,0.0010019999999999474
887000,8421,5100,129637,1534,3129,128701,137,19234,561,0,504,0.0009980000000000544
888000,8528,1756,127571,2337,-6060,126227,168,19219,688,0,505,0.0010000000000000009
889000,7991,-7178,125443,3614,-6259,128804,181,19225,741,0,506,0.0010000000000000009
890001,9898,1125,126600,28,6528,122744,185,19217,758,0,507,0.0010009999999999186
891000,10870,6462,129164,120,1910,127832,188,19217,758,0,508,0.0009990000000000832
892000,10749,1756,128564,-819,1050,126162,200,19222,770,0,509,0.0010000000000000009
893000,6254,-1550,126929,-1172,-5780,129487,200,19214,819,0,510,0.0009999999999998899
894000,4070,-4648,127201,-2123,-2323,127742,217,19222,889,0,511,0.0010000000000000009
895000,6891,2161,128041,-2789,1934,126615,232,19220,950,1,512,0.0010000000000000009
896000,10774,2074,127770,2836,2481,126251,126,19223,516,1,513,0.0010000000000000009
897000,15193,3965,128803,2474,1089,124422,172,19223,704,1,514,0.0010000000000000009
898000,6628,-3523,126360,2266,-5754,129218,189,19221,704,1,515,0.0010000000000000009
899000,4064,-1753,126666,-6413,584,126709,195,19220,774,1,516,0.0010000000000000009
900000,4218,4897,128858,-5254,4982,127075,195,19220,799,1,517,0.0010000000000000009
901000,10465,7771,129361,-15,7586,123160,196,19218,803,1,518,0.0010000000000000009
902000,9679,1628,127939,2065,-6959,128734,201,19217,823,1,519,0.0010000000000000009
903001,7825,-11328,126512,1271,-11119,131655,216,19217,885,1,520,0.0010010000000000296
904001,7844,-5997,127580,-3245,-3074,128152,234,19212,885,1,521,0.0010000000000000009
905000,6542,4577,129145,-4328,8098,124967,89,19215,958,0,522,0.0009989999999999721
906000,13592,11327,130486,2781,8541,123110,89,19234,365,0,523,0.0010000000000000009
907001,10553,-81,127069,-684,-4067,128103,172,19219,704,0,524,0.0010010000000000296
908002,6037,-5637,126433,-1000,-7093,128159,192,19219,786,0,525,0.0010010000000000296
909000,5586,-3069,126388,-329,-1203,128164,197,19221,807,0,526,0.0009979999999999434
910000,5979,6169,129618,-3865,8876,124476,195,19221,807,0,527,0.0010000000000000009
911000,10782,7050,129074,-2848,2638,125923,200,19218,799,0,528,0.0010000000000000009
912000,8144,-2439,127110,1975,-4402,128671,200,19211,819,0,529,0.0010000000000000009
913002,7828,-7329,126934,1931,-8945,129586,211,19220,864,0,530,0.0010020000000000584
914000,6153,-4416,126714,-4690,-1880,126437,229,19212,938,0,531,0.0009979999999999434
915000,6893,7524,129630,-6156,8376,124543,247,19240,1012,1,532,0.0010000000000000009
916000,7166,5925,128293,1723,3476,126189,148,19240,1012,1,533,0.0010000000000000009
917000,12442,1907,125241,4669,-590,126129,177,19224,606,1,534,0.0010000000000000009
918000,7061,-4603,126319,299,-5527,127678,177,19226,725,1,535,0.0010000000000000009
919000,7791,-3084,126983,-2165,-2680,125703,188,19222,770,1,536,0.0010000000000000009
920000,8923,4474,130092,-295,4410,127839,189,19222,774,1,537,0.0010000000000000009
921000,10334,7381,130083,-1307,4403,125096,192,19220,786,1,538,0.0010000000000000009
922000,7204,-2340,125646,-1646,-5119,128123,202,19220,786,1,539,0.0010000000000000009
923000,6319,-2001,127195,-364,-2299,127084,223,19217,827,1,540,0.0010000000000000009
924000,9307,-1970,126659,2907,-2941,127429,223,19211,913,0,541,0.0010000000000000009
925000,6401,1041,128195,-5595,1558,127196,244,19242,999,0,542,0.0010000000000000009
926000,16825,6164,128989,-1166,7024,124428,158,19221,647,0,543,0.0010000000000000009
927000,8261,-1152,127010,3605,-1997,126873,183,19220,750,0,544,0.0010000000000000009
928000,3670,288,127110,-2188,-1532,128222,196,19220,750,0,545,0.0010000000000000009
929000,4119,-2666,127618,-5481,-3429,128235,199,19218,803,0,546,0.0010000000000000009
930000,9074,4664,128654,-2312,5353,123039,199,19218,815,0,547,0.0010000000000000009
931000,10652,5018,128363,1309,3016,126291,201,19216,823,0,548,0.0010000000000000009
932000,7907,-2976,126488,-1303,-8563,129807,211,19218,864,0,549,0.0010000000000000009
933000,7582,-7576,126527,1433,-2220,128212,230,19216,942,0,550,0.0010000000000000009
934000,5350,3119,128415,-5268,5378,126684,244,19216,942,0,551,0.0010000000000000009
935000,7120,7385,129143,-5295,6493,124131,137,19209,999,1,552,0.0010000000000000009
936000,10368,3720,128652,6324,-1529,126717,137,19236,561,1,553,0.0010000000000000009
937000,12883,-6129,125209,1295,-9787,129257,166,19220,680,1,554,0.0010000000000000009
938003,8045,-6108,126001,3085,-983,125144,191,19210,782,1,555,0.0010029999999999761
939000,7630,3436,128434,-5688,4799,129001,200,19221,819,1,556,0.0009970000000000256
940002,7881,8923,130104,-4497,10749,122695,196,19221,803,1,557,0.0010020000000000584
941000,8205,8840,129030,-581,-1502,128466,202,19219,803,1,558,0.0009979999999999434
942000,9378,-8351,126579,1758,-10277,129886,221,19219,827,1,559,0.0010000000000000009
943000,5059,-8491,125990,2909,-9320,129048,221,19216,905,1,560,0.0010000000000000009
944000,8082,-3513,127462,-7722,4368,124835,239,19211,979,1,561,0.0010000000000000009
945000,7259,12449,129445,-5151,12872,121381,255,19253,1044,0,562,0.0010000000000000009
946000,13804,7048,129732,7612,602,129704,163,19253,668,0,563,0.0010000000000000009
947000,11318,-4301,125523,-3588,-5781,127232,183,19216,668,0,564,0.0010000000000000009
948000,6495,-5943,126596,-386,-6298,128336,193,19220,750,0,565,0.0010000000000000009
949000,8373,-977,126998,4367,1726,126430,193,19225,790,0,566,0.0010000000000000009
950000,7413,5991,129397,-2888,5450,126207,202,19216,827,0,567,0.0010000000000000009
951000,8127,3306,128147,-5609,1364,125435,208,19216,852,0,568,0.0010000000000000009
952000,7352,1585,126026,3121,-50,126094,214,19216,876,0,569,0.0010000000000000009
953000,9294,-4151,126910,2087,-4898,130108,229,19216,876,0,570,0.0010000000000000009
954000,9181,-2497,127827,-777,-415,126001,245,19211,938,1,571,0.0010000000000000009
955000,7925,3823,129252,-4225,1111,126980,245,19235,1003,1,572,0.0010000000000000009
956000,13508,-150,126979,3179,-918,128140,141,19226,577,1,573,0.0010000000000000009
957000,9120,1303,126824,4312,-241,124736,187,19223,766,1,574,0.0010000000000000009
958000,4450,-2937,126208,-3605,-5040,130672,202,19216,827,1,575,0.0010000000000000009
959000,5381,2566,127451,-6075,6827,122619,202,19216,827,1,576,0.0010000000000000009
960000,7317,10610,129852,-1510,6289,127936,199,19215,827,1,577,0.0010000000000000009
961000,14531,897,127867,2183,862,124626,199,19216,815,1,578,0.0010000000000000009
962002,6770,-1862,127787,3967,-7380,129361,222,19211,909,1,579,0.0010019999999999474
963000,8071,-15247,126317,-5234,-14653,134066,231,19213,946,1,580,0.0009980000000000544
964001,6457,2498,128170,676,6195,122387,252,19212,1032,0,581,0.0010010000000000296
965000,5822,9170,129876,-4587,7681,127545,63,19212,1032,0,582,0.0009989999999999721
966000,15088,8856,126474,-1707,5502,120436,179,19226,258,0,583,0.0010000000000000009
967000,8248,-3948,126353,1181,-7996,132441,179,19219,733,0,584,0.0010000000000000009
968003,7839,-7110,125155,5882,-5976,127420,196,19221,803,0,585,0.0010029999999999761
969000,5142,4601,128360,-3074,5011,123879,200,19224,819,0,586,0.0009970000000000256
970000,10628,4443,129750,-8432,4347,128267,206,19212,844,0,587,0.0010000000000000009
971000,9531,4234,126813,5366,1542,123638,214,19212,844,0,588,0.0010000000000000009
972000,7753,-4130,127203,-618,-5630,130420,227,19214,876,0,589,0.0010000000000000009
973000,8206,-4655,126682,-1778,-5297,126478,227,19209,930,0,590,0.0010000000000000009
974000,5991,-3309,127478,-2462,-3445,128478,239,19210,979,0,591,0.0010000000000000009
975002,8914,8319,130157,-3566,8931,122874,251,19222,1028,1,592,0.0010019999999999474
976002,6399,4814,126940,1252,2506,127445,118,19224,483,1,593,0.0010000000000000009
977000,14334,-1906,125550,5574,-3021,126725,172,19224,483,1,594,0.0009980000000000544
978000,8412,-4226,126169,332,-5381,127714,196,19222,704,1,595,0.0010000000000000009
979000,9904,-1154,127091,-171,7379,124414,196,19222,803,1,596,0.0010000000000000009
980000,6967,10441,130925,-1278,3368,128185,196,19216,803,1,597,0.0010000000000000009
981000,9238,-299,128529,-4257,-1967,128458,195,19218,799,1,598,0.0010000000000000009
982000,7826,-383,127523,871,-3031,127474,200,19220,819,1,599,0.0010000000000000009
983000,7670,-4217,126605,527,-5872,128049,218,19220,819,1,600,0.0010000000000000009
984000,11068,-1177,126389,-983,1909,124619,244,19207,893,0,601,0.0010000000000000009
985000,6907,2929,128441,476,1340,126615,244,19230,999,0,602,0.0010000000000000009
986000,16140,5132,130101,1265,4542,123334,163,19224,668,0,603,0.0010000000000000009
987000,5633,394,127587,868,-5831,131602,188,19218,770,0,604,0.0010000000000000009
988000,3486,-5539,126650,-2101,-3796,127660,192,19229,786,0,605,0.0010000000000000009
989000,5613,510,127659,-3956,3896,125894,191,19229,782,0,606,0.0010000000000000009
990000,10695,5236,128813,-731,6830,123306,193,19219,782,0,607,0.0010000000000000009
991000,13214,5017,126984,3622,-1955,125071,213,19219,790,0,608,0.0010000000000000009
992000,7538,-7356,125761,-167,-8836,132349,213,19220,872,0,609,0.0010000000000000009
993000,6411,-3551,127705,-5096,106,126018,233,19218,954,0,610,0.0010000000000000009
994000,4924,2018,128402,-3272,1082,129396,246,19230,1008,1,611,0.0010000000000000009
995000,8268,5887,129766,216,8005,123960,127,19230,520,1,612,0.0010000000000000009
996000,15522,3274,126943,8092,-3733,126782,172,19225,520,1,613,0.0010000000000000009
997000,7313,-7341,125392,85,-8032,128312,192,19216,704,1,614,0.0010000000000000009
998000,6166,-2865,126348,-4898,-619,125998,192,19219,786,1,615,0.0010000000000000009
999000,4407,4933,128871,-3916,8522,126263,199,19217,815,1,616,0.0010000000000000009
1000000,10011,13719,130107,-2911,10471,123398,199,19224,815,1,617,0.0010000000000000009
1001000,7791,401,127194,440,-6176,129889,200,19219,819,1,618,0.0009999999999998899
1002001,9177,-10706,126205,2125,-12309,129960,213,19219,819,1,619,0.0010010000000000296
1003002,9797,-8685,126695,2144,-6755,128518,232,19222,872,1,620,0.0010010000000000296
1004000,6530,2702,128418,-5674,7227,123903,232,19209,950,0,621,0.0009980000000000544
1005000,5841,11452,129534,-7258,8451,123858,250,19241,1024,0,622,0.0009999999999998899
1006000,11318,5684,126442,5005,2259,127692,157,19228,643,0,623,0.001000000000000112
1007000,7945,-2068,125656,-897,-4845,127725,180,19218,737,0,624,0.0009999999999998899
1008001,7037,-6284,124717,3395,-6623,127269,185,19218,737,0,625,0.0010010000000000296
1009000,10575,701,128584,-942,3071,126197,192,19218,758,0,626,0.0009989999999999721
1010000,12778,4827,129391,48,4159,125308,192,19218,786,0,627,0.001000000000000112
1011000,8516,4410,127355,-658,1723,125961,194,19225,795,0,628,0.0009999999999998899
1012000,5402,-3450,126905,-2110,-5154,129281,207,19222,848,0,629,0.001000000000000112
1013000,5280,-4029,126594,-2463,-4265,128016,224,19220,917,1,630,0.0009999999999998899
1014000,8059,2260,128207,-2208,2156,126880,103,19220,917,1,631,0.001000000000000112
1015000,15275,4760,127786,4514,4419,124573,169,19227,422,1,632,0.0009999999999998899
1016000,11011,353,126963,-420,-2628,126749,169,19220,692,1,633,0.001000000000000112
1017000,4592,-4947,126079,963,-5203,128805,189,19215,774,1,634,0.0009999999999998899
1018000,3848,2195,127878,-5339,2651,126199,193,19214,790,1,635,0.001000000000000112
1019000,6902,7173,128750,-5429,7017,125619,190,19217,778,1,636,0.0009999999999998899
1020002,10526,5231,128248,-95,4062,123982,195,19217,778,1,637,0.0010019999999999474
1021002,9794,-6175,126880,3196,-8290,131414,212,19217,799,1,638,0.001000000000000112
1022002,7024,-11806,126425,1134,-12500,129037,212,19216,868,1,639,0.0009999999999998899
1023002,5605,-869,128923,-4585,-380,127801,235,19206,962,0,640,0.001000000000000112
1024000,7401,7756,129058,-6577,8151,121638,169,19236,692,0,641,0.0009980000000000544
1025002,14701,12210,127523,4734,8967,126952,162,19220,664,0,642,0.0010019999999999474
1026002,7850,-3109,126126,-804,-7770,127954,184,19220,664,0,643,0.0009999999999998899
1027000,4949,-7467,124766,-587,-5846,128489,191,19216,754,0,644,0.0009980000000000544
1028000,5621,-1308,128622,-1728,4142,127301,191,19220,782,0,645,0.001000000000000112
1029001,9688,9141,130346,-2698,9504,122744,196,19214,803,0,646,0.0010010000000000296
1030000,8989,5118,127605,-2492,-2704,128497,201,19224,823,0,647,0.0009989999999999721
1031000,7541,-4809,126741,2081,-8027,128715,211,19213,864,0,648,0.0009999999999998899
1032000,8449,-7383,126191,253,-5945,129057,224,19213,917,0,649,0.001000000000000112
1033000,6792,-572,127653,-6291,5796,123657,237,19212,917,1,650,0.0009999999999998899
1034000,6063,10139,129539,-3320,6123,125422,117,19220,971,1,651,0.001000000000000112
1035000,11372,1578,127475,4736,-806,128232,117,19231,479,1,652,0.0009999999999998899
1036000,9534,-1457,126042,1012,-3222,125995,172,19218,704,1,653,0.001000000000000112
1037000,5927,-2810,126129,-336,-4349,127538,189,19220,774,1,654,0.0009999999999998899
1038000,9565,-52,127308,-3518,4644,124583,193,19220,790,1,655,0.001000000000000112
1039000,9722,6925,130343,1369,4559,128053,192,19216,790,1,656,0.0009999999999998899
1040000,10822,2815,127699,271,-672,125854,197,19219,786,1,657,0.001000000000000112
1041002,6667,-2117,126429,-1349,-4144,127192,197,19212,807,1,658,0.0010019999999999474
1042000,6550,-4840,127051,413,-6562,130353,214,19209,876,1,659,0.0009980000000000544
1043000,7237,-1343,126768,-459,1644,125592,237,19225,971,0,660,0.0009999999999998899
1044000,7746,7794,129786,-3482,7413,124078,141,19225,577,0,661,0.001000000000000112
1045000,14913,2749,129199,7179,-636,125922,184,19229,577,0,662,0.0009999999999998899
1046001,4669,-967,126424,557,-2877,127983,192,19210,754,0,663,0.0010010000000000296
1047007,6251,-4244,127274,-7056,-3689,129068,192,19216,786,0,664,0.0010060000000000624
1048002,4818,1704,127834,-923,3686,125443,194,19217,795,0,665,0.0009949999999998571
1049001,11440,8391,129993,-917,5968,125500,196,19217,803,0,666,0.0009989999999999721
1050001,8908,-718,127179,-1765,-2620,125628,209,19217,856,0,667,0.001000000000000112
1051000,6791,-4501,127249,723,-7429,130684,228,19217,856,0,668,0.0009989999999999721
1052000,7282,-4974,127777,-2960,-2509,129126,243,19209,934,0,669,0.001000000000000112
1053000,5633,2635,128464,-5283,4126,125573,243,19211,995,1,670,0.0009999999999998899
1054000,7399,4019,127907,858,4108,124011,219,19240,897,1,671,0.001000000000000112
1055000,13777,6288,126770,4266,2213,123753,159,19224,651,1,672,0.0009999999999998899
1056000,12827,-6499,126062,491,-8984,131771,186,19218,762,1,673,0.001000000000000112
1057000,6024,-665,127065,5652,1189,124428,200,19218,762,1,674,0.0009999999999998899
1058000,6263,4088,128689,-8419,3028,127506,203,19220,819,1,675,0.001000000000000112
1059000,8276,5158,130447,-7778,3556,127008,203,19223,831,1,676,0.0009999999999998899
1060000,8031,-3945,127414,7948,-6644,130599,204,19212,836,1,677,0.001000000000000112
1061001,8111,-2377,126423,-713,-1297,125951,212,19219,868,1,678,0.0010009999999998076
1062000,5782,2183,126489,-8319,1130,122688,230,19210,942,1,679,0.0009990000000001942
1063000,8371,1987,127993,370,982,128037,248,19210,942,0,680,0.0009999999999998899
1064002,9421,2606,127850,1097,2280,128126,155,19237,1016,0,681,0.0010019999999999474
1065003,12906,2510,126528,2089,-821,126775,155,19222,635,0,682,0.0010010000000000296
1066000,7109,-2392,126385,-5417,-3444,126458,180,19222,737,0,683,0.0009970000000001367
1067000,7956,-3429,127081,5682,-3696,128834,196,19220,803,0,684,0.0009999999999998899
1068000,6569,2819,128348,175,2740,126166,197,19222,807,0,685,0.001000000000000112
1069003,9538,6839,128211,-8044,5935,124262,202,19222,807,0,686,0.0010029999999998651
1070000,9626,1921,126562,491,332,128468,211,19212,827,0,687,0.0009970000000001367
1071000,8750,-1905,127084,5598,-3353,128290,211,19212,864,0,688,0.0009999999999998899
1072000,9626,-4011,126971,-2181,-4430,128342,225,19217,922,0,689,0.0009999999999998899
1073000,7919,-905,128599,-2293,2256,126827,247,19216,1012,1,690,0.001000000000000112
1074000,7117,4853,128679,-208,1281,125259,94,19228,385,1,691,0.0009999999999998899
1075000,15727,243,127887,597,357,125677,178,19228,385,1,692,0.001000000000000112
1076000,5327,313,127436,2799,-4044,129296,197,19219,729,1,693,0.0009999999999998899
1077000,5571,-5690,125913,-4870,-2928,126912,200,19214,807,1,694,0.001000000000000112
1078002,5712,6461,129191,-2319,11140,124979,200,19218,819,1,695,0.0010019999999999474
1079000,10498,6905,129538,-2436,422,127217,201,19218,823,1,696,0.0009980000000000544
1080000,11292,1364,126869,5371,-105,124372,206,19212,844,1,697,0.0009999999999998899
1081000,7045,-5400,127533,-2702,-12933,134740,227,19212,930,1,698,0.001000000000000112
1082000,9398,-9615,125933,-2283,-929,123046,244,19206,930,1,699,0.0009999999999998899
1083000,4221,7796,129763,-550,4772,129079,113,19202,999,0,700,0.001000000000000112
1084000,9024,1974,129487,-1760,3510,124771,113,19232,463,0,701,0.0009999999999998899
1085000,12010,5616,127320,1684,894,125516,172,19224,704,0,702,0.001000000000000112
1086000,6673,-5190,126819,2719,-6479,131439,192,19221,786,0,703,0.0009999999999998899
1087000,7849,-2417,125610,-1366,4196,120701,202,19221,827,0,704,0.001000000000000112
1088004,5695,5550,128791,-6024,3654,129536,206,19221,827,0,705,0.0010040000000000049
1089000,13394,2821,128132,660,4481,122081,208,19214,844,0,706,0.0009959999999999969
1090000,8014,3004,127833,3044,-4689,131124,208,19217,852,0,707,0.0009999999999998899
1091000,6465,-10629,126409,-3399,-9569,129748,220,19208,901,0,708,0.001000000000000112
1092000,7224,-1581,127250,-2546,-605,125929,232,19207,950,0,709,0.0009999999999998899
1093000,6510,-6,128805,-894,2674,129337,248,19207,1016,1,710,0.001000000000000112
1094004,8377,11508,129107,-4897,10143,118798,121,19211,1016,1,711,0.0010040000000000049
1095000,12374,-110,127029,6343,-4807,131078,171,19238,496,1,712,0.0009959999999999969
1096000,11323,-2781,125774,2613,-1539,123710,171,19217,700,1,713,0.0009999999999998899
1097000,8139,-3185,126004,-200,-6771,129656,190,19211,778,1,714,0.001000000000000112
1098003,7218,362,128706,-1183,5988,126133,196,19229,803,1,715,0.0010029999999998651
1099000,7138,9882,130819,-5405,5256,127056,193,19219,790,1,716,0.0009970000000001367
1100000,10495,-2160,127665,1601,-2477,128909,198,19219,790,1,717,0.0009999999999998899
1101000,7819,1045,127149,2206,-1112,125023,216,19217,811,1,718,0.001000000000000112
1102001,9708,-7355,125812,-95,-8385,130176,216,19212,885,1,719,0.0010010000000000296
1103000,8839,2436,127146,-1236,4536,123022,241,19209,987,0,720,0.0009989999999999721
1104000,9210,5415,128403,2635,2351,128545,73,19224,299,0,721,0.0009999999999998899
1105000,12780,3796,128490,884,2677,123849,181,19215,741,0,722,0.001000000000000112
1106003,3898,-986,127486,-1250,-5089,130482,191,19215,741,0,723,0.0010029999999998651
1107001,5831,-5308,126965,-2937,-3319,127901,190,19219,782,0,724,0.0009980000000000544
1108000,6254,6362,128483,-3480,5620,123249,190,19221,778,0,725,0.0009989999999999721
1109000,12899,3627,128182,1506,2524,126666,199,19211,815,0,726,0.001000000000000112
1110002,7069,1284,127067,2941,-1240,124360,215,19214,881,0,727,0.0010019999999999474
1111000,6210,-7580,127022,-5266,-8929,132749,228,19217,934,0,728,0.0009980000000000544
1112000,8056,44,128264,-3106,1703,126038,239,19217,934,1,729,0.0009999999999998899
1113000,7365,3656,129173,1920,2391,128161,107,19212,979,1,730,0.001000000000000112
1114000,13835,5014,129513,-415,5642,124022,107,19231,438,1,731,0.0009999999999998899
1115000,11738,-1736,126812,4699,-4545,127019,164,19218,672,1,732,0.001000000000000112
1116003,6280,-9146,125748,704,-9451,125116,191,19222,782,1,733,0.0010029999999998651
1117000,4159,3910,127694,-4192,4129,125445,203,19216,831,1,734,0.0009970000000001367
1118000,4214,8616,129411,-5162,8098,125765,198,19216,831,1,735,0.0009999999999998899
1119000,11299,8872,128869,-3605,7341,125326,195,19218,811,1,736,0.001000000000000112
1120000,9248,-5401,127250,3584,-10883,132451,195,19213,799,1,737,0.0009999999999998899
1121000,11485,-9898,126582,4381,-6970,126595,205,19211,840,1,738,0.001000000000000112
1122000,6109,-4498,126832,99,-3862,127894,226,19207,926,1,739,0.0009999999999998899
1123000,6570,4601,129711,-8795,10670,124228,248,19228,1016,0,740,0.001000000000000112
1124000,4941,10630,129019,-4151,5240,125630,153,19228,627,0,741,0.0009999999999998899
1125000,10053,2620,126192,-378,-1473,127128,176,19224,627,0,742,0.001000000000000112
1126000,7584,-3248,125935,-275,-6843,127044,186,19220,721,0,743,0.0009999999999998899
1127000,9512,-6349,126185,2258,-1485,127168,186,19221,762,0,744,0.001000000000000112
1128000,13300,5587,129379,2316,5085,125594,188,19219,770,0,745,0.0009999999999998899
1129000,10604,3921,128394,183,1254,126101,192,19219,786,0,746,0.001000000000000112
1130000,5547,858,127652,-6907,-2954,127815,206,19219,844,0,747,0.0009999999999998899
1131000,4601,-4077,127026,1005,-5903,130114,223,19209,844,0,748,0.001000000000000112
1132000,6829,-1724,127325,-1988,2154,126091,191,19219,913,1,749,0.0009999999999998899
1133000,9100,4351,128317,816,1716,124921,191,19244,782,1,750,0.001000000000000112
1134000,15497,2770,129068,4024,2709,124734,158,19220,647,1,751,0.0009999999999998899
1135005,9583,-1940,127322,1954,-6052,130157,183,19223,750,1,752,0.0010050000000001447
1136001,3194,-5260,126242,-2877,-2606,127389,190,19223,778,1,753,0.0009959999999999969
1137002,3805,6207,128602,-8052,7169,125142,192,19218,778,1,754,0.0010009999999998076
1138002,8875,6801,129040,-1817,5755,124775,197,19221,786,1,755,0.001000000000000112
1139000,10347,4215,128261,1427,-1599,126959,197,19224,807,1,756,0.0009980000000000544
1140000,9212,-9692,126741,4182,-12682,132718,209,19220,856,1,757,0.0009999999999998899
1141000,6693,-8204,126669,-4042,-4522,126806,224,19208,917,1,758,0.001000000000000112
1142000,6609,3406,129191,-4390,4413,127863,242,19231,991,0,759,0.0009999999999998899
1143000,8107,8604,129643,3722,10940,123410,150,19231,991,0,760,0.001000000000000112
1144001,13918,5903,127182,2485,1027,125481,177,19226,614,0,761,0.0010010000000000296
1145000,4499,-4338,126121,-1628,-6980,127973,177,19216,725,0,762,0.0009989999999999721
1146001,6614,-5634,126581,-1312,-4041,127895,195,19223,799,0,763,0.0010010000000000296
1147000,5642,2034,128766,-1749,4124,127189,201,19216,823,0,764,0.0009989999999999721
1148000,10467,10601,129770,-5583,8273,123444,201,19219,823,0,765,0.0009999999999998899
1149012,8531,-663,127431,1309,-3345,128019,204,19219,823,0,766,0.0010120000000000129
1150002,8050,-5983,126662,2065,-8198,129164,217,19216,836,0,767,0.0009900000000000464
1151000,8092,-5791,126331,-2058,-5182,127657,217,19213,889,0,768,0.0009980000000000544
1152000,5884,3984,128756,-6811,6451,123716,234,19210,958,1,769,0.0009999999999998899
1153002,5399,10748,129234,-1944,6272,125414,137,19232,561,1,770,0.0010019999999999474
1154002,12858,1446,126212,4545,-735,127817,164,19227,672,1,771,0.001000000000000112
1155000,7000,-1449,126679,538,-3773,126343,184,19227,672,1,772,0.0009980000000000544
1156000,7173,-6721,125224,-336,-6607,128218,190,19222,754,1,773,0.0009999999999998899
1157000,10133,5900,129519,-1862,7710,124084,190,19221,778,1,774,0.001000000000000112
1158000,9993,6766,129789,560,4702,127262,188,19224,770,1,775,0.0009999999999998899
1159002,8575,276,126592,-3431,-1518,126896,195,19218,799,1,776,0.0010019999999999474
1160000,5834,-2931,127050,99,-4081,126561,211,19216,864,1,777,0.0009980000000000544
1161000,8967,-4411,126756,1935,-5158,130335,234,19216,864,1,778,0.001000000000000112
1162000,6016,1109,128004,-1854,907,125841,115,19213,958,0,779,0.0009999999999998899
1163002,13173,8677,128350,-3984,5980,126302,115,19228,471,0,780,0.0010019999999999474
1164000,12568,580,126009,9197,-1476,127377,172,19217,704,0,781,0.0009980000000000544
1165000,4636,-2135,126656,-558,-2963,127288,189,19214,774,0,782,0.001000000000000112
1166000,5973,50,127033,-8070,-726,127389,193,19218,790,0,783,0.0009999999999998899
1167000,4689,4461,128897,-1387,7907,124994,201,19218,790,0,784,0.001000000000000112
1168001,11649,6871,129281,-175,-1136,126322,207,19224,823,0,785,0.0010009999999998076
1169000,7246,-3912,127295,406,-7782,129746,207,19217,848,0,786,0.0009990000000001942
1170000,6982,-8944,126930,-1217,-6324,129592,222,19212,909,0,787,0.0009999999999998899
1171000,6330,-218,128720,-2111,3238,126501,238,19201,975,0,788,0.001000000000000112
1172001,7255,8321,129721,-6482,9332,124340,247,19224,1012,1,789,0.0010009999999998076
1173000,7794,6520,129094,3117,-1792,126869,129,19224,528,1,790,0.0009990000000001942
1174000,13041,-5282,124118,11356,-4530,125742,178,19226,528,1,791,0.0009999999999998899
1175001,9687,-2119,126797,-4310,-3613,129223,197,19215,729,1,792,0.0010010000000000296
1176000,9251,-3667,127171,-2225,269,127126,197,19216,807,1,793,0.0009989999999999721
1177000,5085,11284,130949,-375,12442,123807,205,19224,840,1,794,0.001000000000000112
1178000,10881,5125,129105,-7570,-1043,128617,201,19215,823,1,795,0.0009999999999998899
1179000,5579,-4964,126686,3892,-7716,128818,204,19215,836,1,796,0.001000000000000112
1180000,6681,-9734,125622,3251,-11115,131753,221,19213,836,1,797,0.0009999999999998899
1181000,8942,-1565,125707,-7264,9201,117992,244,19213,905,1,798,0.001000000000000112
1182000,5517,13953,129727,-4464,8038,127180,244,19208,999,0,799,0.0009999999999998899
1183001,10748,540,128157,9653,-1443,128716,113,19233,463,0,800,0.0010010000000000296
1184000,11844,-1633,125598,-183,-2026,126327,176,19218,721,0,801,0.0009989999999999721
1185000,7053,-2729,128593,-6531,-4979,128043,188,19222,770,0,802,0.001000000000000112
1186000,8687,-1799,126475,7963,431,125580,190,19222,770,0,803,0.0009999999999998899
1187001,7450,2470,129308,-3329,3315,129691,197,19216,778,0,804,0.0010010000000000296
1188000,9257,5984,127275,-7430,5484,121538,197,19221,807,0,805,0.0009989999999999721
1189000,7905,1801,126133,2415,-1763,127357,207,19220,848,0,806,0.001000000000000112
1190001,10677,-5298,127235,6339,-5834,130859,224,19221,917,0,807,0.0010009999999998076
1191002,9497,-750,126277,-2802,406,123676,220,19214,901,0,808,0.0010010000000000296
1192002,7974,3030,129485,-5192,2978,129958,196,19214,901,1,809,0.001000000000000112
1193001,9184,896,127869,3565,-2986,125746,161,19238,803,1,810,0.0009989999999999721
1194000,13874,-759,127332,6554,1272,125936,161,19217,659,1,811,0.0009989999999999721
1195000,4233,1278,127885,-3193,-2246,128208,188,19217,770,1,812,0.0009999999999998899
1196000,4971,-3250,125155,-7924,-1593,125396,203,19219,831,1,813,0.001000000000000112
1197000,6554,8611,130634,1877,8700,128332,205,19216,840,1,814,0.0009999999999998899
1198001,13360,3889,128633,-376,2598,124260,208,19216,840,1,815,0.0010010000000000296
1199000,8196,2370,127450,1506,-1227,125335,216,19213,852,1,816,0.0009989999999999721
1200003,7549,-13170,126954,-2481,-15464,135674,216,19211,885,1,817,0.0010030000000000872
1201002,9422,-3409,127065,384,1052,123226,233,19211,954,1,818,0.0009989999999999721
1202000,4279,9284,129870,-210,6926,128046,254,19231,1040,0,819,0.0009980000000000544
1203000,13180,3861,129134,-6438,4585,122649,160,19227,655,0,820,0.0009999999999998899
1204000,10861,-342,126854,5016,-3258,128802,188,19227,655,0,821,0.001000000000000112
1205001,9076,-5284,127427,4810,-4671,129659,202,19220,770,0,822,0.0010010000000000296
1206000,6475,2555,125750,-1920,1965,121657,202,19223,827,0,823,0.0009989999999999721
1207000,5179,2257,129457,-8555,1548,129849,202,19212,827,0,824,0.0009999999999998899
1208000,12315,5405,128145,2543,4883,122903,204,19216,836,0,825,0.001000000000000112
1209000,7166,-684,127258,2861,-2913,129155,213,19213,872,0,826,0.0009999999999998899
1210000,7022,-6234,127324,-4121,-7321,127419,229,19213,872,0,827,0.001000000000000112
1211000,6096,-5543,127081,-1475,-5940,129832,247,19212,938,0,828,0.0009999999999998899
1212000,9511,5528,129747,-3232,6524,122206,247,19211,1012,1,829,0.001000000000000112
1213000,6917,9323,128376,-208,7081,126035,253,19242,1036,1,830,0.0009999999999998899
1214000,13102,-1657,125284,3110,-3754,127418,154,19224,631,1,831,0.001000000000000112
1215001,10036,-3099,126232,457,-4631,127363,182,19220,745,1,832,0.0010010000000000296
1216000,8108,-3335,126296,2254,1623,126287,194,19220,795,1,833,0.0009989999999999721
1217000,8277,7598,130197,-1471,6439,125930,197,19214,795,1,834,0.0009999999999998899
1218000,7045,2314,129593,-5158,-590,129608,199,19215,807,1,835,0.001000000000000112
1219000,10145,-323,127548,2862,-1408,125933,199,19214,815,1,836,0.0009999999999998899
1220002,7388,-1724,127153,3350,-5765,128702,214,19218,876,1,837,0.0010020000000001694
1221000,9794,-5021,125744,-3316,-1422,125548,230,19212,942,1,838,0.0009979999999998324
1222000,7545,3322,128018,-2241,3593,125809,131,19212,537,0,839,0.001000000000000112
1223000,14504,4814,126432,2635,4110,127215,169,19228,537,0,840,0.0009999999999998899
1224000,10640,2674,127803,-2445,-45,126753,190,19218,692,0,841,0.001000000000000112
1225020,3257,-2502,127132,367,-5983,128942,190,19223,778,0,842,0.0010200000000000209
1226003,5813,-2081,126926,-3727,1124,128012,194,19220,795,0,843,0.0009829999999999561
1227004,7554,4880,128505,-2074,4456,124156,194,19218,795,0,844,0.0010010000000000296
1228000,12542,4704,128007,3158,1822,124579,203,19218,831,0,845,0.0009959999999999969
1229000,8074,-1314,127127,-553,-4761,128355,220,19218,831,0,846,0.0009999999999998899
1230001,6343,-6170,126985,-3311,-6907,130698,235,19213,901,0,847,0.0010010000000000296
1231000,5152,-2202,128726,-2735,-302,129606,235,19208,962,1,848,0.0009989999999999721
1232000,7002,5392,129096,-3309,8320,123671,226,19241,926,1,849,0.001000000000000112
1233000,15864,8443,127996,5563,3560,123254,154,19222,631,1,850,0.0009999999999998899
1234001,9991,-3936,125794,2099,-8355,130512,184,19215,754,1,851,0.0010010000000000296
1235000,6454,-9099,125225,-949,-6629,127513,196,19215,754,1,852,0.0009989999999999721
1236000,3978,3399,128186,-5686,6539,125351,194,19218,803,1,853,0.001000000000000112
1237000,7163,12108,130555,-4315,11453,124159,194,19224,795,1,854,0.0009999999999998899
1238000,8758,5155,128277,52,-565,128101,195,19220,799,1,855,0.001000000000000112
1239000,9122,-8027,126251,1538,-10993,130929,204,19219,836,1,856,0.0009999999999998899
1240000,9723,-8693,126350,3733,-6846,127213,224,19212,917,1,857,0.001000000000000112
1241000,7181,-1054,127573,-3935,115,125620,243,19212,917,1,858,0.0009999999999998899
1242000,6429,8167,129482,-7923,8518,124524,72,19211,995,0,859,0.001000000000000112
1243000,9965,6427,129380,1131,4748,126728,72,19230,295,0,860,0.0009999999999998899
1244001,8920,1072,126453,367,-2339,126724,165,19216,676,0,861,0.0010010000000000296
1245000,6541,-5218,125936,1906,-7071,128332,179,19218,733,0,862,0.0009989999999999721
1246000,10471,-3541,126415,-1031,-1532,126965,190,19219,778,0,863,0.001000000000000112
1247000,10742,7267,129656,1415,6939,124398,196,19219,778,0,864,0.0009999999999998899
1248000,10645,4536,128752,473,2173,126430,201,19219,803,0,865,0.001000000000000112
1249002,6150,-2837,126569,-3060,-4757,127688,201,19213,823,0,866,0.0010019999999999474
1250000,3982,-4270,127455,-1835,-5406,130020,216,19210,885,0,867,0.0009980000000000544
1251000,7175,-258,127846,-2291,443,126634,229,19234,938,1,868,0.0009999999999998899
1252003,10954,6195,128122,1441,3807,124668,133,19226,545,1,869,0.0010030000000000872
1253002,15046,2195,128483,4135,1163,126625,180,19226,545,1,870,0.0009989999999999721
1254000,6231,-3417,125949,1181,-4284,126945,196,19220,737,1,871,0.0009980000000000544
1255000,4365,-2501,127045,-3562,-2453,129304,196,19215,803,1,872,0.0009999999999998899
1256001,4786,5162,128666,-6364,5121,124230,195,19218,799,1,873,0.0010010000000000296
1257000,10100,7565,129367,-1272,6572,125747,192,19219,786,1,874,0.0009989999999999721
1258000,9624,1101,127976,-222,-1187,128172,198,19219,811,1,875,0.001000000000000112
1259001,7611,-10783,126592,4037,-12566,133728,216,19219,811,1,876,0.0010010000000000296
1260000,7387,-7841,127378,-2058,-7152,126128,238,19217,885,1,877,0.0009989999999999721
1261002,6759,6840,129050,-5109,10368,123331,238,19208,975,0,878,0.0010019999999999474
1262002,14101,11343,130548,1831,6338,124185,69,19230,283,0,879,0.0009999999999998899
1263002,11222,1685,127262,4216,-6168,128655,175,19218,717,0,880,0.001000000000000112
1264000,5384,-8443,126079,-693,-9238,129375,189,19217,774,0,881,0.0009980000000000544
1265000,5634,-2359,126724,-3170,2361,125970,193,19217,790,0,882,0.0009999999999998899
1266000,5919,7417,129863,-4506,9240,125411,196,19216,790,0,883,0.001000000000000112
1267001,11491,7129,129003,-959,913,125723,201,19218,803,0,884,0.0010010000000000296
1268000,7722,-2138,126800,2647,-6076,128976,201,19215,823,0,885,0.0009989999999999721
1269002,8063,-7802,126708,-624,-8276,129202,220,19213,901,0,886,0.0010019999999999474
1270000,6359,-3439,126817,-4125,1124,124798,233,19213,954,0,887,0.0009980000000000544
1271000,6767,7430,129970,-5929,7702,126597,232,19213,950,1,888,0.0009999999999998899
1272000,8306,5011,128318,3298,2433,125387,151,19242,950,1,889,0.001000000000000112
1273001,11334,1683,125591,2219,-2383,126874,177,19221,618,1,890,0.0010010000000000296
1274000,7483,-4755,126393,2741,-5939,127605,177,19215,725,1,891,0.0009989999999999721
1275000,7850,-2456,126416,-5072,1080,125099,190,19216,778,1,892,0.0009999999999998899
1276000,9086,6347,130201,57,5548,128117,191,19216,782,1,893,0.001000000000000112
1277002,10466,5175,129373,771,2607,125536,195,19216,799,1,894,0.0010019999999999474
1278000,7475,-745,126434,-2590,-4006,127382,207,19223,799,1,895,0.0009980000000000544
1279002,5999,-4737,126985,531,-6314,129717,223,19212,848,1,896,0.0010019999999999474
1280002,8892,-3703,126725,2243,-1601,126877,223,19216,913,0,897,0.0009999999999998899
1281024,7014,4531,128968,-7383,5738,124899,241,19251,987,0,898,0.0010220000000000784
1282000,16671,5743,129275,3995,3571,125162,161,19221,659,0,899,0.0009760000000000879
1283000,7852,-664,126743,3853,-2524,128187,188,19213,770,0,900,0.0009999999999998899
1284000,3390,-3351,126638,-6319,-4774,128946,198,19213,770,0,901,0.001000000000000112
1285000,4984,-436,127825,-2571,741,126910,198,19216,811,0,902,0.0009999999999998899
1286000,9336,6931,129346,-454,7987,125008,198,19216,811,0,903,0.001000000000000112
1287000,10481,2853,127748,-2309,-1779,124967,203,19215,831,0,904,0.0009999999999998899
1288000,7127,-3194,126924,1235,-5732,129822,212,19214,868,0,905,0.001000000000000112
1289000,7405,-5865,127710,-2126,-7082,130304,232,19215,950,0,906,0.0009999999999998899
1290000,4572,-3454,126212,-4152,-951,126511,246,19215,950,0,907,0.001000000000000112
1291000,6775,14297,130285,-6339,15034,120815,104,19204,1008,1,908,0.0009999999999998899
1292000,13878,2417,127229,6927,-3237,128869,104,19229,426,1,909,0.001000000000000112
1293000,11309,-6628,124599,6131,-4784,126962,172,19216,704,1,910,0.0009999999999998899
1294000,9267,1220,127927,-1746,286,124935,191,19217,782,1,911,0.001000000000000112
1295000,7810,-3250,127232,-2915,-4179,130702,198,19221,811,1,912,0.0009999999999998899
1296000,5540,6422,131929,-5262,7078,125706,198,19221,811,1,913,0.001000000000000112
1297001,10885,2554,127858,391,-436,128557,203,19219,811,1,914,0.0010009999999998076
1298000,4467,1807,125908,1277,1523,123603,203,19221,831,1,915,0.0009990000000001942
1299000,7329,-5235,126958,-5093,-9364,129450,223,19216,913,1,916,0.0009999999999998899
1300000,9425,-3943,125406,2509,-891,126747,239,19204,979,0,917,0.001000000000000112
1301000,7335,10578,130571,-3675,9623,124398,169,19234,692,0,918,0.0009999999999998899
1302000,14997,686,128896,1214,-1549,127964,164,19234,692,0,919,0.001000000000000112
1303000,8906,-3582,125115,2343,-4381,128078,185,19229,672,0,920,0.0009999999999998899
1304000,6432,-1483,128186,-2807,-2452,126572,185,19222,758,0,921,0.001000000000000112
1305000,6664,2800,126063,-1297,2535,123054,196,19219,803,0,922,0.0009999999999998899
1306000,8777,5332,129114,600,4252,128763,201,19219,823,0,923,0.001000000000000112
1307004,9448,1767,127644,-2287,864,123418,206,19213,844,0,924,0.0010039999999997828
1308000,8462,754,126584,-1558,-4100,129129,219,19213,897,0,925,0.000996000000000219
1309000,10119,-5205,127908,4271,-6276,131350,232,19209,897,0,926,0.0009999999999998899
1310000,7607,-3115,127214,1048,2705,123371,245,19212,950,1,927,0.0009999999999998899
1311000,7442,7833,129670,-8089,4186,126440,245,19237,1003,1,928,0.001000000000000112
1312002,14841,621,126910,2132,-2312,126765,153,19217,627,1,929,0.0010019999999999474
1313000,8401,-2162,125957,1684,-3061,127950,189,19222,774,1,930,0.0009980000000000544
1314000,4535,-2402,126755,-7665,-1697,126761,202,19222,827,1,931,0.0009999999999998899
1315000,5615,4903,127877,-778,8790,124040,202,19219,827,1,932,0.001000000000000112
1316000,8677,7358,129857,-2072,1618,129944,202,19221,827,1,933,0.0009999999999998899
1317000,13094,825,127637,3203,2053,122354,202,19221,827,1,934,0.001000000000000112
1318000,6511,-1782,127117,-368,-10407,132366,210,19211,860,1,935,0.0009999999999998899
1319000,8562,-12489,126253,-3645,-7930,128347,232,19209,950,1,936,0.001000000000000112
1320002,5898,2503,128515,1970,5594,126246,254,19209,1040,0,937,0.0010019999999999474
1321002,6068,5658,129521,-4955,8138,125630,119,19214,1040,0,938,0.001000000000000112
1322000,12677,10097,126203,3050,4247,122745,183,19225,487,0,939,0.0009979999999998324
1323000,8774,-7336,126007,3085,-10153,133769,183,19219,750,0,940,0.001000000000000112
1324000,7640,-3014,125484,3060,2065,121752,197,19219,807,0,941,0.0009999999999998899
1325000,5517,5262,128781,-7749,2504,127266,202,19216,827,0,942,0.001000000000000112
1326000,12435,2618,129130,-1699,3769,126070,202,19218,827,0,943,0.0009999999999998899
1327000,8077,2664,126993,4750,-2281,127723,213,19218,827,0,944,0.001000000000000112
1328003,7719,-3447,127497,-3190,-4056,127783,230,19216,872,0,945,0.0010030000000000872
1329000,6578,-3719,126712,-2273,-6732,128724,230,19213,942,0,946,0.0009969999999999146
1330000,7066,-4871,127288,-2541,-824,129302,239,19210,979,0,947,0.0009999999999998899
1331013,8993,11337,129597,-309,11939,120358,252,19236,1032,1,948,0.0010130000000001527
1332002,7881,4583,127212,1063,486,126846,134,19227,549,1,949,0.0009889999999999066
1333000,13704,-2185,126045,5050,-4527,127631,174,19227,549,1,950,0.0009980000000000544
1334001,7779,-7462,125998,16,-8251,130245,194,19217,713,1,951,0.0010010000000000296
1335001,9322,3062,128254,-1007,7840,122269,194,19224,795,1,952,0.0009999999999998899
1336000,5679,9250,130715,-2648,3415,128963,199,19216,815,1,953,0.0009989999999999721
1337000,10879,-3344,127828,-2951,-3127,129522,200,19218,819,1,954,0.001000000000000112
1338000,7990,1723,127658,3534,195,125531,202,19214,827,1,955,0.0009999999999998899
1339000,8583,-2912,126259,924,-4043,127817,221,19214,827,1,956,0.001000000000000112
1340000,9914,528,126841,-1419,390,124729,245,19215,905,0,957,0.0009999999999998899
1341000,6795,-1248,128506,-1597,-2282,129880,245,19237,1003,0,958,0.001000000000000112
1342000,14991,5701,130414,2747,8683,122115,164,19219,672,0,959,0.0009999999999998899
1343000,4431,623,127787,-1728,-3889,130282,190,19221,778,0,960,0.001000000000000112
1344001,4830,-6775,126264,5,-6034,128810,196,19219,803,0,961,0.0010010000000000296
1345002,5787,3651,128154,-3885,3168,126135,192,19219,803,0,962,0.0010010000000000296
1346000,12032,6081,128786,-2102,6986,123646,196,19222,786,0,963,0.0009979999999998324
1347000,11624,4388,127257,3870,944,123926,196,19216,803,0,964,0.001000000000000112
1348000,7433,-9855,126106,-21,-10922,133149,213,19219,872,0,965,0.0009999999999998899
1349000,6812,-1842,127734,-3875,-1246,126234,232,19207,950,0,966,0.001000000000000112
1350000,5071,1586,128227,-2911,504,129745,245,19230,1003,1,967,0.0009999999999998899
1351000,8741,8203,129650,-2509,8833,122616,132,19230,1003,1,968,0.001000000000000112
1352000,14630,1781,126756,6349,-1106,129542,174,19228,541,1,969,0.0009999999999998899
1353000,8243,-6382,125749,1690,-7214,125685,174,19220,713,1,970,0.001000000000000112
1354000,5760,-2482,126111,-532,-2773,129311,191,19217,782,1,971,0.0009999999999998899
1355000,4635,3716,128400,-5596,4506,122964,199,19219,815,1,972,0.001000000000000112
1356000,9796,15856,129699,-4124,4734,125387,198,19225,811,1,973,0.0009999999999998899
1357000,8304,-2521,127215,72,-6452,130270,203,19225,831,1,974,0.001000000000000112
1358000,9990,-8193,126584,2320,-12121,129633,214,19214,831,1,975,0.0009999999999998899
1359000,9733,-10019,125977,2554,-3659,126391,234,19216,876,1,976,0.001000000000000112
1360000,7039,5311,129184,-7032,9915,123293,234,19208,958,0,977,0.0009999999999998899
1361000,4670,8385,129762,-1232,3602,126769,155,19237,635,0,978,0.001000000000000112
1362000,11325,4968,125867,3737,1883,126785,162,19227,664,0,979,0.0009999999999998899
1363000,6689,-2203,126158,1774,-5638,128263,181,19227,741,0,980,0.001000000000000112
1364000,7756,-4184,124883,103,-1512,124038,189,19226,741,0,981,0.0009999999999998899
1365000,11192,2540,128749,-593,2089,128007,190,19219,774,0,982,0.001000000000000112
1366000,12945,2107,129302,1362,3859,124787,190,19222,778,0,983,0.0009999999999998899
1367000,8916,4761,127330,-1418,-1455,127161,196,19217,803,0,984,0.001000000000000112
1368000,4426,-5145,126857,-2407,-5565,130148,208,19214,852,0,985,0.0009999999999998899
1369000,5585,-2312,127038,-2987,-1274,126883,225,19216,922,1,986,0.001000000000000112
1370000,7340,1218,127904,-1089,1776,127235,97,19216,922,1,987,0.0009999999999998899
1371000,16556,5928,128182,5278,7244,122750,173,19232,397,1,988,0.001000000000000112
1372001,10337,-20,126816,525,-6425,129214,173,19221,709,1,989,0.0010010000000000296
1373001,4442,-5758,126062,-1301,-3923,127715,192,19221,786,1,990,0.0009999999999998899
1374001,3934,2427,128390,-4830,3949,127542,194,19222,795,1,991,0.001000000000000112
1375000,6779,7315,129017,-5052,7953,123933,189,19220,774,1,992,0.0009989999999999721
1376000,10751,7253,128739,-18,2129,125224,193,19220,774,1,993,0.0009999999999998899
1377000,8987,-7413,126931,4140,-11188,131981,215,19216,790,1,994,0.001000000000000112
1378000,8327,-9604,126437,-478,-8699,129077,215,19213,881,1,995,0.0009999999999998899
1379000,5865,-1711,128521,-4425,1226,128180,236,19209,967,0,996,0.001000000000000112
1380000,7104,9390,129725,-4376,11513,123031,113,19229,463,0,997,0.0009999999999998899
1381000,13911,10366,126769,6295,4376,125037,166,19221,680,0,998,0.001000000000000112
1382000,6262,-2776,126437,-1212,-5209,128703,187,19221,680,0,999,0.0009999999999998899
1383000,5918,-7817,124868,-666,-7710,127579,193,19220,766,0,1000,0.001000000000000112
1384001,5101,996,128267,-1998,2772,127101,193,19220,790,0,1001,0.0010010000000000296
1385000,10993,8937,130459,-3939,8803,124886,195,19219,799,0,1002,0.0009989999999999721
1386002,9289,2601,127252,-1121,-457,126274,205,19216,840,0,1003,0.0010019999999999474
1387002,7179,-1981,126658,1616,-6056,128830,212,19216,868,0,1004,0.0009999999999998899
1388003,7924,-8898,126300,-560,-8513,129655,224,19216,868,0,1005,0.0010010000000000296
1389000,5972,2100,127745,-4595,3924,123419,239,19211,917,1,1006,0.0009970000000001367
1390000,6520,8455,129544,-5386,7788,125642,239,19232,979,1,1007,0.0009999999999998899
1391000,12318,4433,127797,2886,3347,125567,127,19227,520,1,1008,0.001000000000000112
1392000,9482,-2542,126035,2618,-4765,128085,177,19220,725,1,1009,0.0009999999999998899
1393000,6140,-5386,125811,1229,-6135,127782,190,19216,778,1,1010,0.001000000000000112
1394003,8743,1669,128376,-4215,2774,124371,191,19216,778,1,1011,0.0010029999999998651
1395001,9939,5752,129990,-107,4658,128477,188,19218,782,1,1012,0.0009980000000000544
1396015,10394,2921,127318,80,1375,125985,188,19219,770,1,1013,0.0010140000000000704
1397002,6686,-1330,126490,-1336,-2883,126239,196,19217,803,1,1014,0.0009869999999998491
1398000,7195,-4292,126668,1064,-5483,128653,220,19211,901,1,1015,0.0009980000000000544
1399000,6339,-1975,127333,280,-2629,127416,243,19233,995,0,1016,0.001000000000000112
1400000,8744,6119,129709,-7614,4865,124738,150,19233,614,0,1017,0.0009999999999998899
1401000,14802,3621,129042,7867,3358,125819,181,19225,614,0,1018,0.001000000000000112
1402000,3881,899,126708,2095,-854,128303,190,19216,741,0,1019,0.0009999999999998899
1403000,6096,-5242,127036,-7268,-4412,129600,190,19224,778,0,1020,0.001000000000000112
1404000,4915,820,127870,-1244,7047,125120,195,19216,799,0,1021,0.0009999999999998899
1405000,11533,10634,129980,-1207,3925,124161,203,19220,831,0,1022,0.001000000000000112
1406000,8795,-858,127192,-1392,-4227,127404,215,19220,881,0,1023,0.0009999999999998899
1407000,6865,-5924,127383,798,-8538,131619,230,19209,881,0,1024,0.001000000000000112
1408000,7039,-4899,127607,-3786,-1402,128118,241,19205,942,0,1025,0.0009999999999998899
1409001,6174,4562,128925,-5353,9340,123997,241,19206,987,1,1026,0.0010010000000000296
