t_us,ax,ay,az,ax1,ay1,az1,shunt_raw,bus_raw,curr_raw,pg_rpm,seq,dt
0,8962,10046,129473,917,6689,123987,43,19520,176,0,25037,
1002,6933,1805,127271,627,-821,126476,58,19520,176,1,25038,0.0010019999999999999
2002,5924,-5200,126725,-730,-8597,130626,58,19518,238,1,25039,0.001
3000,8298,-1858,128327,922,-3774,128302,58,19510,238,1,25040,0.0009980000000000002
4000,9424,3867,129257,-1385,2839,125322,61,19516,250,1,25041,0.001
5000,6655,7214,128853,-594,4469,125843,43,19515,176,1,25042,0.001
6000,5532,4571,127580,-2219,1107,128030,49,19513,201,0,25043,0.001
7001,5458,-1341,126318,-4030,-3770,126509,70,19513,201,0,25044,0.0010009999999999993
8000,4663,1080,127994,-522,-1063,127874,60,19512,287,0,25045,0.0009990000000000008
9001,8498,2519,128087,-1558,1850,125984,60,19513,246,0,25046,0.0010010000000000002
10000,8013,4922,128530,-4035,-339,127745,48,19516,197,0,25047,0.0009989999999999999
11000,4648,1478,127709,-867,-880,127196,54,19512,221,1,25048,0.0009999999999999992
12000,3082,1944,127586,-2167,-2630,127108,64,19514,262,1,25049,0.0010000000000000009
13000,6292,709,127486,-4983,1710,126006,54,19514,221,1,25050,0.0009999999999999992
14000,5528,5535,128519,-2183,2889,125851,46,19515,221,1,25051,0.0009999999999999992
15000,6165,4719,127399,-2479,1660,125911,46,19517,188,1,25052,0.0010000000000000009
16000,3987,2228,127096,-5073,-4738,128424,46,19515,188,0,25053,0.0010000000000000009
17000,5119,-81,126338,4785,7853,121395,65,19515,266,0,25054,0.0009999999999999974
18001,5393,7764,126971,-3144,-2565,132292,59,19516,242,0,25055,0.0010010000000000019
19002,10115,848,126633,-12856,7795,119087,47,19516,192,0,25056,0.0010009999999999984
20002,8210,11201,131566,8548,-1589,130192,48,19520,192,0,25057,0.0010000000000000009
21000,3611,-9539,125877,-1443,-10361,132005,74,19514,197,1,25058,0.0009979999999999989
22000,-1896,-3120,126483,-15255,-3908,126509,74,19509,303,1,25059,0.0010000000000000009
23000,3881,3421,127904,-3060,9702,125008,56,19513,229,1,25060,0.0010000000000000009
24000,6985,18871,127002,-2781,15724,118076,50,19518,205,1,25061,0.0010000000000000009
25001,8628,11342,128473,-5351,1395,127622,46,19518,188,1,25062,0.0010009999999999984
26000,6709,-7351,125764,4297,-12570,130644,64,19516,188,0,25063,0.0009989999999999999
27000,4147,-7280,125410,-7035,-6250,127962,63,19512,262,0,25064,0.0010000000000000009
28000,3925,6191,130790,-5316,5826,125959,63,19513,258,0,25065,0.0009999999999999974
29000,6359,6332,128922,1195,2989,126861,52,19516,213,0,25066,0.0010000000000000009
30000,3037,5248,126956,-8206,42,128288,48,19515,197,0,25067,0.0010000000000000009
31000,5088,2453,127176,-5283,1618,123563,69,19508,283,1,25068,0.0010000000000000009
32000,4169,3504,127176,5346,-840,127320,55,19508,283,1,25069,0.0010000000000000009
33000,7199,586,127225,-2814,-162,126797,56,19511,225,1,25070,0.0010000000000000009
34000,6788,7492,129726,-9370,4164,125529,56,19517,229,1,25071,0.000999999999999994
35000,7414,732,127433,4964,-1671,130900,44,19518,180,1,25072,0.0010000000000000009
36000,3969,4619,127869,-1083,836,124018,55,19510,225,1,25073,0.0010000000000000009
37000,2364,-2518,126571,-8753,-5210,128961,87,19512,356,0,25074,0.0010000000000000009
38000,6377,5045,128530,-6534,3523,124078,64,19512,356,0,25075,0.0010000000000000009
39000,10850,4286,129029,3550,1448,129107,49,19513,262,0,25076,0.0010000000000000009
40000,7748,3313,128262,-1751,35,126324,49,19514,201,0,25077,0.0010000000000000009
41000,2921,-1091,126453,-3308,-4996,127810,60,19508,246,1,25078,0.000999999999999994
42003,1922,-957,126872,-2598,-2787,128887,97,19511,397,1,25079,0.0010030000000000039
43002,9104,5305,127734,-4538,3355,124519,57,19513,233,1,25080,0.0009989999999999999
44004,9680,8376,129188,-1089,5677,125100,44,19513,233,1,25081,0.0010020000000000029
45000,11844,1008,127214,3475,-3013,127528,50,19516,180,1,25082,0.0009959999999999969
46000,5197,-3747,127306,117,-7324,129088,50,19510,205,0,25083,0.0010000000000000009
47000,3590,-2255,128563,-2811,-2840,128684,57,19513,233,0,25084,0.0010000000000000009
48000,7686,3958,128172,-4767,1857,127289,66,19514,270,0,25085,0.0010000000000000009
49001,6995,9499,129244,-963,6434,126084,50,19517,205,0,25086,0.001000999999999995
50000,10533,3297,127339,2159,1081,124903,49,19517,205,0,25087,0.0009989999999999999
51000,9065,-3381,125730,823,-6614,127476,79,19509,201,0,25088,0.0010000000000000009
52000,6797,-1130,128236,272,-4082,129837,79,19504,324,1,25089,0.0010000000000000009
53000,6324,987,129179,-2088,-451,127776,65,19514,266,1,25090,0.0010000000000000009
54001,10448,2478,128845,-1628,-284,127032,50,19517,205,1,25091,0.0010010000000000019
55000,7751,6642,128903,548,-3577,127691,45,19514,184,1,25092,0.0009989999999999999
56000,4687,-499,126883,802,-3626,125885,67,19514,184,0,25093,0.000999999999999994
57000,5341,-3356,126409,-3348,-2406,128058,62,19509,274,0,25094,0.0010000000000000009
58000,9424,4410,128879,204,480,129096,62,19513,254,0,25095,0.0010000000000000009
59000,10522,6769,129137,254,6963,123656,51,19515,209,0,25096,0.0010000000000000009
60000,7051,4806,127996,-1650,-1209,126945,42,19518,172,1,25097,0.0010000000000000009
61000,5312,-1235,127644,1189,-8877,130766,58,19514,238,1,25098,0.0010000000000000009
62000,8744,-5123,127370,409,-5375,128747,61,19514,250,1,25099,0.0010000000000000009
63000,8087,-827,128404,-3673,2319,126876,54,19515,250,1,25100,0.0010000000000000009
64000,8898,10056,129445,497,6422,124503,41,19516,221,1,25101,0.0010000000000000009
65000,8120,6562,128235,-675,1843,126749,41,19519,168,1,25102,0.0010000000000000009
66000,4245,65,126931,-4830,-4077,127789,53,19511,217,0,25103,0.0010000000000000009
67000,3373,-1223,127047,-590,-3412,127579,64,19512,262,0,25104,0.000999999999999987
68000,7594,1854,128159,-557,961,127123,57,19512,233,0,25105,0.0010000000000000009
69000,7278,4297,128834,-3092,1636,126405,49,19513,233,0,25106,0.0010000000000000009
70000,7693,3251,127493,-2598,270,126970,59,19516,201,0,25107,0.0010000000000000009
71000,5102,2214,127392,-2233,-1934,127929,59,19506,242,1,25108,0.0010000000000000009
72000,4332,2092,127355,-3378,-1645,126587,49,19513,201,1,25109,0.0010000000000000009
73000,4566,876,126889,-3249,-333,125800,54,19514,221,1,25110,0.0010000000000000009
74000,8137,7913,128746,-3379,4375,125680,43,19516,176,1,25111,0.0010000000000000009
75000,5536,1119,126297,-1063,-64,127330,52,19516,176,1,25112,0.0010000000000000009
76000,4010,8171,128644,-7387,4035,124305,61,19515,213,0,25113,0.0010000000000000009
77001,6136,-240,126948,9244,-3228,128987,61,19512,250,0,25114,0.0010010000000000019
78000,3267,4959,127801,-11402,2307,124676,59,19516,242,0,25115,0.0009989999999999999
79000,13154,-1194,128351,-9318,-4710,129059,44,19516,180,0,25116,0.0010000000000000009
80000,2847,5759,129697,17064,4626,125448,51,19513,209,0,25117,0.0010000000000000009
81000,3783,-3242,125873,-14365,-9971,132179,85,19513,209,1,25118,0.0010000000000000009
82000,-3293,2350,127677,-14247,5289,122127,61,19509,348,1,25119,0.000999999999999987
83000,5790,10670,127928,9907,5865,127544,61,19516,250,1,25120,0.0010000000000000009
84000,5481,7719,125977,-10382,7637,121507,47,19518,192,1,25121,0.0010000000000000009
85000,8212,8306,129516,-4527,738,125876,48,19514,197,1,25122,0.0010000000000000009
86000,5252,-9697,126149,6025,-12583,134062,73,19511,299,0,25123,0.0010000000000000009
87000,4104,2376,126447,-7064,1734,122138,59,19511,299,0,25124,0.0010000000000000009
88000,3649,7665,130879,-9210,3051,129630,50,19514,242,0,25125,0.0010000000000000009
89000,6756,5453,127326,2555,3351,124341,50,19516,205,0,25126,0.0010000000000000009
90002,3245,1609,126669,-6028,-1859,128493,50,19513,205,0,25127,0.0010020000000000029
91000,5354,4876,128580,-5419,2057,125528,77,19517,315,1,25128,0.0009979999999999989
92000,6963,-635,126158,4187,-3110,125907,57,19511,233,1,25129,0.0010000000000000009
93000,6576,7884,129186,-6714,6095,125055,50,19511,233,1,25130,0.0010000000000000009
94001,9261,2218,128311,-3803,-1372,129048,44,19519,205,1,25131,0.0010010000000000019
95000,6128,3859,127436,4320,1876,126286,44,19523,180,1,25132,0.0009989999999999999
96002,1066,-3758,126643,-4996,-7606,130446,61,19507,250,0,25133,0.001001999999999989
97000,4789,5633,128861,-10036,4265,121188,81,19511,332,0,25134,0.0009979999999999989
98000,7228,944,127798,1145,-2506,130035,57,19514,233,0,25135,0.0010000000000000009
99000,7511,7050,128926,-243,4948,124341,52,19514,233,0,25136,0.0010000000000000009
100000,7422,-926,126288,-3825,-4346,128144,66,19515,213,0,25137,0.0010000000000000009
101000,2450,3764,127632,-954,1173,126365,66,19503,270,1,25138,0.0010000000000000009
102000,3813,-1462,126280,-3277,-1333,127693,78,19508,319,1,25139,0.0010000000000000009
103000,11585,6033,129333,-3647,4183,125917,53,19519,217,1,25140,0.0010000000000000009
104000,9734,2992,127958,1834,-1365,127126,43,19518,176,1,25141,0.0010000000000000009
105000,6078,3324,128015,3260,-2244,126476,55,19518,225,0,25142,0.0010000000000000009
106000,5384,-6548,126223,-3956,-4546,129394,59,19514,225,0,25143,0.0010000000000000009
107000,5778,5474,129201,-5085,1162,127302,63,19513,242,0,25144,0.0010000000000000009
108000,6666,4178,128451,-675,5516,125701,63,19516,258,0,25145,0.0010000000000000009
109002,12039,5469,128690,3968,105,126188,46,19517,188,0,25146,0.0010020000000000029
110000,7582,-1229,126643,-272,-7307,129263,54,19509,221,0,25147,0.0009979999999999989
111000,6146,-1809,127384,-1034,-1538,125576,88,19509,360,1,25148,0.0010000000000000009
112000,5481,-2671,127411,-3353,-1275,129274,61,19501,360,1,25149,0.000999999999999987
113000,9668,6889,129568,696,2060,127623,45,19513,250,1,25150,0.0010000000000000009
114000,8508,5279,128541,217,3739,125140,45,19516,184,1,25151,0.0010000000000000009
115000,8110,-2026,126227,123,-5617,127726,48,19515,197,0,25152,0.0010000000000000009
116000,4335,-653,127343,-1262,-6448,129095,66,19513,270,0,25153,0.0010000000000000009
117000,8703,-487,128742,10,1629,126509,59,19513,242,0,25154,0.0010000000000000009
118000,8327,4399,128029,-2483,2266,127402,48,19515,242,0,25155,0.0010000000000000009
119008,8872,8530,129079,55,2757,125711,44,19519,197,0,25156,0.001007999999999995
120002,6830,1117,127174,302,-1867,126264,44,19514,180,1,25157,0.0009940000000000088
121000,6147,-5564,126937,544,-7746,130781,52,19518,213,1,25158,0.0009979999999999989
122000,8344,-1179,128315,-725,-2657,128730,63,19512,258,1,25159,0.0010000000000000009
123000,9639,4207,129277,-1016,4443,125786,50,19519,205,1,25160,0.0010000000000000009
124000,6438,7942,128855,-962,4762,126001,41,19519,205,1,25161,0.0010000000000000009
125000,5238,3046,127352,-2378,-2428,127228,58,19517,168,0,25162,0.0010000000000000009
126000,5286,2,126801,-3726,-2356,126830,58,19510,238,0,25163,0.0010000000000000009
127000,5379,-203,127857,-1539,-2797,128165,61,19513,250,0,25164,0.0010000000000000009
128000,8113,4437,128462,-2303,2944,126054,53,19516,217,0,25165,0.0010000000000000009
129001,8119,3571,128257,-2890,-96,128040,47,19514,192,0,25166,0.0010010000000000019
130000,4757,2550,127718,-1019,-239,126362,67,19514,192,1,25167,0.0009989999999999999
131000,3315,396,127090,-3687,-3008,128124,50,19511,274,1,25168,0.0010000000000000009
132000,6472,2364,128052,-2915,997,126068,50,19515,205,1,25169,0.0010000000000000009
133000,5455,5391,128358,-3882,2418,126228,51,19515,209,1,25170,0.0010000000000000009
134000,5969,5115,127658,-3111,2145,125915,43,19519,176,1,25171,0.0009999999999999731
135000,4085,363,126498,-2221,-4372,128296,56,19515,229,0,25172,0.0010000000000000009
136001,5353,3524,127462,436,5591,122033,60,19515,229,0,25173,0.0010010000000000019
137000,6071,4825,126380,965,-715,131933,55,19516,246,0,25174,0.0009989999999999999
138000,10394,4887,127790,-10506,6512,120359,55,19514,225,0,25175,0.0010000000000000009
139000,8429,7223,130801,510,1085,127201,45,19521,184,0,25176,0.0010000000000000009
140000,3276,-8863,126560,4609,-10490,134143,57,19509,233,1,25177,0.0010000000000000009
141000,-1891,-3688,126723,-10785,-6629,126822,77,19509,315,1,25178,0.0010000000000000009
142000,4334,5716,128025,-10540,5722,126523,56,19509,315,1,25179,0.0010000000000000009
143000,6531,21938,127997,-218,18943,116216,43,19517,229,1,25180,0.0010000000000000009
144001,8517,7162,127505,-4753,3138,127593,43,19515,176,1,25181,0.0010010000000000019
145000,5041,-6495,125842,2072,-10415,129730,49,19511,201,0,25182,0.0009989999999999999
146000,4238,-7684,125913,-5018,-10283,126962,73,19511,299,0,25183,0.0010000000000000009
147002,4537,7875,131113,-6232,6395,125576,61,19514,250,0,25184,0.0010020000000000029
148002,5744,5471,128617,450,2204,128042,50,19514,250,0,25185,0.0010000000000000009
149000,3834,3976,126215,-5959,232,126436,54,19518,205,0,25186,0.0009979999999999989
150000,5853,3434,127304,-8144,2445,123415,54,19510,221,1,25187,0.0010000000000000009
151000,4643,3720,127236,3674,-1412,127209,67,19515,274,1,25188,0.0010000000000000009
152000,7230,242,127063,858,-657,126697,59,19512,242,1,25189,0.0010000000000000009
153000,6993,7015,130029,-12023,2914,127625,47,19516,192,1,25190,0.0010000000000000009
154000,6704,625,127043,6995,-972,128264,46,19516,188,1,25191,0.0010000000000000009
155000,3066,5209,127776,-2819,-549,125793,72,19516,188,0,25192,0.0010000000000000009
156001,3356,-2933,126459,-12545,-3977,126960,66,19502,295,0,25193,0.0010010000000000019
157000,6731,5659,128508,-2176,4789,124944,66,19511,270,0,25194,0.0009989999999999999
158000,10681,3885,129104,5144,860,129559,55,19513,225,0,25195,0.0010000000000000009
159001,7837,3295,128274,-4436,-1515,125221,50,19514,205,0,25196,0.0010010000000000019
160000,1544,-2186,126243,-3064,-5557,129726,74,19514,303,1,25197,0.0009989999999999999
161000,2796,-42,127166,-3569,-921,126339,62,19503,303,1,25198,0.0010000000000000009
162000,9823,4982,127955,-2639,3992,124992,51,19513,254,1,25199,0.0010000000000000009
163001,8823,9127,129488,-92,4748,125569,51,19519,209,1,25200,0.0010009999999999741
164000,11434,-503,126527,4500,-4594,127621,42,19516,172,1,25201,0.0009989999999999999
165000,4381,-2358,127461,-2442,-7655,130229,61,19515,250,0,25202,0.0010000000000000009
166000,4853,-1496,128468,-3636,-480,127053,63,19511,258,0,25203,0.0010000000000000009
167000,8623,4409,128495,-1796,4147,126299,58,19511,258,0,25204,0.0010000000000000009
168000,8581,7416,129077,30,1846,128599,45,19516,238,0,25205,0.0010000000000000009
169001,9982,2574,127419,1871,-76,123903,45,19514,184,0,25206,0.0010010000000000019
170000,8168,-4073,125661,401,-6272,128696,59,19508,242,0,25207,0.0009989999999999999
171000,5496,160,128308,-2842,-4304,128435,105,19504,430,1,25208,0.0010000000000000009
172000,4984,2980,129272,-3598,2788,126792,57,19516,233,1,25209,0.0010000000000000009
173002,12054,2209,128463,-1770,303,129481,41,19516,233,1,25210,0.0010020000000000029
174002,6174,6586,128185,4407,-76,125567,51,19517,168,1,25211,0.0010000000000000009
175001,6829,-552,126804,-2235,-2948,125202,51,19508,209,0,25212,0.0009989999999999999
176002,6776,-3651,126258,-2757,-5751,129255,60,19514,246,0,25213,0.0010010000000000019
177000,10299,4358,129433,2631,-27,129409,58,19516,238,0,25214,0.0009979999999999989
178004,8634,5369,128984,-702,5806,124498,45,19517,184,0,25215,0.0010040000000000049
179002,5711,4724,128448,-3869,-84,126566,53,19517,184,1,25216,0.0009979999999999989
180000,4475,-1939,127066,407,-6423,129438,46,19513,217,1,25217,0.0009979999999999989
181000,8473,-1639,127680,1940,-3213,127663,46,19513,188,1,25218,0.0010000000000000009
182000,9501,-275,128051,-4907,-1385,128899,62,19515,254,1,25219,0.0010000000000000009
183000,8276,10182,129292,1662,7507,123384,47,19520,192,1,25220,0.0010000000000000009
184000,8490,3323,127588,128,635,127830,44,19516,180,1,25221,0.0010000000000000009
185000,4655,-284,127250,-4008,-3397,127390,70,19516,180,0,25222,0.0010000000000000009
186000,3591,-1528,127116,-2981,-3835,127973,62,19512,287,0,25223,0.0010000000000000009
187000,6701,3453,128684,-339,1207,126816,62,19519,254,0,25224,0.0010000000000000009
188000,6974,3530,128416,-3139,846,126885,50,19518,205,0,25225,0.0010000000000000009
189000,6749,3922,127248,-3879,841,126642,49,19514,201,0,25226,0.0010000000000000009
190000,3987,2677,127250,-1936,-569,126876,73,19510,299,1,25227,0.0010000000000000009
191000,6391,1507,127076,-180,-2058,125560,54,19510,299,1,25228,0.0010000000000000009
192003,4898,4320,128067,-2173,1685,126174,47,19516,221,1,25229,0.0010029999999999761
193000,8167,3559,127513,-4159,588,127359,47,19518,192,1,25230,0.0009970000000000256
194000,5621,4835,127680,-1688,2413,124168,42,19515,172,0,25231,0.0009999999999999731
195000,2960,2563,127823,-7143,-447,130747,61,19512,250,0,25232,0.0010000000000000009
196007,4928,2215,127206,4379,6475,122441,59,19514,242,0,25233,0.0010070000000000079
197000,4711,5209,127882,-1698,-2648,129858,52,19514,213,0,25234,0.0009929999999999939
198000,14483,1073,127906,-17390,4183,122177,46,19517,213,0,25235,0.0010000000000000009
199001,2571,9927,130764,12894,-1724,130311,65,19513,188,0,25236,0.0010010000000000019
200000,4850,-8695,125686,-14014,-10620,131498,65,19506,266,1,25237,0.0009989999999999999
201003,-4806,1697,127745,-11530,3816,123128,63,19517,258,1,25238,0.0010030000000000039
202000,5660,10834,129182,5433,7759,127856,54,19517,221,1,25239,0.0009969999999999979
203000,6364,10120,125747,-8219,10603,117286,44,19517,180,1,25240,0.0010000000000000009
204000,7748,7171,129077,-1256,-6501,133200,57,19521,180,1,25241,0.0010000000000000009
205000,4842,-9456,126126,-332,-9854,128368,69,19508,233,0,25242,0.0010000000000000009
206000,5897,2006,126274,-6122,5226,122805,69,19513,283,0,25243,0.0010000000000000009
207000,3177,8136,131100,-6655,990,132236,59,19517,242,0,25244,0.0010000000000000009
208000,7242,5022,127594,849,3086,122066,47,19514,192,0,25245,0.0010000000000000009
209000,2820,164,126242,-8720,-2414,130144,59,19514,242,1,25246,0.0010000000000000009
210000,5002,4960,128375,-660,1767,124987,61,19507,242,1,25247,0.0010000000000000009
211000,7555,1195,126331,1263,-710,124297,58,19512,250,1,25248,0.0010000000000000009
212000,6069,5626,128777,-9538,5265,126973,58,19516,238,1,25249,0.0010000000000000009
213000,8546,3974,128159,1302,-1798,128765,46,19519,188,1,25250,0.0010000000000000009
214000,7119,2324,127384,2697,1094,126890,49,19512,201,1,25251,0.0010000000000000009
215001,45,-2831,126576,-7946,-6665,128412,78,19511,319,0,25252,0.0010010000000000019
216000,4955,4428,128253,-6239,4403,122952,66,19511,319,0,25253,0.0009989999999999999
217002,9826,2552,128402,1366,-897,130783,51,19511,270,0,25254,0.0010020000000000029
218002,6754,6741,128998,-405,4174,123964,51,19517,209,0,25255,0.0010000000000000009
219002,6838,-881,126184,-2501,-4215,128138,55,19515,225,0,25256,0.0010000000000000009
220000,2879,2253,127588,-5036,-1038,126572,81,19502,332,1,25257,0.0009979999999999989
221000,3350,-833,126239,-34,-3602,128477,56,19514,229,1,25258,0.0010000000000000009
222000,11487,5686,128776,-1454,4870,125088,47,19514,229,1,25259,0.0010000000000000009
223000,11493,4436,128009,-1804,-656,127064,45,19520,192,1,25260,0.0010000000000000009
224000,4473,3519,128135,4443,705,124815,45,19515,184,0,25261,0.0009999999999999731
225000,6149,-6702,126156,-2157,-8127,131219,60,19513,246,0,25262,0.0010000000000000009
226000,6335,5227,129320,-6050,1722,126679,64,19512,262,0,25263,0.0010000000000000009
227000,5143,5607,129071,-192,4737,125891,54,19515,221,0,25264,0.0010000000000000009
228000,11978,3089,128079,1644,222,127546,45,19515,221,0,25265,0.0010000000000000009
229001,7983,-1013,126691,96,-5382,128039,65,19516,184,0,25266,0.0010010000000000019
230000,4883,442,127899,1687,-751,124651,65,19505,266,1,25267,0.0009989999999999999
231000,6645,-3121,127216,-6816,-4942,130918,107,19510,438,1,25268,0.0010000000000000009
232006,9995,7059,129745,854,3782,126413,54,19519,221,1,25269,0.0010060000000000069
233000,7914,6461,128972,1519,4758,125534,42,19516,172,1,25270,0.0009939999999999949
234000,7850,-3941,125833,-1133,-7489,129573,56,19516,172,0,25271,0.0010000000000000009
235000,3990,-862,127574,-1568,-4752,126837,59,19509,229,0,25272,0.0010000000000000009
236000,9205,1557,129471,524,832,127705,59,19510,242,0,25273,0.0010000000000000009
237000,9016,3065,127709,-2491,71,129130,56,19515,229,0,25274,0.0010000000000000009
238000,8495,9405,129255,-308,6211,127401,43,19517,176,0,25275,0.0010000000000000009
239000,7640,891,127263,6,-1524,126828,57,19514,233,1,25276,0.0010000000000000009
240000,6408,-6090,126755,2029,-8369,129582,55,19514,225,1,25277,0.0010000000000000009
241001,7558,-1654,128662,-1579,-3975,129655,61,19514,225,1,25278,0.0010010000000000019
242000,10651,5739,129480,-1560,3569,124318,44,19517,250,1,25279,0.0009989999999999999
243000,6139,7108,128500,1386,2588,126919,44,19517,180,1,25280,0.0010000000000000009
244000,4992,3665,127325,-4099,-1998,126323,48,19511,197,0,25281,0.0010000000000000009
245002,6262,-541,127039,-3751,-3629,128290,75,19513,307,0,25282,0.0010020000000000029
246000,5221,-757,127526,1418,-1042,127367,59,19513,242,0,25283,0.0009979999999999989
247000,7380,3755,128452,-2092,1502,126618,48,19515,242,0,25284,0.0010000000000000009
248000,8371,4305,128435,-1481,645,127343,52,19515,197,0,25285,0.0010000000000000009
249000,3199,2847,127349,-4179,-471,126284,52,19510,213,1,25286,0.0010000000000000009
250000,3712,2305,127593,-2075,-1351,127051,67,19514,274,1,25287,0.0010000000000000009
251000,6977,2002,127799,-1665,443,126695,55,19514,225,1,25288,0.0010000000000000009
252000,5226,5199,128814,-4492,1460,125777,46,19514,188,1,25289,0.0010000000000000009
253000,6545,3353,127768,-1555,-863,127123,47,19522,188,1,25290,0.0010000000000000009
254000,3727,-1301,125413,-1135,-352,124437,65,19517,192,0,25291,0.0010000000000000009
255000,6588,10180,129009,-679,4297,127868,65,19515,266,0,25292,0.0010000000000000009
256001,4918,-1251,125627,-2396,-278,127011,62,19515,254,0,25293,0.0010009999999999741
257002,11276,15193,131349,-11480,9030,120177,51,19517,209,0,25294,0.0010010000000000296
258000,4821,-5876,128045,7717,-10973,135524,48,19516,197,0,25295,0.0009979999999999989
259000,3002,-3101,127193,-710,-6709,127346,73,19516,197,1,25296,0.0010000000000000009
260000,-1196,-7221,126267,-16915,-6408,131422,55,19507,299,1,25297,0.0010000000000000009
261000,5410,17626,128411,-280,21068,114257,55,19518,225,1,25298,0.0010000000000000009
262000,7204,14887,127088,-3928,7004,128049,51,19519,209,1,25299,0.0010000000000000009
263000,9031,2819,127546,-1676,-2258,125054,44,19516,180,1,25300,0.0010000000000000009
264000,2977,-8950,125368,645,-13238,132423,62,19506,254,0,25301,0.0010000000000000009
265000,4996,-2742,127678,-8569,-1315,126453,62,19506,254,0,25302,0.0010000000000000009
266002,3284,10249,131346,271,6752,124267,56,19517,254,0,25303,0.0010019999999999474
267000,4870,3422,127294,-4370,1005,129643,56,19515,229,0,25304,0.0009980000000000544
268000,3901,6327,126558,-10269,2319,124018,49,19515,201,0,25305,0.0009999999999999454
269000,6703,3119,127875,1552,1013,125359,63,19508,258,1,25306,0.0010000000000000009
270000,4461,-110,126900,3836,-2987,128232,52,19512,213,1,25307,0.0010000000000000009
271000,7294,1020,128054,-8507,151,125630,55,19512,213,1,25308,0.0010000000000000009
272000,8428,7324,130204,-5725,3865,128403,45,19515,225,1,25309,0.0010000000000000009
273000,5785,2304,126435,8468,819,127254,45,19521,184,1,25310,0.0010000000000000009
274000,1470,4356,127518,-6722,-440,125554,53,19512,217,0,25311,0.0010000000000000009
275000,5826,-2839,126681,-11108,-4341,127277,89,19511,365,0,25312,0.0010000000000000009
276000,7163,6278,128681,1090,3077,125483,63,19512,258,0,25313,0.0010000000000000009
277000,9529,2396,129156,1987,193,129947,51,19512,258,0,25314,0.0010000000000000009
278000,7642,3406,127630,-5626,-503,124758,58,19518,209,0,25315,0.0010000000000000009
279000,1959,-2267,126238,-537,-4887,129783,58,19512,238,1,25316,0.0010000000000000009
280000,3589,2162,126778,-3467,-557,126301,90,19510,369,1,25317,0.0010000000000000009
281000,9963,4047,128483,-5569,2377,125045,60,19513,246,1,25318,0.0010000000000000009
282000,8315,8107,129528,517,5006,125854,46,19517,188,1,25319,0.0010000000000000009
283000,10250,-1867,126487,3563,-4551,127842,49,19517,188,1,25320,0.0010000000000000009
284002,4779,-2247,127467,-1990,-5471,128894,58,19513,201,0,25321,0.0010020000000000029
285002,4562,602,128626,-1948,-1669,126073,58,19512,238,0,25322,0.0010000000000000009
286002,8117,4257,127968,-3493,1820,126613,66,19513,270,0,25323,0.0010000000000000009
287000,9325,6419,128867,-620,3982,126996,51,19514,209,0,25324,0.0009979999999999989
288000,9434,3938,127560,1787,1786,125798,48,19515,197,0,25325,0.0010000000000000009
289000,8143,-5158,126159,732,-3724,127535,77,19515,315,0,25326,0.0010000000000000009
290000,5638,-791,128179,-1193,-6186,130142,74,19503,315,1,25327,0.0010000000000000009
291000,7143,2735,129402,-1745,2731,127514,50,19514,303,1,25328,0.0010000000000000009
292002,10800,4231,128188,-287,5048,125112,50,19518,205,1,25329,0.0010020000000000029
293002,8406,4360,127412,638,-3268,127190,43,19515,176,1,25330,0.0010000000000000009
294000,5977,1015,127487,-2686,-3626,126478,63,19511,258,0,25331,0.0009979999999999989
295000,6932,-4365,127134,-2111,-3554,129556,61,19511,250,0,25332,0.0010000000000000009
296000,7344,1949,128655,257,-1402,129925,52,19514,250,0,25333,0.0010000000000000009
297000,6541,7520,129264,-268,5699,124062,45,19513,213,0,25334,0.0010000000000000009
298000,7242,3902,127174,-3326,1142,124997,45,19515,184,1,25335,0.0010000000000000009
299000,7605,382,127068,3159,-5476,129524,61,19516,250,1,25336,0.0010000000000000009
300001,10323,-1164,127838,1060,-3961,128748,59,19511,242,1,25337,0.0010009999999999741
301000,9935,-1255,128527,-2258,2052,126263,56,19511,229,1,25338,0.0009990000000000276
302000,5644,6311,128960,478,63,128821,40,19518,229,1,25339,0.0010000000000000009
303001,4809,2797,127526,-2039,1486,125832,53,19520,164,1,25340,0.0010009999999999741
304001,4331,1884,127240,-7559,-1064,126947,53,19514,217,0,25341,0.0010000000000000009
305002,5742,2274,127556,-139,330,126535,67,19511,274,0,25342,0.0010010000000000296
306000,7066,5131,128457,483,1086,125873,58,19513,238,0,25343,0.0009979999999999989
307000,8558,615,128243,-3617,-2122,128594,48,19519,197,0,25344,0.0010000000000000009
308000,7200,1032,126933,-521,-1924,126762,58,19519,197,0,25345,0.0010000000000000009
309000,4047,1456,126930,-403,-522,127515,60,19509,238,1,25346,0.0010000000000000009
310000,6101,4902,127853,-6886,1511,125360,60,19513,246,1,25347,0.0010000000000000009
311000,5536,4303,128368,-5055,2332,126414,56,19516,229,1,25348,0.0010000000000000009
312000,5682,5448,128192,506,1819,127257,43,19518,176,1,25349,0.0010000000000000009
313000,4118,-169,126677,-4628,-2493,126450,50,19517,205,0,25350,0.0010000000000000009
314000,2673,1038,126985,-8203,-2359,127577,62,19517,205,0,25351,0.0010000000000000009
315006,8018,5710,127535,10583,5880,124702,58,19512,254,0,25352,0.0010060000000000069
316000,5119,8503,127167,-7099,4686,126560,58,19514,238,0,25353,0.0009939999999999949
317000,16113,5253,128999,-18447,2303,122041,46,19521,188,0,25354,0.0010000000000000009
318000,2191,1499,130315,19661,-3263,130076,50,19512,205,0,25355,0.0010000000000000009
319001,3862,-12389,125445,-4678,-16114,136178,83,19509,340,1,25356,0.0010009999999999741
320000,-5603,588,127983,-22367,1100,123228,56,19509,340,1,25357,0.0009990000000000276
321000,7379,18485,130105,2874,16153,122280,48,19516,229,1,25358,0.0010000000000000009
322000,5349,12238,125022,1402,9395,122913,48,19519,197,1,25359,0.0010000000000000009
323000,8600,4769,128142,-8824,-810,124964,46,19516,188,1,25360,0.0010000000000000009
324000,4092,-11375,125997,1667,-14477,133215,71,19509,291,0,25361,0.0010000000000000009
325000,7787,1236,126610,-1109,77,123725,62,19517,254,0,25362,0.0010000000000000009
326000,1873,9353,132009,-5706,5305,129625,52,19517,254,0,25363,0.0010000000000000009
327000,7804,3379,127092,-4418,899,125643,49,19516,213,0,25364,0.0010000000000000009
328000,385,1112,125952,-5158,-1759,128186,49,19512,201,1,25365,0.0009999999999999454
329000,6188,6110,128041,-3870,3815,124094,70,19513,287,1,25366,0.0010000000000000009
330000,7118,1955,126359,2164,-1309,124458,59,19514,242,1,25367,0.0010000000000000009
331001,7259,5060,128682,-6801,2956,127334,53,19516,217,1,25368,0.0010010000000000296
332000,7692,3506,128357,-3623,666,131434,46,19516,188,1,25369,0.0009989999999999721
333000,6376,1862,127263,5236,-576,124511,60,19515,188,1,25370,0.0010000000000000009
334000,-1008,-935,126713,-4305,-3830,128422,82,19509,246,0,25371,0.0010000000000000009
335000,6179,2967,127892,-12366,358,122920,82,19512,336,0,25372,0.0010000000000000009
336000,10610,5099,129175,221,-1437,130987,59,19516,242,0,25373,0.0010000000000000009
337000,7066,5228,128647,5296,3954,123062,48,19516,197,0,25374,0.0010000000000000009
338001,5455,-417,126330,-6851,-6806,129762,63,19516,258,0,25375,0.0010010000000000296
339000,2235,186,127382,-4868,-967,126773,90,19509,258,1,25376,0.0009989999999999721
340000,4334,1132,126257,244,-1700,128144,55,19514,369,1,25377,0.0010000000000000009
341000,11296,7468,129092,-1593,9073,122804,55,19518,225,1,25378,0.0010000000000000009
342000,12466,3923,127579,799,-4627,128531,43,19519,176,1,25379,0.0010000000000000009
343000,4239,2195,127953,1872,-1701,126097,50,19511,205,0,25380,0.0010000000000000009
344000,5994,-8065,126421,-592,-6743,130934,58,19511,238,0,25381,0.0010000000000000009
345000,6213,5444,129460,-6709,2885,126572,63,19508,238,0,25382,0.0010000000000000009
346000,5677,6054,129033,-1264,3449,127057,49,19513,258,0,25383,0.0010000000000000009
347000,11619,4106,128160,4698,3147,124427,49,19515,201,0,25384,0.0010000000000000009
348000,8332,-2270,126086,-731,-10078,130761,52,19513,213,0,25385,0.0010000000000000009
349000,4769,1171,128143,-1256,1621,123225,88,19503,360,1,25386,0.0010000000000000009
350002,6696,-2939,127327,-3821,-2541,130174,60,19513,246,1,25387,0.0010020000000000029
351000,10181,6828,129928,1922,2772,127968,48,19513,246,1,25388,0.0009979999999999989
352003,7146,5799,128724,784,1303,126137,50,19516,197,1,25389,0.0010030000000000316
353002,7334,-4065,126094,-1761,-4899,126664,50,19513,205,0,25390,0.0009989999999999721
354000,4178,-1185,127368,-1122,-8047,130071,70,19513,287,0,25391,0.0009979999999999989
355000,9771,2396,129334,2363,4396,125840,63,19515,258,0,25392,0.0010000000000000009
356000,8813,4160,127834,-3869,2125,127446,49,19519,201,0,25393,0.0010000000000000009
357000,8200,8407,128859,-800,3180,125504,46,19519,201,0,25394,0.0010000000000000009
358001,6698,709,127501,1737,-2708,126696,52,19516,188,1,25395,0.0010009999999999741
359000,7070,-6432,127167,673,-8370,130813,52,19513,213,1,25396,0.0009990000000000276
360000,7321,-1964,128406,-4088,-4710,129577,63,19515,258,1,25397,0.0010000000000000009
361000,11196,7159,129753,1245,7467,124471,53,19518,217,1,25398,0.0010000000000000009
362000,6058,7595,128387,104,3771,126597,42,19516,172,1,25399,0.0010000000000000009
363000,4648,2601,127276,-5539,-919,126272,59,19516,172,0,25400,0.0010000000000000009
364000,5417,-1209,126970,-2180,-3929,128285,59,19506,242,0,25401,0.0010000000000000009
365000,5926,-456,127672,967,-2572,127866,59,19511,242,0,25402,0.0010000000000000009
366002,7367,4283,128481,-5010,1818,125958,54,19517,221,0,25403,0.0010020000000000029
367002,8413,4532,128455,-2444,1414,127373,48,19517,197,0,25404,0.0010000000000000009
368000,3437,2040,126996,-43,-991,126465,64,19513,262,1,25405,0.0009979999999999989
369000,3138,3195,127658,-5497,-630,126695,50,19513,262,1,25406,0.0010000000000000009
370000,7368,1890,127595,-2277,-599,127034,50,19518,205,1,25407,0.0010000000000000009
371000,5161,5395,128879,-1700,2373,125290,50,19516,205,1,25408,0.0010000000000000009
372000,6784,1602,127422,-4440,-1452,127893,43,19516,176,1,25409,0.0010000000000000009
373000,2985,-46,126073,597,-1966,125143,53,19511,217,0,25410,0.0010000000000000009
374000,7956,9652,128319,-2790,7680,124345,54,19513,221,0,25411,0.0010000000000000009
375000,4683,-693,125610,738,-3356,130997,56,19513,229,0,25412,0.0010000000000000009
376000,10687,14791,131358,-11822,12473,116694,45,19517,229,0,25413,0.0010000000000000009
377000,5023,-7266,127591,2213,-10347,135303,55,19520,184,0,25414,0.0010000000000000009
378000,2257,-2987,127284,4781,-5759,128819,55,19513,225,1,25415,0.0010000000000000009
379000,-1448,-7016,126127,-14163,-10054,128305,83,19513,340,1,25416,0.0010000000000000009
380000,5635,18592,128180,-8217,15924,113508,55,19517,225,1,25417,0.0010000000000000009
381000,6994,15515,127493,-578,13371,130066,44,19517,180,1,25418,0.0010000000000000009
382000,8464,1210,126883,-1477,-1074,125939,50,19518,180,1,25419,0.0010000000000000009
383000,2700,-8383,125965,-235,-12941,132360,78,19512,205,0,25420,0.0010000000000000009
384000,5533,-3588,127459,-8386,2586,124950,78,19516,319,0,25421,0.0010000000000000009
385003,3566,12165,131382,761,4517,127259,63,19512,258,0,25422,0.0010029999999999761
386001,5525,2693,126992,-3802,2571,126819,49,19523,201,0,25423,0.0009979999999999989
387000,3598,7281,126684,-7266,1146,124729,51,19514,209,0,25424,0.0009989999999999721
388002,6570,2711,127863,4546,-167,126928,77,19514,209,1,25425,0.0010020000000000029
389002,5264,36,127120,-713,-3742,126450,61,19513,315,1,25426,0.0010000000000000009
390003,6141,1302,128350,-10860,2147,126932,61,19511,250,1,25427,0.0010010000000000296
391002,8891,7778,130217,-2,1963,129210,49,19516,201,1,25428,0.0009989999999999721
392000,5667,880,126294,5170,1336,125011,46,19517,188,1,25429,0.0009979999999999989
393000,598,4370,127389,-8824,-3050,127976,66,19503,270,0,25430,0.0010000000000000009
394000,6338,-2792,126741,-9413,-867,124671,71,19503,270,0,25431,0.0010000000000000009
395000,7378,7456,128973,2365,2351,127663,56,19514,291,0,25432,0.0010000000000000009
396000,8782,1977,128992,1760,548,128745,56,19514,229,0,25433,0.0010000000000000009
397000,7646,2902,127356,-5838,-2849,125538,49,19512,201,0,25434,0.0010000000000000009
398000,1467,-2344,126508,-2102,-3769,129601,73,19505,299,1,25435,0.0010000000000000009
399000,2971,2627,126910,-1871,397,124752,63,19513,258,1,25436,0.0010000000000000009
400000,11709,4671,128313,-3442,3652,125628,52,19513,258,1,25437,0.0010000000000000009
401000,7877,8062,129279,786,2548,126460,42,19515,213,1,25438,0.0010000000000000009
402002,9766,-2715,126744,4136,-3910,126772,42,19518,172,0,25439,0.0010020000000000029
403000,4969,-3372,127536,-3568,-7894,131152,56,19514,229,0,25440,0.0009979999999999989
404000,4326,1328,128802,-3082,1312,126046,62,19512,254,0,25441,0.0010000000000000009
405001,7107,4996,128302,-1408,3593,126470,58,19513,238,0,25442,0.0010010000000000296
406000,11083,5372,128113,-1206,1888,127770,46,19513,238,0,25443,0.0009989999999999721
407000,8442,4203,127612,1517,-155,123840,58,19515,188,0,25444,0.0010000000000000009
408000,7772,-4900,126082,1688,-5728,128943,58,19510,238,1,25445,0.0010000000000000009
409000,5989,-2331,127859,-4297,-6238,129972,99,19507,405,1,25446,0.0010000000000000009
410000,6999,4531,129782,-537,3097,126641,59,19513,242,1,25447,0.0010000000000000009
411000,11202,4202,128011,-1161,2997,127371,43,19517,176,1,25448,0.0010000000000000009
412000,7818,2463,126725,1539,-2030,126564,50,19517,176,1,25449,0.0010000000000000009
413000,6013,1434,127632,-968,-1784,124990,66,19511,205,0,25450,0.0010000000000000009
414000,8400,-4163,127302,-1715,-5837,130540,66,19515,270,0,25451,0.0010000000000000009
415000,7615,2945,128771,552,-518,129044,58,19514,238,0,25452,0.0010000000000000009
416000,7317,8545,129492,-2479,6455,124404,46,19517,188,0,25453,0.0010000000000000009
417000,7526,3514,128194,-3053,621,126251,48,19512,197,1,25454,0.0010000000000000009
418000,4198,-2823,126942,4445,-6396,129742,46,19512,197,1,25455,0.0010000000000000009
419000,9999,-2929,127399,-1548,-5370,128467,62,19516,188,1,25456,0.0010000000000000009
420000,8807,2543,128940,-4055,866,127218,62,19516,254,1,25457,0.0010000000000000009
421000,8232,7916,129101,4856,5435,125450,48,19518,197,1,25458,0.0010000000000000009
422000,7100,4971,127685,-2824,2240,126338,42,19520,172,1,25459,0.0010000000000000009
423000,4777,-506,127387,-5960,-3372,127848,65,19511,266,0,25460,0.0010000000000000009
424000,4175,-1500,127023,1511,-3874,128089,61,19511,250,0,25461,0.0010000000000000009
425003,7647,3990,128305,-2113,1345,126972,53,19513,250,0,25462,0.0010029999999999761
426002,7862,4154,128564,-5164,1404,126376,49,19517,217,0,25463,0.0009990000000000276
427000,5267,4895,127989,-1342,2007,126876,49,19514,201,0,25464,0.0009979999999999989
428000,4342,871,127420,-2122,-1856,128263,70,19514,287,1,25465,0.0010000000000000009
429000,6387,-866,127265,-2850,-3307,127019,55,19515,225,1,25466,0.0010000000000000009
430000,4482,2269,127659,-2574,4450,123947,50,19515,205,1,25467,0.0010000000000000009
431001,8399,6487,127728,-3480,186,128383,43,19518,205,1,25468,0.0010009999999999741
432000,3703,5136,127002,-964,6535,122792,59,19517,176,0,25469,0.0009990000000000276
433001,6991,5043,127734,-7512,-785,128306,59,19513,242,0,25470,0.0010009999999999741
434000,-9,1981,126455,4095,546,126821,60,19514,246,0,25471,0.0009990000000000276
435000,10113,2115,127849,-17501,-2916,126532,52,19518,213,0,25472,0.0010000000000000009
436003,10899,740,129585,9613,2574,126939,46,19516,188,0,25473,0.0010029999999999761
437004,4241,5466,128347,2406,-2735,128273,62,19516,188,0,25474,0.0010010000000000296
438003,947,-5107,125330,-20684,-4476,128144,71,19507,254,1,25475,0.0009989999999999721
439002,2151,7965,128946,723,6715,123972,71,19513,291,1,25476,0.0009990000000000276
440000,4703,8174,126378,97,5233,126646,55,19517,225,1,25477,0.0009979999999999989
441000,8138,11800,128265,-12869,7889,118974,44,19517,180,1,25478,0.0010000000000000009
442000,6684,-2752,127936,8026,-11546,135633,56,19513,229,1,25479,0.0010000000000000009
443000,4542,-6641,124837,-3045,-5866,126143,72,19513,229,0,25480,0.0010000000000000009
444000,2999,7366,129716,-11453,7003,123806,59,19513,295,0,25481,0.0010000000000000009
445000,7117,6625,128836,-840,2488,129013,59,19515,242,0,25482,0.0010000000000000009
446000,3503,4735,126763,-149,142,125863,46,19516,188,0,25483,0.0010000000000000009
447000,5726,767,127826,-10570,-82,126874,57,19513,233,1,25484,0.0009999999999999454
448001,3168,1803,127411,3224,-3245,128388,65,19512,266,1,25485,0.0010010000000000296
449000,7616,1624,126485,443,2202,123323,60,19512,266,1,25486,0.0009989999999999721
450002,6077,8842,129745,-11695,4894,127005,46,19515,246,1,25487,0.0010020000000000029
451002,8756,2601,127052,4560,756,128098,46,19517,188,1,25488,0.0010000000000000009
452001,4294,3269,127532,803,-1874,127366,48,19516,197,1,25489,0.0009990000000000276
453002,3023,-3463,126966,-10603,-3941,126909,76,19508,311,0,25490,0.0010009999999999741
454000,5024,5262,129176,-2210,1244,126158,69,19513,283,0,25491,0.0009979999999999989
455000,9533,966,128522,2133,160,129203,55,19513,283,0,25492,0.0010000000000000009
456001,8052,6503,128543,-5112,2016,125129,53,19518,225,0,25493,0.0010010000000000296
457000,3601,443,126427,204,-1493,127248,53,19514,217,0,25494,0.0009989999999999721
458003,4123,1593,126748,-3531,-2955,127061,80,19505,328,1,25495,0.0010030000000000316
459000,6632,1057,127573,-3719,-860,127268,55,19511,225,1,25496,0.0009969999999999701
460000,9817,5884,129137,-337,3110,126200,47,19516,192,1,25497,0.0010000000000000009
461000,11147,1985,127497,1346,-662,127455,44,19516,192,1,25498,0.0010000000000000009
462000,4129,1328,127696,376,-2304,126477,62,19516,180,0,25499,0.0010000000000000009
463000,4771,-3012,127375,-1252,-3527,128893,62,19514,254,0,25500,0.0010000000000000009
464000,8124,3491,127830,-5068,308,127738,67,19514,274,0,25501,0.0010000000000000009
465000,7984,7654,129790,-540,5765,125213,57,19517,233,0,25502,0.0010000000000000009
466000,9934,1953,127631,3304,-717,127118,47,19514,192,0,25503,0.0010000000000000009
467001,8723,-3330,126266,82,-6261,128814,62,19514,254,0,25504,0.0010010000000000296
468000,3818,628,128280,-564,-2070,125687,104,19506,254,1,25505,0.0009989999999999721
469000,6589,702,128236,-4587,-1630,128950,55,19510,426,1,25506,0.0010000000000000009
470000,10360,4612,128393,642,2065,127956,55,19519,225,1,25507,0.0010000000000000009
471000,8283,7309,129118,776,4791,124468,43,19519,176,1,25508,0.0010000000000000009
472000,6612,-4257,126330,-352,-7292,126091,54,19508,221,0,25509,0.0010000000000000009
473000,4609,-2685,127046,-1335,-5863,129666,58,19508,238,0,25510,0.0010000000000000009
474000,8549,3892,129134,575,1145,128384,57,19513,238,0,25511,0.0010000000000000009
475000,9382,4793,128275,-3004,1583,123480,44,19516,233,0,25512,0.0010000000000000009
476000,7342,5487,128105,-246,-1581,127509,44,19517,180,0,25513,0.0010000000000000009
477000,6658,1881,127715,492,-4775,127660,53,19514,217,1,25514,0.0010000000000000009
478001,9050,-5973,127181,1205,-6278,129813,53,19513,217,1,25515,0.0010009999999999741
479000,7242,-1170,128186,-660,-787,128117,61,19513,250,1,25516,0.0009990000000000276
480000,9137,7897,129668,-1537,5951,125045,44,19517,250,1,25517,0.0010000000000000009
481001,7771,7014,128202,-2431,3363,126388,46,19517,180,1,25518,0.0010009999999999741
482000,3434,93,126872,-3993,-4360,127687,46,19514,188,0,25519,0.0009990000000000276
483000,4715,52,126941,-845,-2145,126975,73,19512,299,0,25520,0.0010000000000000009
484000,7191,749,128116,-1944,-383,128034,60,19515,246,0,25521,0.0010000000000000009
485000,6688,5011,129053,-2377,2195,125926,50,19516,205,0,25522,0.0010000000000000009
486000,7227,2752,127739,-2162,-790,127668,52,19516,205,0,25523,0.0010000000000000009
487000,4758,2038,127582,-3741,-1334,127301,74,19512,213,1,25524,0.0010000000000000009
488002,3304,1401,127279,-1287,-1562,126873,74,19516,303,1,25525,0.0010020000000000029
489000,6231,4119,127961,-3930,1860,126046,56,19516,229,1,25526,0.0009979999999999989
490000,6567,4860,128407,-4510,1917,126564,47,19518,192,1,25527,0.0010000000000000009
491000,6035,2499,126763,401,-1847,126723,44,19516,180,1,25528,0.0010000000000000009
492000,2543,3836,127432,-4271,3739,122904,66,19516,180,0,25529,0.0010000000000000009
493000,8779,4316,127385,2289,-1517,131195,61,19513,270,0,25530,0.0010000000000000009
494000,3922,2594,126960,-3767,5775,122730,61,19514,250,0,25531,0.0010000000000000009
495000,12219,9483,130679,-12394,1140,126143,50,19519,205,0,25532,0.0010000000000000009
496003,3479,-4965,127734,11135,-5096,130953,45,19516,184,0,25533,0.0010029999999999761
497000,2708,-2759,126943,-4227,-9059,130366,70,19505,287,1,25534,0.0009970000000000256
498000,-1703,-3413,126241,-17496,-267,127154,54,19505,287,1,25535,0.0010000000000000009
499003,6589,24152,129600,1905,21834,114896,51,19512,221,1,25536,0.0010029999999999761
500000,6851,6341,126436,-3048,1331,130940,51,19517,209,1,25537,0.0009970000000000256
501000,7244,2624,127366,-1393,-2162,123202,45,19516,184,1,25538,0.0010000000000000009
502000,3927,-11370,125994,-2489,-14453,134888,62,19507,254,0,25539,0.0010000000000000009
503000,5065,3224,127458,-4926,2581,122851,60,19513,246,0,25540,0.0010000000000000009
504000,3604,10469,130985,-36,5539,127021,55,19513,246,0,25541,0.0010000000000000009
505002,6192,3485,126570,-7923,1916,127300,47,19517,225,0,25542,0.0010019999999999474
506000,4121,4891,126809,-6529,944,124982,47,19517,192,0,25543,0.0009980000000000544
507000,5981,2460,128087,2909,51,126860,62,19510,254,1,25544,0.0010000000000000009
508000,6030,-1341,126468,1283,-3621,126697,53,19509,217,1,25545,0.0010000000000000009
509000,6119,5067,129024,-9835,3145,125751,58,19520,238,1,25546,0.0010000000000000009
510000,9480,5320,128969,-2154,2171,128676,44,19520,238,1,25547,0.0010000000000000009
511000,4876,3470,126634,7280,1636,125521,53,19516,180,1,25548,0.0010000000000000009
512000,770,-422,127053,-8945,-4147,128081,53,19516,217,0,25549,0.0010000000000000009
513000,6193,269,127449,-9486,-1787,124956,83,19505,340,0,25550,0.0010000000000000009
514000,7330,5100,128932,1983,2105,127971,66,19512,270,0,25551,0.0010000000000000009
515000,7097,4524,128867,271,2053,127989,53,19514,217,0,25552,0.0010000000000000009
516000,7833,1721,126634,-6794,-1211,125201,59,19514,242,0,25553,0.0010000000000000009
517001,2277,-478,126904,1154,-3473,129348,91,19511,242,1,25554,0.0010009999999999186
518000,3816,1330,126419,-2443,-1979,125609,57,19506,373,1,25555,0.0009990000000000832
519000,11510,5286,128974,-5096,2775,125760,57,19510,233,1,25556,0.0010000000000000009
520000,8495,5776,128713,-544,3134,127886,46,19517,188,1,25557,0.0010000000000000009
521002,7827,82,127625,4187,-2519,126047,47,19513,192,0,25558,0.0010019999999999474
522000,5024,-4349,126902,-1742,-7366,131093,60,19513,246,0,25559,0.0009980000000000544
523000,5142,3357,128508,-2996,1881,125706,67,19513,246,0,25560,0.0010000000000000009
524000,6930,4964,128502,-4417,5448,126053,53,19511,274,0,25561,0.0010000000000000009
525002,13227,5495,128576,3,1362,126630,53,19516,217,0,25562,0.0010019999999999474
526000,7378,2073,127379,5182,-5040,127883,46,19516,188,0,25563,0.0009980000000000544
527000,6796,-5204,126666,80,-3825,126634,70,19502,287,1,25564,0.0010000000000000009
528000,5328,-2283,127479,-5676,-4167,130007,87,19508,356,1,25565,0.0010000000000000009
529000,8957,6943,130088,79,3432,127571,52,19508,356,1,25566,0.0010000000000000009
530000,9710,5215,128334,1334,5255,124106,44,19516,213,1,25567,0.0010000000000000009
531000,8254,-590,126278,-1063,-7408,129309,44,19516,180,1,25568,0.0010000000000000009
532001,4632,551,127526,-513,-3574,126306,62,19511,254,0,25569,0.0010009999999999186
533000,8926,-2271,127922,-620,-1148,128694,60,19515,246,0,25570,0.0009990000000000832
534004,8816,2614,128167,-1297,590,128779,53,19516,217,0,25571,0.0010039999999998939
535000,7699,10489,129719,-1026,5629,124109,42,19516,217,0,25572,0.000996000000000108
536000,7944,478,127397,137,-704,126340,57,19516,172,1,25573,0.0009999999999998899
537000,5532,-3734,126730,1022,-8829,130763,57,19519,233,1,25574,0.0010000000000000009
538001,7971,-2197,128139,-969,-3905,128824,58,19511,238,1,25575,0.0010010000000000296
539002,8225,3798,129508,-1737,4989,125142,60,19521,246,1,25576,0.0010010000000000296
540000,7416,6149,128272,660,1183,128402,42,19519,172,1,25577,0.0009979999999999434
541000,5108,6089,128005,-2608,2947,124272,49,19519,172,1,25578,0.0010000000000000009
542000,6569,-1679,126896,-5203,-4487,128164,68,19512,201,0,25579,0.0010000000000000009
543000,5860,1176,127661,971,-1205,126909,68,19511,279,0,25580,0.0010000000000000009
544000,7007,2104,128407,-1593,-576,127776,57,19517,233,0,25581,0.0010000000000000009
545000,7051,3089,128451,-5172,1478,126329,49,19516,201,0,25582,0.0010000000000000009
546000,5384,2952,127441,-1322,-574,127131,56,19509,229,1,25583,0.0010000000000000009
547000,4409,2699,126794,-2472,-225,127250,62,19509,229,1,25584,0.0010000000000000009
548000,6688,1894,128079,-4397,-861,126075,55,19517,254,1,25585,0.0010000000000000009
549003,5476,3095,128412,-4041,560,126661,55,19515,225,1,25586,0.0010030000000000872
550000,5323,5053,127543,166,2311,126246,44,19519,180,1,25587,0.0009969999999999146
551000,4589,2864,127400,-4678,352,126754,47,19519,192,0,25588,0.0010000000000000009
552000,5366,195,126388,-7590,-2836,128096,63,19517,258,0,25589,0.0010000000000000009
553000,3201,9919,128248,10811,7937,122554,62,19517,258,0,25590,0.0010000000000000009
554000,7056,2438,126848,-12015,-1002,129388,48,19516,254,0,25591,0.0010000000000000009
555000,14793,3760,129177,-11493,1969,122012,48,19519,197,0,25592,0.0010000000000000009
556000,993,1054,129310,18938,-2384,131493,49,19515,201,0,25593,0.0010000000000000009
557000,3670,-9453,124432,-11769,-12385,132140,77,19509,315,1,25594,0.0010000000000000009
558000,-1861,6498,128940,-18807,4090,123000,54,19514,221,1,25595,0.0010000000000000009
559000,7406,13379,128107,8328,11124,125678,49,19514,201,1,25596,0.0010000000000000009
560000,5996,12178,125732,-5795,9596,119817,47,19517,201,1,25597,0.0010000000000000009
561000,7947,-820,128554,-7157,-4031,129558,66,19520,192,1,25598,0.0010000000000000009
562000,3595,-8828,125306,4899,-11903,130674,66,19510,270,0,25599,0.0010000000000000009
563000,4774,4483,128940,-5504,1814,124070,61,19512,250,0,25600,0.0010000000000000009
564000,3478,6944,130703,-8514,4157,130085,53,19517,217,0,25601,0.0010000000000000009
565000,6023,4550,126486,1406,1953,126033,46,19517,188,0,25602,0.0010000000000000009
566000,2810,809,126885,-7400,-2206,125613,67,19514,188,1,25603,0.0010000000000000009
567000,5203,5470,127894,-3942,3212,126007,53,19511,274,1,25604,0.0010000000000000009
568000,7309,324,126307,3294,-2646,126991,53,19515,217,1,25605,0.0010000000000000009
569000,6850,8076,129877,-8054,4741,124730,54,19515,221,1,25606,0.0010000000000000009
570000,6708,942,127079,-3023,-4336,131732,43,19519,176,1,25607,0.0010000000000000009
571000,6487,3639,127851,4439,1329,125125,55,19519,225,1,25608,0.0010000000000000009
572000,1182,-3580,126367,-4651,-6200,127667,85,19510,225,0,25609,0.0010000000000000009
573001,5952,6350,128707,-9769,5443,123602,61,19510,348,0,25610,0.0010010000000000296
574000,11645,2334,128552,4831,-1051,130519,61,19517,250,0,25611,0.0009989999999999721
575000,7391,5594,128385,-5152,1615,124441,51,19514,209,0,25612,0.0010000000000000009
576001,2391,-1917,125989,-1135,-4741,128831,62,19508,254,0,25613,0.0010010000000000296
577000,4438,2494,127583,-5263,-1009,126572,96,19509,393,1,25614,0.0009989999999999721
578000,6316,915,126690,-2321,-1172,127703,58,19509,393,1,25615,0.0010000000000000009
579000,9814,8799,129635,-157,7733,123698,45,19512,238,1,25616,0.0010000000000000009
580000,13109,-72,126267,1638,-4324,128285,45,19514,184,1,25617,0.0010000000000000009
581000,3795,2710,128263,-522,-3037,126794,49,19512,201,0,25618,0.0010000000000000009
582000,5308,-6001,127274,-22,-4269,129386,57,19509,233,0,25619,0.0010000000000000009
583003,7959,4805,129006,-6412,1558,127508,66,19515,270,0,25620,0.0010029999999999761
584000,6387,7025,129388,-1396,3405,126964,48,19515,270,0,25621,0.0009970000000000256
585000,10294,4299,128190,5293,1956,124427,48,19514,197,0,25622,0.0010000000000000009
586000,9721,-4872,125361,-365,-9384,130683,48,19514,197,0,25623,0.0010000000000000009
587000,3331,3157,128876,-1991,281,124449,81,19500,332,1,25624,0.0010000000000000009
588000,8051,-1349,127772,-3146,-570,128759,58,19516,238,1,25625,0.0010000000000000009
589000,10868,4576,129077,1596,1126,128873,48,19515,197,1,25626,0.0010000000000000009
590000,7059,5941,129141,1292,913,126107,46,19515,197,1,25627,0.0010000000000000009
591000,6931,-2964,126644,-2080,-3877,125845,66,19516,188,0,25628,0.0010000000000000009
592000,4767,-3375,126816,-1401,-8458,131091,66,19511,270,0,25629,0.0010000000000000009
593000,8804,6193,129531,2111,4415,125097,59,19511,242,0,25630,0.0010000000000000009
594000,9703,4895,128236,-3901,3609,126402,49,19519,201,0,25631,0.0010000000000000009
595001,6748,5338,128149,-643,1163,126601,45,19515,184,0,25632,0.0010010000000000296
596000,6023,162,127545,1918,-3223,127061,56,19515,184,1,25633,0.0009989999999999721
597000,9195,-4883,127439,-86,-6673,129852,62,19514,229,1,25634,0.0010000000000000009
598000,7844,-1497,128167,-3437,-4056,129377,62,19518,254,1,25635,0.0010000000000000009
599000,9662,8655,129371,1306,7226,124052,54,19517,221,1,25636,0.0010000000000000009
600000,7384,5689,127895,-1243,2796,127072,41,19520,168,1,25637,0.0010000000000000009
601000,3624,1153,126967,-4115,-1925,126423,54,19511,221,0,25638,0.0010000000000000009
602000,4223,-222,127115,-2096,-3126,128083,62,19511,254,0,25639,0.0010000000000000009
603000,7341,1045,127991,-1667,-1255,127601,57,19511,254,0,25640,0.0010000000000000009
604000,6012,4476,128784,-2397,1844,126163,57,19513,233,0,25641,0.0010000000000000009
605000,8573,4154,127817,-3234,1092,127295,46,19517,188,0,25642,0.0010000000000000009
606000,3958,1714,127370,-1772,-1351,126715,62,19510,254,1,25643,0.0010000000000000009
607000,3453,2575,127821,-2388,-1264,127109,48,19515,197,1,25644,0.0010000000000000009
608002,6155,2162,127420,-3195,-718,127331,54,19515,221,1,25645,0.0010019999999999474
609002,6947,3981,127618,-2497,1146,125864,43,19516,221,1,25646,0.0010000000000000009
610002,4450,5741,127915,-1453,2834,123415,53,19520,176,1,25647,0.0010000000000000009
611002,6686,2722,126581,-6055,725,127911,53,19513,217,0,25648,0.0010000000000000009
612022,5801,5077,127594,5582,2442,123053,55,19511,225,0,25649,0.0010200000000000209
613000,4006,4114,127908,-5587,2513,128055,57,19516,233,0,25650,0.0009780000000000344
614000,9963,1357,128853,-14235,-1776,124649,45,19516,184,0,25651,0.0010000000000000009
615000,2998,-9,128777,11909,-1635,133555,54,19519,184,0,25652,0.0010000000000000009
616000,3051,-8067,124668,-2950,-4095,127339,88,19512,221,1,25653,0.0010000000000000009
617000,-238,10619,127957,-18522,13159,119179,88,19509,360,1,25654,0.0010000000000000009
618000,7408,13601,128427,-1015,8463,127087,57,19516,233,1,25655,0.0010000000000000009
619000,6540,6220,126303,3002,1516,123839,47,19516,192,1,25656,0.0010000000000000009
620000,6131,-1965,127656,-6191,-9322,131912,47,19516,192,1,25657,0.0010000000000000009
621000,5669,-5778,126332,-108,-4549,126902,76,19513,192,0,25658,0.0010000000000000009
622001,3487,6240,128441,1426,4698,125145,61,19509,311,0,25659,0.0010010000000000296
623000,3513,6602,129366,-10812,1175,129324,61,19513,250,0,25660,0.0009989999999999721
624000,5724,5528,127215,-5376,4121,122706,50,19519,205,0,25661,0.0010000000000000009
625000,4795,4035,127526,1752,-817,129536,50,19516,205,0,25662,0.0010000000000000009
626006,4894,765,127288,-514,-2541,125615,77,19512,315,1,25663,0.0010059999999999514
627000,6152,802,127851,-5967,-1183,125749,57,19512,315,1,25664,0.0009940000000000504
628000,6763,3814,128541,-5120,1976,128968,50,19514,233,1,25665,0.0010000000000000009
629000,8325,6839,128238,2672,4253,124848,50,19517,205,1,25666,0.0010000000000000009
630000,4409,3248,127373,-2298,-864,127837,45,19517,184,1,25667,0.0010000000000000009
631001,2243,-1217,126386,-7280,-4143,126873,64,19507,262,0,25668,0.0010009999999999186
632003,5413,1490,128230,-4208,-397,126145,77,19509,315,0,25669,0.0010020000000000584
633000,7369,3758,128963,698,1537,128570,60,19509,315,0,25670,0.0009970000000000256
634000,6637,5106,128360,-2308,1973,125465,50,19514,246,0,25671,0.0010000000000000009
635000,7234,905,126911,-3546,-2550,127545,50,19513,205,0,25672,0.0010000000000000009
636000,3578,256,126484,-374,-2648,127463,66,19506,270,1,25673,0.0010000000000000009
637003,3812,2104,127074,-2371,-273,125585,79,19512,324,1,25674,0.0010029999999999761
638000,11035,5333,128958,-4269,2635,126231,53,19516,217,1,25675,0.0009970000000000256
639000,9314,4590,128768,930,705,126781,42,19516,217,1,25676,0.0010000000000000009
640003,6377,-686,127521,5337,-2951,127568,56,19517,172,0,25677,0.0010029999999999761
641000,5060,-3606,126649,-4616,-6237,129369,56,19513,229,0,25678,0.0009970000000000256
642000,5723,3975,128453,-4592,1697,125972,61,19507,250,0,25679,0.0010000000000000009
643000,8128,6061,128838,-944,4497,126082,60,19512,246,0,25680,0.0010000000000000009
644000,12101,3834,127917,2212,512,127912,46,19520,188,0,25681,0.0010000000000000009
645000,7864,44,127283,1373,-3051,126264,54,19520,188,0,25682,0.0010000000000000009
646000,5835,-4087,126760,-893,-6130,127978,92,19512,221,1,25683,0.0010000000000000009
647000,5306,-1275,127906,-4493,-4140,129479,92,19508,377,1,25684,0.0010000000000000009
648000,8821,7193,129679,-15,4597,126434,61,19513,250,1,25685,0.0010000000000000009
649000,8984,4954,128382,-1720,2695,126652,45,19515,184,1,25686,0.0010000000000000009
650000,8495,-1177,126161,438,-4285,127554,49,19513,201,1,25687,0.0010000000000000009
651000,5295,802,127543,1112,-2150,125515,66,19513,270,0,25688,0.0010000000000000009
652000,8529,-2380,128088,-1036,-4541,130039,63,19515,270,0,25689,0.0010000000000000009
653000,8377,2426,128053,-2746,-361,128883,48,19516,258,0,25690,0.0010000000000000009
654000,8424,9823,129322,-809,7193,123740,48,19518,197,0,25691,0.0010000000000000009
655000,7006,2206,127462,1127,-235,126486,47,19520,192,1,25692,0.0009999999999998899
656000,6240,-5954,126498,-639,-8283,129838,52,19511,213,1,25693,0.0010000000000000009
657000,8038,-1537,128365,349,-4214,128486,64,19511,262,1,25694,0.0010000000000000009
658000,9582,4114,128921,-2511,826,124870,51,19511,262,1,25695,0.0010000000000000009
659000,7009,8742,129357,1131,6823,125881,42,19519,209,1,25696,0.0010000000000000009
660000,5810,2723,127565,-2621,883,128162,42,19516,172,1,25697,0.0010000000000000009
661002,5292,-1093,126800,-4414,-2956,126859,63,19512,258,0,25698,0.0010020000000000584
662000,4738,-286,127719,1222,-2915,128066,62,19511,254,0,25699,0.0009979999999999434
663000,8698,3769,128065,-2322,2559,125577,53,19511,217,0,25700,0.0010000000000000009
664000,7856,5273,128527,-4237,1990,126860,48,19516,217,0,25701,0.0010000000000000009
665000,5622,3533,128243,-1001,-1219,127648,67,19513,197,1,25702,0.0010000000000000009
666000,2739,-238,126883,-1155,-3775,127591,67,19510,274,1,25703,0.0010000000000000009
667000,6405,433,127814,-5137,-609,126571,52,19516,213,1,25704,0.0010000000000000009
668002,6069,4390,128025,-1918,2804,125730,51,19517,209,1,25705,0.0010020000000000584
669000,6237,6565,127735,-2813,3589,125453,42,19517,172,1,25706,0.0009979999999999434
670003,2983,4254,127521,-6242,209,126566,57,19517,172,0,25707,0.0010030000000000872
671001,6586,-2769,125392,-165,-3525,127024,58,19514,233,0,25708,0.0009979999999999434
672000,2655,8958,127983,8020,5074,126506,58,19513,238,0,25709,0.0009989999999999721
673002,8483,-354,126355,-18403,-2725,127031,54,19517,221,0,25710,0.0010020000000000584
674006,13049,8380,130072,1503,7757,121690,46,19517,188,0,25711,0.0010040000000000049
675001,1309,-922,128225,11479,-8872,136240,59,19508,242,0,25712,0.0009949999999999681
676000,1656,-8742,123902,-16827,-8014,126102,79,19508,242,1,25713,0.0009989999999999721
677000,1040,4983,128416,-11584,4970,125465,55,19514,324,1,25714,0.0010000000000000009
678000,8474,12506,127034,7146,11078,124584,55,19513,225,1,25715,0.0010000000000000009
679000,8183,15440,127353,-8776,10957,118084,43,19518,176,1,25716,0.0010000000000000009
680000,7190,-4106,127662,-210,-10669,135038,54,19513,221,0,25717,0.0010000000000000009
681000,3625,-8070,124857,124,-9916,127483,75,19512,307,0,25718,0.0010000000000000009
682000,3628,5825,130553,-7307,5845,124227,60,19512,307,0,25719,0.0010000000000000009
683000,4791,6441,130083,-4752,2124,129892,48,19515,246,0,25720,0.0010000000000000009
684000,4063,4251,126815,711,627,125210,48,19518,197,0,25721,0.0010000000000000009
685000,3400,2200,127707,-10347,305,127137,53,19509,217,1,25722,0.0010000000000000009
686000,4345,4567,127791,569,1507,124890,72,19516,295,1,25723,0.0010000000000000009
687000,6614,1148,126845,2562,-1107,126589,58,19514,238,1,25724,0.0010000000000000009
688001,7800,8082,130177,-10654,6075,124911,47,19514,238,1,25725,0.0010010000000000296
689001,6881,130,126949,1062,-3160,130759,46,19517,192,1,25726,0.0010000000000000009
690000,5461,3809,128118,3448,1593,125141,46,19516,188,1,25727,0.0009989999999999721
691000,2708,-2884,126428,-7580,-6212,129056,69,19504,283,0,25728,0.0010000000000000009
692000,4780,4736,128430,-7179,2693,123954,66,19509,270,0,25729,0.0010000000000000009
693005,11492,4538,129000,252,1679,128651,54,19516,221,0,25730,0.0010050000000000336
694002,8535,3754,128262,562,932,126663,52,19516,213,0,25731,0.0009970000000000256
695000,1974,-855,126286,-1852,-4268,127315,74,19512,213,0,25732,0.0009979999999999434
696000,2699,-222,126951,-4969,-3064,128590,54,19501,303,1,25733,0.0010000000000000009
697001,9138,2867,127321,-3074,489,125878,54,19512,221,1,25734,0.0010010000000000296
698003,9085,9197,129780,-382,6800,124465,52,19517,213,1,25735,0.0010019999999999474
699000,12774,207,126628,947,-2369,127922,44,19516,180,1,25736,0.0009970000000000256
700000,3823,-1349,127476,3298,-3883,127177,60,19516,246,0,25737,0.0010000000000000009
701000,4145,-3277,127878,-3218,-6035,130391,63,19513,246,0,25738,0.0010000000000000009
702000,8699,5280,128677,-5829,2684,126669,56,19511,258,0,25739,0.0010000000000000009
703000,8253,8289,129360,883,6283,125614,56,19516,229,0,25740,0.0010000000000000009
704000,9433,2257,127944,3072,-52,127026,43,19519,176,0,25741,0.0010000000000000009
705000,8946,-5735,125312,-1746,-7827,129065,59,19509,242,0,25742,0.0010000000000000009
706000,4247,2091,128607,1651,-502,127578,104,19509,426,1,25743,0.0010000000000000009
707000,7519,2498,128536,-3823,-1196,126496,58,19512,426,1,25744,0.0010000000000000009
708002,11036,2601,128508,-1193,552,128483,45,19518,238,1,25745,0.0010020000000000584
709000,7168,5797,128637,2119,4263,128066,45,19519,184,1,25746,0.0009979999999999434
710001,6317,-1920,126715,-317,-2584,124560,51,19511,209,0,25747,0.0010010000000000296
711002,5239,-3442,126522,-2689,-5472,130135,62,19513,254,0,25748,0.0010010000000000296
712000,8722,5145,129228,973,847,128064,59,19517,242,0,25749,0.0009979999999999434
713000,9714,7011,128780,-2626,8130,123295,45,19517,242,0,25750,0.0010000000000000009
714000,6844,4551,127966,-491,-1152,127336,50,19518,184,0,25751,0.0010000000000000009
715000,4506,-518,127054,1331,-6489,128508,50,19512,205,1,25752,0.0010000000000000009
716000,10217,-4893,127711,-530,-5306,129338,48,19516,197,1,25753,0.0010000000000000009
717000,7865,-1540,128273,-3146,-1091,128361,60,19509,246,1,25754,0.0010000000000000009
718000,8951,9475,129350,2363,6853,124190,45,19521,184,1,25755,0.0010000000000000009
719000,7512,6278,128043,-3454,3140,126321,45,19521,184,1,25756,0.0010000000000000009
720000,3748,308,126927,-4138,-4216,127887,71,19518,184,0,25757,0.0010000000000000009
721000,3193,-1117,126805,-106,-3126,127670,71,19512,291,0,25758,0.0010000000000000009
722000,8123,2478,128445,-3150,265,127460,61,19513,250,0,25759,0.0010000000000000009
723000,6782,4248,128547,-1006,2159,125679,50,19518,205,0,25760,0.0010000000000000009
724000,7333,4028,127846,-2089,-340,127426,50,19513,205,0,25761,0.0010000000000000009
725001,5239,901,127020,-4766,-1882,127603,77,19513,205,1,25762,0.0010010000000000296
726000,3910,3763,128084,-1970,-192,126221,58,19515,315,1,25763,0.0009989999999999721
727000,5486,1164,127348,-2539,-1590,127511,58,19514,238,1,25764,0.0010000000000000009
728000,5427,5708,128031,-2219,3665,123208,49,19517,201,1,25765,0.0010000000000000009
729000,7337,3449,127091,-3847,-144,128258,45,19515,184,1,25766,0.0010000000000000009
730000,5580,3303,127174,-2907,2257,125162,65,19516,266,0,25767,0.0010000000000000009
731000,4683,7436,128237,6073,2052,127296,59,19516,266,0,25768,0.0010000000000000009
732000,4654,3,126997,-12151,-1056,126465,52,19513,242,0,25769,0.0010000000000000009
733000,11480,3549,129915,-7674,-191,125309,52,19516,213,0,25770,0.0010000000000000009
734000,2602,-2179,127727,15595,-4358,132996,46,19517,188,0,25771,0.0010000000000000009
735000,3435,-1010,125566,-11902,-3949,124936,66,19509,270,1,25772,0.0010000000000000009
736003,-1130,6569,128904,-17866,5316,125086,62,19513,254,1,25773,0.0010029999999999761
737000,7051,11881,127522,10623,8897,124841,52,19513,213,1,25774,0.0009970000000000256
738000,4860,5487,126389,-5709,3234,125058,42,19515,213,1,25775,0.0010000000000000009
739000,8669,2198,128590,-9562,-1563,126721,42,19516,172,1,25776,0.0010000000000000009
740000,4733,-6366,125926,6854,-9178,130481,57,19508,233,0,25777,0.0010000000000000009
741000,4258,5198,127689,-3621,1680,124696,67,19512,274,0,25778,0.0010000000000000009
742000,4125,5532,129394,-11331,2218,128425,57,19516,233,0,25779,0.0010000000000000009
743000,5633,7570,127401,-497,4995,123350,47,19516,192,0,25780,0.0010000000000000009
744001,4270,777,126911,-2369,-2187,129927,58,19516,192,0,25781,0.0010009999999999186
745000,4962,3123,127705,-4524,434,124072,58,19511,238,1,25782,0.0009990000000000832
746000,6825,-854,126974,999,-3166,128238,58,19511,238,1,25783,0.0010000000000000009
747000,7561,8038,128853,-4813,5439,124648,56,19515,229,1,25784,0.0010000000000000009
748000,7652,3281,128085,-2727,929,127637,45,19519,184,1,25785,0.0010000000000000009
749000,5403,4268,127492,2580,1633,126620,50,19519,205,1,25786,0.0010000000000000009
750000,1469,-3567,126136,-6136,-6148,128495,81,19516,205,0,25787,0.0010000000000000009
751005,4855,5041,129139,-7873,1453,124186,66,19506,332,0,25788,0.0010049999999999226
752004,7641,1143,127944,980,-737,130190,66,19514,270,0,25789,0.0009990000000000832
753000,7560,6877,129023,-1918,3578,123992,52,19516,213,0,25790,0.0009959999999999969
754000,7129,-559,126164,-3996,-2808,128786,56,19513,229,0,25791,0.0010000000000000009
755000,3708,2937,127252,1870,-359,125756,84,19513,344,1,25792,0.0010000000000000009
756000,3299,307,126761,-4606,-1712,127510,57,19507,344,1,25793,0.0010000000000000009
757000,10823,5843,129530,-5490,3753,125721,46,19515,233,1,25794,0.0010000000000000009
758000,9951,1837,127912,1431,-3021,129020,46,19517,188,1,25795,0.0010000000000000009
759000,5480,3100,128154,4896,-88,125039,43,19515,176,0,25796,0.0010000000000000009
760000,5023,-5355,126325,-4459,-5647,129976,61,19513,250,0,25797,0.0010000000000000009
761000,7180,5410,128925,-4592,2262,126361,67,19510,274,0,25798,0.0010000000000000009
762000,7178,4860,128649,330,4798,126705,54,19510,274,0,25799,0.0010000000000000009
763000,11671,4296,128426,2637,918,126296,45,19515,221,0,25800,0.0010000000000000009
764000,7671,-1786,126697,-372,-7483,129018,45,19516,184,0,25801,0.0010000000000000009
765000,5495,-2154,127770,-501,-2289,126263,68,19507,279,1,25802,0.0010000000000000009
766000,5252,-1521,127742,-3895,-1595,129384,98,19507,401,1,25803,0.0010000000000000009
767000,9773,7444,129499,-196,2655,127584,54,19518,221,1,25804,0.0010000000000000009
768000,8493,5190,128627,-143,4249,124672,42,19518,221,1,25805,0.0010000000000000009
769002,8274,-2054,126152,887,-5734,128426,57,19516,172,0,25806,0.0010019999999999474
770000,5019,-766,127365,-246,-5474,128470,57,19509,233,0,25807,0.0009980000000000544
771006,8246,82,128906,-1372,344,127086,59,19512,242,0,25808,0.0010059999999999514
772001,8515,2473,128036,-3268,732,129134,57,19519,233,0,25809,0.0009949999999999681
773002,8747,10021,129179,1247,5318,124411,43,19523,176,0,25810,0.0010010000000000296
774000,7201,1552,127252,10,-1205,126443,53,19523,176,1,25811,0.0009979999999999434
775005,6863,-5890,126922,-26,-8318,130122,53,19516,217,1,25812,0.0010050000000000336
776003,7862,-1459,128310,1099,-3676,129207,53,19512,217,1,25813,0.0009980000000000544
777000,9975,5231,129491,-1971,4434,126030,60,19518,246,1,25814,0.0009969999999999146
778003,6124,7443,128689,-594,4598,125948,45,19520,184,1,25815,0.0010030000000000872
779000,4379,2941,127310,-2285,-1053,126853,48,19515,197,1,25816,0.0009969999999999146
780000,5743,-337,126598,-4404,-2728,126890,74,19515,197,0,25817,0.0010000000000000009
781001,5770,642,128117,-475,-2211,127495,60,19512,303,0,25818,0.0010010000000000296
782000,7905,3100,128057,-1586,719,126868,60,19511,246,0,25819,0.0009989999999999721
783000,7867,4503,128336,-4965,1368,126330,47,19515,192,0,25820,0.0010000000000000009
784001,4713,1846,127645,-229,-1194,127738,54,19511,221,1,25821,0.0010010000000000296
785000,2213,972,127119,-2480,-1876,127204,68,19516,279,1,25822,0.0009989999999999721
786000,6658,2151,127777,-6009,-93,126214,56,19516,229,1,25823,0.0010000000000000009
787000,5321,5368,128366,-3109,2498,125520,45,19516,229,1,25824,0.0010000000000000009
788001,6257,5334,127421,-907,2603,125796,47,19522,184,1,25825,0.0010010000000000296
789000,4165,1358,127151,-5599,-1502,127202,47,19516,192,0,25826,0.0009989999999999721
790002,4902,694,126727,-159,-1821,125679,64,19513,262,0,25827,0.0010020000000000584
791000,5607,6993,126744,3437,4534,127396,61,19516,250,0,25828,0.0009979999999999434
792000,10212,2437,127118,-11311,-570,126817,47,19516,192,0,25829,0.0010000000000000009
793000,8066,10489,131113,-2596,8813,121473,47,19517,192,0,25830,0.0010000000000000009
794000,2913,-8432,126432,7406,-11320,136162,75,19514,192,0,25831,0.0010000000000000009
795000,-1011,-3419,126438,-9330,-6883,126450,75,19511,307,1,25832,0.0010000000000000009
796000,3882,4873,127882,-11074,836,128279,55,19513,225,1,25833,0.0010000000000000009
797000,7033,18757,127418,999,16201,118919,49,19518,201,1,25834,0.0010000000000000009
798000,8692,9645,127713,-5153,8315,123857,43,19518,176,1,25835,0.0010000000000000009
799000,5935,-7048,126056,956,-8968,129879,62,19514,176,0,25836,0.0010000000000000009
800000,4510,-6849,125604,-2309,-10558,127362,61,19513,254,0,25837,0.0010000000000000009
801000,4760,7270,130870,-7491,3666,125921,61,19514,250,0,25838,0.0010000000000000009
802000,5861,6328,129099,-1402,4195,127335,56,19516,229,0,25839,0.0010000000000000009
803000,3670,3104,126398,-3237,-536,128202,47,19517,192,0,25840,0.0010000000000000009
804000,4888,3475,127574,-10073,1503,124087,65,19507,266,1,25841,0.0010000000000000009
805006,4883,3163,127262,1485,130,126576,57,19507,266,1,25842,0.0010060000000000624
806003,6492,1007,127469,1873,-858,127728,55,19515,233,1,25843,0.0009969999999999146
807000,7445,6556,129686,-10188,3562,125646,55,19514,225,1,25844,0.0009970000000000256
808000,6734,938,127209,4920,-1834,130233,43,19519,176,1,25845,0.0010000000000000009
809001,3474,4391,127758,-327,794,124443,56,19512,229,1,25846,0.0010010000000000296
810000,2658,-2099,126700,-10228,-5386,128248,94,19509,385,0,25847,0.0009989999999999721
811000,6704,4601,128319,-6343,3785,124387,62,19509,385,0,25848,0.0010000000000000009
812002,10448,5276,129302,4404,1438,128978,49,19513,254,0,25849,0.0010020000000000584
813001,8130,2991,127778,-1968,6,125806,49,19518,201,0,25850,0.0009989999999999721
814000,2331,-1304,126508,-3181,-5466,128236,58,19510,238,1,25851,0.0009989999999999721
815000,1710,-1669,126602,-3085,-3149,128101,94,19510,385,1,25852,0.0010000000000000009
816000,10487,5652,127779,-4772,4270,124184,57,19514,233,1,25853,0.0010000000000000009
817000,8857,9073,129454,103,5956,125212,45,19514,233,1,25854,0.0010000000000000009
818001,11261,-108,126908,3420,-4341,127644,49,19519,184,1,25855,0.0010010000000000296
819000,4700,-4788,126728,-1063,-8227,129989,49,19512,201,0,25856,0.0009989999999999721
820000,3777,-724,128418,-2481,-1311,127859,58,19513,238,0,25857,0.0010000000000000009
821000,8771,5203,128061,-4698,4136,125769,65,19512,266,0,25858,0.0010000000000000009
822000,7632,8559,129129,159,4654,126943,50,19512,205,0,25859,0.0010000000000000009
823002,10402,1753,127596,-346,-687,125425,49,19512,205,0,25860,0.0010020000000000584
824000,7833,-5392,125792,2208,-7892,129284,75,19517,201,0,25861,0.0009979999999999434
825002,4528,-369,128093,394,-3754,128147,75,19500,307,1,25862,0.0010020000000000584
826000,7917,3204,128653,-4792,2100,126117,76,19512,311,1,25863,0.0009979999999999434
827000,10355,5360,129056,506,3184,128818,49,19514,201,1,25864,0.0010000000000000009
828001,11499,3886,128012,-1165,-256,126834,45,19516,184,1,25865,0.0010010000000000296
829000,3406,-491,127854,3727,-3008,124993,66,19516,184,0,25866,0.0009989999999999721
830000,5688,-7170,126151,-1653,-11249,132889,62,19512,270,0,25867,0.0010000000000000009
831001,6976,3845,128386,-3279,1313,126111,50,19515,254,0,25868,0.0010010000000000296
832000,10760,11996,130137,-1874,9717,124782,50,19519,205,0,25869,0.0009989999999999721
833000,8329,5583,127837,1619,2749,125524,42,19517,172,1,25870,0.0010000000000000009
834000,3911,-2151,127449,176,-5330,127255,60,19514,246,1,25871,0.0010000000000000009
835000,9959,-8780,126901,-450,-11791,132368,61,19514,250,1,25872,0.0010000000000000009
836000,6684,1035,128722,-645,-1475,127465,54,19513,250,1,25873,0.0010000000000000009
837000,10069,10563,129851,-1467,8232,125391,42,19518,221,1,25874,0.0010000000000000009
838000,5979,8587,128348,-2842,6328,124063,42,19518,172,1,25875,0.0010000000000000009
839000,4752,-2951,126451,-2031,-5565,130045,53,19510,217,0,25876,0.0010000000000000009
840000,2541,-2246,126831,-2500,-5066,127486,64,19512,262,0,25877,0.0010000000000000009
841000,8955,2132,128131,-2555,-858,126767,58,19512,238,0,25878,0.0010000000000000009
842000,8385,6595,129199,40,3853,125786,48,19516,238,0,25879,0.0010000000000000009
843000,6863,3960,127668,-3116,1580,126531,58,19517,197,0,25880,0.0010000000000000009
844000,5080,-71,126738,-3699,-3009,129131,58,19509,238,1,25881,0.0010000000000000009
845000,4116,1417,127012,-197,-1677,126761,52,19517,213,1,25882,0.0010000000000000009
846000,5348,1718,127400,-2533,-2016,124716,54,19517,221,1,25883,0.0010000000000000009
847000,7040,7879,128155,-4592,5368,127379,43,19518,176,1,25884,0.0010000000000000009
848000,6362,3096,126890,-1508,-19,125117,51,19518,176,1,25885,0.0010000000000000009
849000,3643,5085,127834,-5048,3583,127467,61,19511,209,0,25886,0.0010000000000000009
850000,5463,-63,126301,-241,1711,125042,61,19512,250,0,25887,0.0010000000000000009
851000,4953,5917,127750,4534,-933,128886,59,19516,242,0,25888,0.0010000000000000009
852000,13363,227,128305,-16044,244,124775,46,19517,188,0,25889,0.0010000000000000009
853000,4192,8086,130458,3903,2497,126227,54,19513,221,0,25890,0.0010000000000000009
854000,2775,-5075,126137,-8757,-10084,132891,83,19513,221,1,25891,0.0010000000000000009
855000,-3647,1080,127010,-13567,1300,123750,58,19505,340,1,25892,0.0010000000000000009
856000,5733,10328,129000,1849,8641,125501,58,19512,238,1,25893,0.0010000000000000009
857002,6662,11712,126536,-4240,9369,121016,49,19516,201,1,25894,0.0010019999999999474
858000,8293,6071,128373,-2792,-2176,127640,48,19516,197,1,25895,0.0009980000000000544
859000,3880,-8477,126386,422,-11921,131856,73,19509,299,0,25896,0.0010000000000000009
860000,6034,-703,125973,-5884,846,123939,62,19509,299,0,25897,0.0010000000000000009
861000,3133,10374,131038,-5897,5579,128511,50,19515,254,0,25898,0.0010000000000000009
862001,7345,4827,127774,-421,2406,125069,50,19518,205,0,25899,0.0010009999999999186
863001,2625,1095,126363,-6565,-2329,128172,48,19516,197,0,25900,0.0010000000000000009
864003,5292,3077,127960,-3209,893,126279,70,19512,287,1,25901,0.0010020000000000584
865000,7793,2375,126583,2330,-622,124033,57,19514,233,1,25902,0.0009970000000000256
866000,6561,4755,128227,-6789,3429,126931,52,19514,233,1,25903,0.0010000000000000009
867000,8604,5703,128754,-2929,1345,127662,44,19519,213,1,25904,0.0010000000000000009
868000,6594,804,127090,3163,-672,127599,44,19520,180,1,25905,0.0010000000000000009
869000,577,-643,127376,-4256,-4566,128677,58,19512,238,0,25906,0.0010000000000000009
870000,4931,1945,127783,-8772,1136,123625,80,19509,328,0,25907,0.0010000000000000009
871000,9048,4054,128838,-642,890,128867,58,19510,238,0,25908,0.0010000000000000009
872000,7809,5072,128574,3225,2948,126226,51,19510,238,0,25909,0.0010000000000000009
873000,6311,1361,126522,-4259,-2265,126025,65,19511,209,0,25910,0.0010000000000000009
874000,2422,1891,127438,-4494,-692,127119,65,19509,266,1,25911,0.0010000000000000009
875003,4296,912,126709,-908,-3192,127589,86,19514,352,1,25912,0.0010029999999999761
876000,11281,4002,128755,-1322,1940,126659,58,19514,238,1,25913,0.0009970000000000256
877000,11181,4604,128283,-1038,1244,126208,46,19519,188,1,25914,0.0010000000000000009
878000,4956,2550,127745,4163,266,124890,53,19519,217,0,25915,0.0010000000000000009
879000,5724,-5627,126400,-3215,-8458,131289,62,19516,217,0,25916,0.0010000000000000009
880000,6377,4401,129152,-3329,2009,126155,63,19509,254,0,25917,0.0010000000000000009
881000,6340,6222,129083,-2222,3693,126758,63,19514,258,0,25918,0.0010000000000000009
882000,11605,3772,128338,496,1474,127884,48,19515,197,0,25919,0.0010000000000000009
883000,8283,-1240,126732,2738,-3503,126639,52,19511,213,0,25920,0.0010000000000000009
884000,5279,-157,127660,948,-3070,126694,86,19511,352,1,25921,0.0010000000000000009
885000,6168,-1937,127536,-6829,-4736,129725,61,19499,352,1,25922,0.0010000000000000009
886000,10369,6209,129616,706,4022,125998,47,19513,250,1,25923,0.0010000000000000009
887000,7768,6460,128961,739,3429,126614,47,19517,192,1,25924,0.0010000000000000009
888000,7422,-3245,126454,-783,-5845,129126,44,19514,180,0,25925,0.0010000000000000009
889000,3942,-1769,127328,-1055,-4065,126194,70,19513,287,0,25926,0.0010000000000000009
890000,9093,1551,129094,-627,-2060,128812,61,19513,250,0,25927,0.0010000000000000009
891000,8641,4428,127936,-1855,1683,127665,48,19513,250,0,25928,0.0010000000000000009
892000,8174,8174,128847,-1067,6535,126679,46,19516,197,0,25929,0.0010000000000000009
893000,7217,414,127368,-274,-2114,127185,46,19516,188,1,25930,0.0009999999999998899
894000,6987,-5523,127306,1581,-7319,129641,52,19514,213,1,25931,0.0010000000000000009
895000,7878,-1792,128472,-591,-4289,129428,62,19512,254,1,25932,0.0010000000000000009
896000,10225,6355,129573,-2211,1983,124359,50,19514,205,1,25933,0.0010000000000000009
897000,6625,6565,128495,1375,2869,126843,42,19514,205,1,25934,0.0010000000000000009
898000,4128,3736,127350,-3434,-824,126228,61,19517,172,1,25935,0.0010000000000000009
899000,4878,-1337,126524,-3871,-4124,128190,61,19509,250,0,25936,0.0010000000000000009
900000,5957,864,127904,-23,-638,127170,60,19514,246,0,25937,0.0010000000000000009
901000,7272,3733,128453,-1958,1363,126668,54,19518,221,0,25938,0.0010000000000000009
902000,8435,4309,128464,-1880,948,127271,47,19515,192,0,25939,0.0010000000000000009
903000,4149,705,127317,-1976,-2469,127099,67,19515,192,1,25940,0.0010000000000000009
904000,3406,2029,127654,-3411,-836,126487,54,19509,274,1,25941,0.0010000000000000009
905000,6451,2410,127624,-3126,288,126642,54,19516,221,1,25942,0.0010000000000000009
906000,5026,7055,128887,-3032,4412,124909,52,19518,213,1,25943,0.0010000000000000009
907001,5884,3416,127744,-4179,-430,127476,43,19522,176,1,25944,0.0010010000000000296
908000,4524,-1429,126034,-1461,-5473,127573,56,19515,229,0,25945,0.0009989999999999721
909000,4845,8509,129088,3434,8896,122382,58,19515,229,0,25946,0.0010000000000000009
910000,6659,65,125910,-5047,-4510,132528,57,19511,238,0,25947,0.0010000000000000009
911002,12726,11587,130158,-10795,12583,116584,57,19515,233,0,25948,0.0010020000000000584
912002,5760,1755,130048,7366,-5476,133451,43,19516,176,0,25949,0.0010000000000000009
913000,3380,-7286,126292,-2438,-9361,130117,57,19510,233,1,25950,0.0009979999999999434
914000,-3640,-3455,128107,-14536,-6802,128790,82,19517,336,1,25951,0.0010000000000000009
915000,5812,10587,128038,-2609,11094,122916,55,19517,336,1,25952,0.0010000000000000009
916000,6220,19900,127707,-3096,16063,118854,45,19514,225,1,25953,0.0010000000000000009
917000,9111,4014,127860,-3777,-564,128705,45,19517,184,1,25954,0.0010000000000000009
918000,3293,-8996,124930,3832,-12105,129566,50,19512,205,0,25955,0.0010000000000000009
919000,4257,-3577,127561,-8489,-5743,128673,78,19512,319,0,25956,0.0010000000000000009
920000,4058,8859,131177,-3879,6657,124664,62,19514,254,0,25957,0.0010000000000000009
921000,5839,4890,127775,489,2011,128083,46,19514,254,0,25958,0.0010000000000000009
922000,3784,3510,126275,-9917,488,127359,55,19516,188,0,25959,0.0010000000000000009
923000,6965,4170,127335,-3151,1952,122919,75,19513,225,1,25960,0.0010000000000000009
924000,5146,997,126514,5491,-982,128290,75,19516,307,1,25961,0.0010000000000000009
925000,7528,1897,127757,-4722,-432,125890,60,19517,246,1,25962,0.0010000000000000009
926000,8269,6350,129736,-9151,3834,126660,49,19519,201,1,25963,0.0010000000000000009
927000,6287,656,126949,6528,-1738,130399,45,19519,184,1,25964,0.0010000000000000009
928000,1365,3634,127305,-1800,1043,123852,65,19515,184,1,25965,0.0010000000000000009
929000,4274,-2395,126650,-10409,-5252,128959,63,19504,266,0,25966,0.0010000000000000009
930001,8220,6775,128362,-4589,3656,123662,63,19509,258,0,25967,0.0010010000000000296
931003,9057,3957,129119,3990,1543,129506,56,19514,229,0,25968,0.0010019999999999474
932000,8101,2903,127254,-3007,219,125760,52,19514,213,0,25969,0.0009970000000000256
933000,1596,-2621,126667,-2309,-5685,128721,75,19514,307,1,25970,0.0010000000000000009
934000,2783,502,126953,-2900,-3061,128461,63,19505,307,1,25971,0.0010000000000000009
935000,11048,5452,128607,-4816,3379,124446,50,19511,258,1,25972,0.0010000000000000009
936001,8530,8648,129387,-392,5835,125276,50,19519,205,1,25973,0.0010010000000000296
937001,10298,-1242,126685,2813,-3094,127879,43,19517,176,1,25974,0.0010000000000000009
938000,4422,-4018,127030,103,-6097,128444,58,19516,238,0,25975,0.0009989999999999721
939001,4803,1291,128908,-1794,-2651,125921,64,19513,262,0,25976,0.0010010000000000296
940000,7867,4845,128016,-4524,1694,126386,59,19513,262,0,25977,0.0009989999999999721
941000,9964,6087,128858,361,4925,128059,44,19516,242,0,25978,0.0010000000000000009
942000,9301,2574,127644,299,1072,124589,44,19517,180,0,25979,0.0010000000000000009
943000,7318,-4317,126455,-24,-6969,128556,58,19511,238,0,25980,0.0010000000000000009
944002,4951,-1182,127807,2518,-5299,129222,98,19507,401,1,25981,0.0010020000000000584
945000,7697,4101,129239,-4324,3099,126869,59,19516,242,1,25982,0.0009979999999999434
946000,10842,4958,128931,-1217,5122,126408,44,19516,242,1,25983,0.0010000000000000009
947000,9994,2676,127252,707,-4715,127914,53,19516,180,1,25984,0.0010000000000000009
948005,3972,-347,127751,1184,-3813,126458,53,19511,217,0,25985,0.0010050000000000336
949001,7336,-5868,126317,-3479,-6561,130160,65,19513,266,0,25986,0.0009959999999999969
950000,7210,3949,128254,-1445,2371,127647,57,19515,233,0,25987,0.0009989999999999721
951003,10357,12050,130043,-1326,9005,123733,45,19518,184,0,25988,0.0010029999999999761
952000,7047,3978,127674,992,537,125569,49,19518,184,1,25989,0.0009970000000000256
953000,4835,-4033,126693,314,-9893,131591,46,19512,201,1,25990,0.0010000000000000009
954000,9419,-5915,127412,451,-6803,129250,46,19512,188,1,25991,0.0010000000000000009
955000,8382,3065,128926,-2714,3350,126784,63,19517,258,1,25992,0.0010000000000000009
956000,8795,9907,129639,941,7286,124674,46,19517,188,1,25993,0.0010000000000000009
957000,5140,6960,127873,-2885,2721,125885,42,19513,172,1,25994,0.0010000000000000009
958000,5036,-3686,126471,-4583,-6553,129994,67,19513,172,0,25995,0.0010000000000000009
959002,3198,68,127452,-220,-1774,125535,60,19512,274,0,25996,0.0010019999999999474
960000,9459,2356,128226,-1341,-30,128315,60,19512,246,0,25997,0.0009980000000000544
961000,7943,5953,128930,-1706,3539,124743,51,19517,209,0,25998,0.0010000000000000009
962000,6225,2169,127780,-2072,-1468,128333,49,19516,201,0,25999,0.0010000000000000009
963000,4600,1707,126821,-3631,-1169,127027,74,19513,303,1,26000,0.0010000000000000009
964000,5498,1695,127295,-2259,-1704,126560,53,19513,303,1,26001,0.0010000000000000009
965000,5250,1905,127369,-3755,-164,125869,49,19513,217,1,26002,0.0010000000000000009
966000,6489,6894,128174,-3336,3464,125748,49,19517,201,1,26003,0.0010000000000000009
967000,4914,2556,126816,-1264,382,127231,42,19519,172,1,26004,0.0010000000000000009
968000,4993,5940,128165,-7208,2803,124513,64,19513,262,0,26005,0.0010000000000000009
969000,3471,363,126580,7059,-2118,128251,59,19514,242,0,26006,0.0010000000000000009
970002,6597,5165,127480,-7198,2180,125761,52,19514,213,0,26007,0.0010019999999999474
971000,12901,-1017,128299,-13214,-3287,127411,44,19516,213,0,26008,0.0009980000000000544
972000,2370,7193,129665,15970,4643,125229,62,19521,180,0,26009,0.0010000000000000009
973000,2978,-7266,124971,-9873,-10272,133067,62,19508,254,1,26010,0.0010000000000000009
974000,-1003,5661,128576,-16376,2661,122977,63,19515,258,1,26011,0.0010000000000000009
975000,5820,10249,127813,5995,7870,126201,54,19516,221,1,26012,0.0010000000000000009
976003,6685,9985,126508,-5411,7172,122717,43,19516,176,1,26013,0.0010029999999999761
977002,7406,3064,128680,-6066,1154,124486,53,19515,176,1,26014,0.0009989999999999721
978002,4517,-8802,125566,3521,-12206,133983,68,19514,217,0,26015,0.0010000000000000009
979002,4265,4365,127952,-4471,82,123155,68,19514,279,0,26016,0.0010000000000000009
980000,3930,7621,130344,-8450,5333,128194,58,19516,238,0,26017,0.0009980000000000544
981001,5355,5098,127068,-574,2160,125592,48,19515,197,0,26018,0.0010009999999999186
982000,3406,725,127052,-4630,-1831,127974,57,19515,233,1,26019,0.0009990000000000832
983000,4760,4157,127889,-5552,1543,126120,65,19513,233,1,26020,0.0010000000000000009
984000,7514,1470,126319,3266,-1647,124815,60,19517,266,1,26021,0.0010000000000000009
985000,6200,7778,129236,-5640,4526,126137,60,19514,246,1,26022,0.0010000000000000009
986001,8399,1435,127576,-4881,169,129202,46,19518,188,1,26023,0.0010009999999999186
987000,5115,3965,127806,4144,604,126556,47,19516,192,1,26024,0.0009990000000000832
988000,1328,-3731,126651,-3814,-5573,127658,75,19505,307,0,26025,0.0010000000000000009
989000,5012,6449,128975,-10858,2238,123998,65,19505,307,0,26026,0.0010000000000000009
990000,9466,810,127962,-113,-1296,130547,53,19514,266,0,26027,0.0010000000000000009
991000,7982,7413,128676,1908,3691,123607,53,19514,217,0,26028,0.0010000000000000009
992002,4558,-1583,126068,-4679,-4102,128589,54,19510,221,0,26029,0.0010019999999999474
993000,3328,3150,127515,-1491,-1261,126284,82,19504,336,1,26030,0.0009980000000000544
994000,5091,-866,126599,-3136,-2887,128821,57,19514,233,1,26031,0.0010000000000000009
995000,10739,7236,129287,-561,5499,124560,47,19514,233,1,26032,0.0010000000000000009
996000,11379,1949,127051,653,-1902,127659,44,19516,192,1,26033,0.0010000000000000009
997000,4399,3647,128047,800,-1407,125644,44,19516,180,0,26034,0.0010000000000000009
998000,5117,-6887,126628,-779,-6293,130359,64,19513,262,0,26035,0.0010000000000000009
999000,7683,5148,128987,-5630,1555,127033,64,19513,262,0,26036,0.0010000000000000009
1000000,7017,6523,129290,-896,5003,125824,54,19517,221,0,26037,0.0010000000000000009
1001000,10591,4278,128275,3899,1053,125990,45,19517,221,0,26038,0.0009999999999998899
1002002,8656,-4264,126091,-345,-8431,129902,65,19515,184,0,26039,0.0010020000000001694
1003000,4362,1474,128389,-624,-516,124553,65,19505,266,1,26040,0.0009979999999998324
1004000,6326,-1551,127715,-3921,-2027,129572,107,19513,438,1,26041,0.001000000000000112
1005002,10480,6348,129327,993,2705,127417,56,19518,229,1,26042,0.0010019999999999474
1006002,7842,5832,129053,907,2789,125710,45,19516,184,1,26043,0.001000000000000112
1007000,7176,-3512,126237,-309,-5564,127729,55,19516,184,0,26044,0.0009979999999998324
1008002,4243,-2112,127210,-1715,-6587,128775,58,19514,225,0,26045,0.0010020000000001694
1009000,9196,4065,129169,921,2943,126042,58,19513,238,0,26046,0.0009979999999998324
1010000,9202,4143,128017,-2839,1685,127687,56,19516,229,0,26047,0.001000000000000112
1011000,7859,6696,128502,-120,3330,125562,43,19521,176,0,26048,0.0009999999999998899
1012000,6914,831,127546,403,-1898,126328,55,19515,225,1,26049,0.001000000000000112
1013000,8266,-5780,127335,1687,-7866,130542,53,19515,217,1,26050,0.0009999999999998899
1014000,7520,-1226,128421,-1418,-3849,129503,61,19513,217,1,26051,0.001000000000000112
1015000,10424,6815,129553,-947,5131,125308,43,19514,250,1,26052,0.0009999999999998899
1016000,7494,7384,128403,353,4906,125831,43,19516,176,1,26053,0.001000000000000112
1017000,3954,1563,126910,-2902,-1230,126915,47,19516,192,0,26054,0.0009999999999998899
1018000,5128,-362,127029,-4212,-2955,127053,77,19515,315,0,26055,0.001000000000000112
1019000,6714,-25,127770,-478,-2997,128293,60,19515,246,0,26056,0.0009999999999998899
1020000,6629,4500,128805,-2505,1763,126316,50,19513,246,0,26057,0.001000000000000112
1021000,8074,3159,127901,-3415,276,127485,54,19521,205,0,26058,0.0009999999999998899
1022000,4383,2134,127437,-272,-873,126752,54,19514,221,1,26059,0.001000000000000112
1023000,3675,1555,127272,-4012,-2016,127321,71,19518,291,1,26060,0.0009999999999998899
1024000,6715,3742,127872,-3051,675,126373,54,19516,221,1,26061,0.001000000000000112
1025000,5893,5027,128635,-3319,2289,125963,47,19516,192,1,26062,0.0009999999999998899
1026017,5474,3743,127645,-2621,986,126869,44,19519,192,1,26063,0.0010170000000000456
1027000,3715,-2239,125313,-2079,-4456,127422,69,19518,180,0,26064,0.0009829999999999561
1028000,6829,10776,129223,-484,7481,121886,69,19515,283,0,26065,0.001000000000000112
1029000,5608,-840,125717,1285,-2474,132455,61,19514,250,0,26066,0.0009999999999998899
1030000,12223,12939,131067,-10784,8781,118848,51,19517,209,0,26067,0.001000000000000112
1031000,5039,-3454,128572,720,-2430,129735,45,19515,184,0,26068,0.0009999999999998899
1032000,2496,-4591,126721,5089,-8550,131629,72,19515,184,1,26069,0.001000000000000112
1033000,-2525,-4564,127141,-11770,-7243,130498,55,19509,295,1,26070,0.0009999999999998899
1034000,6139,14958,128045,-9780,7779,116196,55,19512,225,1,26071,0.001000000000000112
1035000,6264,18095,127651,-237,18546,124721,51,19519,209,1,26072,0.0009999999999998899
1036000,8947,1603,127193,-4080,1101,128301,45,19518,184,1,26073,0.001000000000000112
1037000,2936,-8167,125600,1852,-12146,130301,60,19508,246,0,26074,0.0009999999999998899
1038000,4834,-3050,127566,-6251,-1104,126572,60,19508,246,0,26075,0.001000000000000112
1039000,3769,11235,130980,-4817,7017,125151,55,19512,246,0,26076,0.0009999999999998899
1040000,5573,3592,127602,320,876,128646,55,19515,225,0,26077,0.001000000000000112
1041000,3069,4150,126173,-11200,1041,125145,48,19516,197,0,26078,0.0009999999999998899
1042000,6552,4028,127822,758,2178,124477,66,19505,270,1,26079,0.001000000000000112
1043000,6083,912,127166,4395,-2054,127484,52,19515,213,1,26080,0.0009999999999998899
1044000,7015,1333,127706,-8535,773,125938,56,19515,213,1,26081,0.001000000000000112
1045000,8254,6842,130018,-5999,2986,128336,43,19517,229,1,26082,0.0009999999999998899
1046000,6022,1049,126468,7981,-231,127447,43,19518,176,1,26083,0.001000000000000112
1047000,541,3544,127437,-5335,-1211,126088,53,19509,217,0,26084,0.0009999999999998899
1048000,5286,-1990,126915,-13004,-3142,126713,89,19511,365,0,26085,0.001000000000000112
1049000,7977,7063,128723,584,4097,125506,64,19513,262,0,26086,0.0009999999999998899
1050000,8799,3114,129216,3681,345,129665,50,19513,262,0,26087,0.001000000000000112
1051002,7436,2017,127248,-5352,-1900,125405,58,19515,205,0,26088,0.0010019999999999474
1052002,1600,-2270,126477,-2437,-4919,129215,58,19508,238,1,26089,0.0009999999999998899
1053000,3174,2330,127174,-3162,-337,126321,91,19509,373,1,26090,0.0009980000000000544
1054000,10944,4984,128581,-3160,3338,125249,59,19516,242,1,26091,0.001000000000000112
1055000,8801,8216,129322,-533,4805,125783,45,19514,184,1,26092,0.0009999999999998899
1056003,8689,-1655,126673,4590,-4093,127519,48,19514,184,1,26093,0.0010030000000000872
1057000,5163,-3567,127116,-2771,-6863,129603,59,19513,197,0,26094,0.0009969999999999146
1058001,5125,1470,128957,-3450,-586,127172,59,19513,242,0,26095,0.0010010000000000296
1059000,7487,5525,128503,-2175,3330,126735,63,19513,258,0,26096,0.0009989999999999721
1060000,10470,4653,128319,-234,1823,128096,51,19519,209,0,26097,0.001000000000000112
1061000,8330,3155,127306,1657,785,123581,48,19516,197,0,26098,0.0009999999999998899
1062000,7783,-4022,126348,122,-6564,129076,72,19516,295,0,26099,0.001000000000000112
1063000,5426,-1409,127829,-1962,-4075,128195,84,19498,295,1,26100,0.0009999999999998899
1064000,7995,4128,129512,-2260,1494,127500,51,19508,344,1,26101,0.001000000000000112
1065000,10272,4461,128182,-729,1736,128291,51,19516,209,1,26102,0.0009999999999998899
1066000,7500,2663,127050,830,122,125832,44,19517,180,1,26103,0.001000000000000112
1067001,6116,-205,127516,-3019,-3142,125405,61,19509,250,0,26104,0.0010009999999998076
1068000,6981,-3158,127620,267,-6838,130959,61,19511,250,0,26105,0.0009990000000001942
1069001,7429,1843,127823,1424,-783,128955,54,19511,250,0,26106,0.0010009999999998076
1070000,8634,9486,128987,-3910,6205,123750,42,19519,221,0,26107,0.0009990000000001942
1071000,7927,5328,127950,900,3289,125006,42,19516,172,1,26108,0.0009999999999998899
1072000,9119,-3635,126759,212,-5136,128705,59,19517,242,1,26109,0.0009999999999998899
1073000,6412,-944,128851,999,-4086,127643,59,19517,242,1,26110,0.001000000000000112
1074000,8108,-2761,128737,-3448,-6672,132334,57,19517,233,1,26111,0.0009999999999998899
1075002,4736,7081,128458,154,5082,124352,42,19517,233,1,26112,0.0010020000000001694
1076002,5528,6273,128087,-2426,3841,126464,51,19518,172,1,26113,0.0009999999999998899
1077000,7185,2660,126921,-4585,267,126109,51,19516,209,0,26114,0.0009980000000000544
1078000,6561,1465,127776,-1535,-339,125696,69,19512,283,0,26115,0.0009999999999998899
1079002,7676,892,128477,686,-1923,127329,58,19516,238,0,26116,0.0010020000000001694
1080000,6453,811,128193,-1411,-2284,127959,49,19520,201,0,26117,0.0009979999999998324
1081000,6935,1162,127270,-4570,-2212,127264,56,19520,201,0,26118,0.001000000000000112
1082000,2842,4944,127127,-948,1866,125467,58,19509,229,1,26119,0.0009999999999998899
1083000,7614,3236,127483,-2402,1280,126648,58,19513,238,1,26120,0.001000000000000112
1084000,5595,4646,128646,-4787,2783,124470,54,19514,221,1,26121,0.0009999999999998899
1085000,5157,3007,127797,-1247,-1838,128824,43,19519,176,1,26122,0.001000000000000112
1086002,4405,217,126961,-2510,-507,125872,49,19516,201,0,26123,0.0010019999999999474
1087002,3372,756,127061,-6263,-2870,129405,61,19516,201,0,26124,0.001000000000000112
1088000,5970,8016,127419,11592,8186,123128,58,19512,250,0,26125,0.0009979999999998324
1089000,5076,7814,127126,-12667,3126,125868,58,19513,238,0,26126,0.001000000000000112
1090001,16642,2307,128571,-10912,631,123793,47,19519,192,0,26127,0.0010010000000000296
1091000,1043,1128,129508,18980,-4860,131506,50,19516,205,0,26128,0.0009989999999999721
1092000,3852,-12256,124943,-10597,-14235,133860,81,19506,332,1,26129,0.0009999999999998899
1093000,-3821,5331,128418,-19836,5888,122372,57,19506,332,1,26130,0.001000000000000112
1094002,7164,16235,128881,7028,13376,124413,47,19516,233,1,26131,0.0010019999999999474
1095000,6102,11314,125029,-3896,8946,120725,47,19516,192,1,26132,0.0009980000000000544
1096000,8571,1356,128009,-6340,-5408,128945,45,19515,184,1,26133,0.0009999999999998899
1097000,4351,-9330,126107,2459,-11817,130808,70,19505,287,0,26134,0.001000000000000112
1098000,6304,3310,127948,-2943,3311,123352,62,19513,254,0,26135,0.0009999999999998899
1099000,2086,7234,131108,-8889,2394,131876,53,19513,254,0,26136,0.001000000000000112
1100000,6521,4423,126926,-1168,2276,123584,49,19515,217,0,26137,0.0009999999999998899
1101000,1561,1190,126153,-6406,-1739,128677,49,19516,201,1,26138,0.001000000000000112
1102000,6102,6144,128027,-2423,3665,123843,70,19509,287,1,26139,0.0009999999999998899
1103001,7555,1397,126526,1225,-1854,124710,57,19515,233,1,26140,0.0010010000000000296
1104000,7311,6629,129790,-7400,4777,127312,55,19517,225,1,26141,0.0009989999999999721
1105000,6608,1227,127670,-657,-2309,129602,41,19517,168,1,26142,0.001000000000000112
1106000,5931,3610,127892,3106,1759,125894,57,19516,168,1,26143,0.0009999999999998899
1107000,-160,-3448,126207,-6546,-6950,129602,84,19513,233,0,26144,0.001000000000000112
1108000,6506,6210,128494,-8689,4427,121778,84,19509,344,0,26145,0.0009999999999998899
1109000,11945,2481,128400,1748,-16,130100,59,19514,242,0,26146,0.001000000000000112
1110000,7706,7011,128804,2586,4563,124591,48,19514,197,0,26147,0.0009999999999998899
1111001,3540,-2688,126047,-4593,-5798,128139,61,19514,250,0,26148,0.0010010000000000296
1112000,3769,2019,127767,-5078,-1134,127472,93,19507,250,1,26149,0.0009989999999999721
1113002,5168,-842,126109,1111,-4455,128094,55,19511,381,1,26150,0.0010020000000001694
1114000,10936,9850,129464,-2267,6582,124388,55,19515,225,1,26151,0.0009979999999998324
1115000,13136,624,126352,-1953,-1156,127145,42,19517,172,1,26152,0.001000000000000112
1116000,3871,3727,128588,6048,1306,124244,51,19511,209,0,26153,0.0009999999999998899
1117000,5484,-8139,126633,-3312,-11178,132915,55,19511,225,0,26154,0.001000000000000112
1118001,7647,5958,129348,-4546,3754,125592,64,19515,225,0,26155,0.0010010000000000296
1119000,5770,5716,129134,-733,2832,127115,47,19516,262,0,26156,0.0009989999999999721
1120002,10744,4523,128252,606,2078,126944,47,19514,192,0,26157,0.0010019999999999474
1121000,9152,-5174,125370,1584,-5808,127486,50,19514,205,0,26158,0.0009980000000000544
1122000,4151,4177,129048,1608,97,124491,82,19501,336,1,26159,0.0009999999999998899
1123000,7656,-2688,127389,-7591,-6330,131012,63,19516,258,1,26160,0.001000000000000112
1124000,10320,6604,129762,1709,5212,126148,51,19516,258,1,26161,0.0009999999999998899
1125000,7228,4852,128939,1837,1733,127251,44,19518,209,1,26162,0.001000000000000112
1126000,7205,-2937,126569,-1641,-6779,124669,44,19512,180,0,26163,0.0009999999999998899
1127000,4491,-2909,126717,-1184,-3931,131536,70,19512,287,0,26164,0.001000000000000112
1128000,9509,5812,129601,651,-395,125053,62,19513,254,0,26165,0.0009999999999998899
1129000,9427,3601,127810,-2746,831,126509,50,19515,205,0,26166,0.001000000000000112
1130000,7239,7660,128756,-351,7143,126352,44,19515,205,0,26167,0.0009999999999998899
1131001,6418,-396,127471,-59,-4926,127861,56,19514,180,1,26168,0.0010010000000000296
1132000,8270,-5773,127410,2638,-6576,129453,56,19514,229,1,26169,0.0009989999999999721
1133000,7508,-1888,128135,-2166,-4521,130152,66,19510,270,1,26170,0.001000000000000112
1134002,10272,9419,129581,-1922,9339,122800,55,19518,225,1,26171,0.0010019999999999474
1135000,6440,6777,128041,-2786,2518,127477,42,19516,172,1,26172,0.0009980000000000544
1136001,4384,1734,126989,-5243,-2067,126096,57,19516,172,0,26173,0.0010010000000000296
1137001,4489,-1141,127135,584,-3896,128839,60,19510,233,0,26174,0.0009999999999998899
1138000,7069,-421,127849,-1909,-2100,127558,60,19512,246,0,26175,0.0009989999999999721
1139000,6794,4575,128585,-4244,2207,125308,54,19520,221,0,26176,0.001000000000000112
1140000,8530,4973,128155,-1199,1442,127889,45,19515,184,0,26177,0.0009999999999998899
1141000,3154,1765,126581,-2424,-1082,125933,63,19509,258,1,26178,0.001000000000000112
1142000,3264,3128,127822,-4426,-908,126795,51,19509,258,1,26179,0.0009999999999998899
1143000,7081,2126,127509,-1243,-178,127384,51,19515,209,1,26180,0.001000000000000112
1144000,5694,5120,128698,-2440,2200,125443,51,19518,209,1,26181,0.0009999999999998899
1145000,6761,1037,126881,-3588,-2207,127989,42,19519,172,1,26182,0.001000000000000112
1146000,2329,3773,127266,-856,2189,122773,53,19511,217,0,26183,0.0009999999999998899
1147000,9285,5944,127115,-1000,2733,129190,58,19510,238,0,26184,0.001000000000000112
1148000,3234,2798,126568,312,1618,125975,58,19510,238,0,26185,0.0009999999999998899
1149000,11766,10860,130625,-15721,6886,121194,45,19515,238,0,26186,0.001000000000000112
1150002,3113,-6822,127673,8085,-9103,134271,53,19519,184,0,26187,0.0010019999999999474
1151001,2900,-3368,127229,2195,-6823,128571,53,19513,217,1,26188,0.0009989999999999721
1152000,-1816,-4280,126012,-18345,-6453,131214,86,19516,352,1,26189,0.0009989999999999721
1153000,6256,24390,129413,-3098,22656,112656,54,19513,221,1,26190,0.001000000000000112
1154000,6975,8031,126654,-451,4946,130789,45,19513,184,1,26191,0.0009999999999998899
1155000,6907,1713,127217,-2545,-1048,122963,49,19519,184,1,26192,0.001000000000000112
1156000,2702,-9861,126520,-2152,-13049,133262,79,19515,201,0,26193,0.0009999999999998899
1157002,5987,962,127505,-6849,-3161,127066,79,19511,324,0,26194,0.0010019999999999474
1158002,2642,11187,131140,2115,8660,123056,61,19515,250,0,26195,0.001000000000000112
1159000,6612,2392,126656,-7813,-760,131074,50,19514,205,0,26196,0.0009980000000000544
1160000,3597,6342,126774,-8520,4032,122390,51,19514,209,0,26197,0.0009999999999998899
1161000,5833,2704,128200,2348,110,126901,77,19513,209,1,26198,0.001000000000000112
1162022,5923,-487,126959,1972,-2342,127149,60,19513,315,1,26199,0.0010219999999998564
1163001,6011,2207,128605,-8286,-1059,126553,60,19515,246,1,26200,0.0009790000000000632
1164002,8876,6060,129237,-5297,4569,127814,52,19519,213,1,26201,0.0010010000000000296
1165000,5640,2674,126471,8090,-498,127172,45,19520,184,1,26202,0.0009980000000000544
1166000,275,2044,127016,-6617,999,125468,65,19507,266,0,26203,0.0009999999999998899
1167001,6253,-670,126984,-11446,-5224,126948,69,19507,266,0,26204,0.0010010000000000296
1168000,8031,5852,129223,1338,4205,125495,57,19509,283,0,26205,0.0009989999999999721
1169002,6770,2740,128885,1975,-1260,130611,57,19517,233,0,26206,0.0010019999999999474
1170000,7178,2131,126826,-6286,905,123684,50,19513,205,0,26207,0.0009980000000000544
1171000,2542,-1154,126956,-156,-5599,130688,70,19507,287,1,26208,0.001000000000000112
1172000,3241,3156,126503,-2823,-347,125120,71,19516,291,1,26209,0.0009999999999998899
1173000,12128,5725,128409,-5026,2115,125478,53,19516,291,1,26210,0.001000000000000112
1174000,9061,5925,128756,-218,5783,127717,43,19519,217,1,26211,0.0009999999999998899
1175000,7722,-1466,127337,2791,-5298,126129,43,19517,176,0,26212,0.001000000000000112
1176001,4942,-5139,126967,-226,-5127,132080,54,19514,221,0,26213,0.0010009999999998076
1177000,5335,3406,128785,-1175,2160,125348,61,19514,250,0,26214,0.0009990000000001942
1178000,5830,6217,128586,-5652,5285,125777,62,19517,254,0,26215,0.0009999999999998899
1179000,13263,5049,128032,-1292,1903,127286,46,19517,254,0,26216,0.001000000000000112
1180000,7692,2113,127190,4834,-3660,126388,54,19517,188,0,26217,0.0009999999999998899
1181000,6716,-4638,126874,-369,-4729,127476,54,19510,221,1,26218,0.001000000000000112
1182000,5205,-3134,127469,-5400,-5942,130363,94,19505,385,1,26219,0.0009999999999998899
1183000,9632,6508,129991,-978,4031,126759,58,19515,238,1,26220,0.001000000000000112
1184000,9799,6421,128855,1884,5449,125081,44,19516,180,1,26221,0.0009999999999998899
1185000,8254,-877,126362,-626,-6344,129040,50,19516,180,1,26222,0.001000000000000112
1186000,3773,-357,127495,-1797,-3929,126081,66,19514,205,0,26223,0.0009999999999998899
1187000,8336,-1599,128387,-585,-2061,129177,66,19510,270,0,26224,0.001000000000000112
1188000,8993,1585,127678,-1067,-871,129297,58,19513,238,0,26225,0.0009999999999998899
1189000,8132,11862,129784,61,8536,122374,44,19516,180,0,26226,0.001000000000000112
1190000,9255,559,127345,-741,-1977,127604,47,19513,192,1,26227,0.0009999999999998899
1191000,6229,-4107,126890,2469,-6913,129137,47,19513,192,1,26228,0.0009999999999998899
1192000,8312,-3462,128067,-969,-6272,130467,64,19516,192,1,26229,0.001000000000000112
1193000,8168,4813,129881,-2210,4530,124756,64,19513,262,1,26230,0.0009999999999998899
1194000,6348,5575,128312,-80,1584,128868,49,19516,201,1,26231,0.001000000000000112
1195000,4542,6014,128108,-2159,3731,124155,42,19515,172,1,26232,0.0009999999999998899
1196001,5943,-898,126931,-5906,-3883,128168,65,19512,266,0,26233,0.0010010000000000296
1197000,7439,804,127855,1153,-1474,127850,62,19512,254,0,26234,0.0009989999999999721
1198002,6472,3516,128467,-292,818,126489,52,19513,254,0,26235,0.0010020000000001694
1199002,8751,1384,128084,-4680,-1370,128488,49,19517,213,0,26236,0.0009999999999998899
1200000,4260,3414,127397,557,428,125167,49,19517,201,0,26237,0.0009980000000000544
1201001,5621,2097,126726,-4014,-710,128138,71,19516,291,1,26238,0.0010010000000000296
1202001,7178,4203,128192,-5263,2054,124733,52,19516,213,1,26239,0.0009999999999998899
1203001,4766,4391,129456,-2352,1518,127152,50,19516,205,1,26240,0.001000000000000112
1204003,4501,1755,127153,-1883,-1058,127760,43,19518,205,1,26241,0.0010019999999999474
1205000,2309,1858,127606,-3757,-1187,125803,60,19517,176,0,26242,0.0009969999999999146
1206000,6700,100,126405,-8096,-2476,129137,60,19516,246,0,26243,0.001000000000000112
1207000,5321,11506,127923,9108,8299,121170,60,19512,246,0,26244,0.0009999999999998899
1208000,6152,7308,127767,-5097,5539,127519,54,19518,221,0,26245,0.001000000000000112
1209000,14920,364,128173,-20853,-2068,123626,43,19518,176,0,26246,0.0009999999999998899
1210000,-712,270,130067,20516,-1126,129202,61,19517,176,0,26247,0.001000000000000112
1211011,3276,-13337,123985,-3868,-16600,137998,74,19509,250,1,26248,0.0010109999999998731
1212000,-2348,9770,129082,-24347,4416,119254,74,19511,303,1,26249,0.0009890000000001287
1213000,9635,15313,128579,3805,14390,124831,54,19516,221,1,26250,0.0009999999999998899
1214000,5628,11883,124426,4207,8318,122313,43,19521,176,1,26251,0.001000000000000112
1215000,7695,-577,128371,-12659,510,123797,53,19513,217,1,26252,0.0009999999999998899
1216003,3873,-10687,125548,2743,-14564,134880,72,19513,217,0,26253,0.0010030000000000872
1217034,4787,4375,129012,738,-1386,124143,61,19515,295,0,26254,0.0010310000000000041
1218001,2557,6337,130963,-9060,5080,130694,61,19515,250,0,26255,0.0009669999999999401
1219000,7054,5113,126051,-4109,2021,124380,47,19514,192,0,26256,0.0009989999999999721
1220000,2390,2445,126800,-1577,-487,127466,56,19509,229,1,26257,0.001000000000000112
1221000,6091,5819,128012,-6761,3349,124007,65,19514,266,1,26258,0.0009999999999998899
1222002,7256,97,126765,2324,-1747,127797,58,19514,266,1,26259,0.0010020000000001694
1223002,6903,6386,130092,-4747,5788,126077,46,19515,238,1,26260,0.0009999999999998899
1224002,5351,775,127185,-5121,-4213,130740,46,19517,188,1,26261,0.001000000000000112
1225001,5617,4559,128078,3552,3392,124984,48,19515,197,1,26262,0.0009989999999999721
1226000,1178,-3403,126078,-2397,-7186,128217,74,19508,303,0,26263,0.0009989999999999721
1227000,6924,7483,128781,-12060,6672,122500,66,19509,270,0,26264,0.0009999999999998899
1228000,11376,2216,128821,-936,-1286,131202,55,19509,270,0,26265,0.001000000000000112
1229000,7633,5479,128496,-3003,2410,124059,53,19515,225,0,26266,0.0009999999999998899
1230000,1467,-4209,125949,-2907,-7939,130592,53,19512,217,0,26267,0.001000000000000112
1231000,4197,2862,128199,-5173,317,126058,80,19504,328,1,26268,0.0009999999999998899
1232000,7331,388,126570,-1096,-2064,128269,55,19515,225,1,26269,0.001000000000000112
1233000,9443,11359,129878,-1527,9963,122352,47,19516,192,1,26270,0.0009999999999998899
1234000,12732,-1228,126023,117,-5410,129102,43,19516,192,1,26271,0.001000000000000112
1235000,3646,2710,128481,2135,-878,125734,63,19515,176,0,26272,0.0009999999999998899
1236000,5005,-6460,127310,-743,-7416,131435,63,19514,258,0,26273,0.001000000000000112
1237027,7857,4947,129105,-6765,2519,126753,67,19511,274,0,26274,0.0010269999999998891
1238000,7384,6218,128974,-888,3195,127095,57,19515,233,0,26275,0.0009730000000001127
1239000,9924,5382,128207,4924,3304,124318,45,19514,184,0,26276,0.0009999999999998899
1240001,9907,-6456,124944,-729,-9924,130074,63,19514,258,0,26277,0.0010010000000000296
1241000,3587,4174,129208,-1145,1787,123639,109,19504,258,1,26278,0.0009989999999999721
1242000,8397,-1410,127969,-3643,-3169,130414,57,19512,446,1,26279,0.001000000000000112
1243001,10376,5103,129142,1717,2428,128497,57,19518,233,1,26280,0.0010010000000000296
1244001,6725,5301,128670,644,2083,125719,42,19518,172,1,26281,0.0009999999999998899
1245001,6565,-1658,126835,-1793,-4007,126258,53,19511,217,0,26282,0.001000000000000112
1246001,5774,-3980,126260,-1325,-8201,130007,58,19511,238,0,26283,0.0009999999999998899
1247000,8904,5828,129288,2478,3307,125796,56,19512,238,0,26284,0.0009989999999999721
1248000,9520,5588,128295,-4014,2831,126743,42,19516,229,0,26285,0.001000000000000112
1249000,6695,4816,128459,-252,2473,126160,42,19518,172,0,26286,0.0009999999999998899
1250000,5272,-994,127259,1276,-3566,126958,51,19512,209,1,26287,0.001000000000000112
1251000,8855,-4084,127856,859,-7181,130497,51,19516,209,1,26288,0.0009999999999998899
1252000,8925,-953,127817,-4141,-3741,128889,62,19516,254,1,26289,0.001000000000000112
1253000,8824,10209,129607,1926,7527,123908,43,19514,254,1,26290,0.0009999999999998899
1254000,7229,5145,127528,-438,2840,127122,45,19520,176,1,26291,0.001000000000000112
1255001,4509,151,127420,-6202,-1945,126715,45,19516,184,0,26292,0.0010010000000000296
1256000,3332,-162,127388,-1076,-3268,127982,72,19514,295,0,26293,0.0009989999999999721
1257001,4283,497,128081,248,-2523,128144,61,19515,250,0,26294,0.0010010000000000296
1258000,8611,4803,128768,-6081,1616,125551,50,19520,205,0,26295,0.0009989999999999721
1259000,8071,4272,127926,-1767,2207,127790,52,19520,205,0,26296,0.0009999999999998899
1260000,4384,2066,126560,271,-1347,126314,75,19511,213,1,26297,0.001000000000000112
1261000,3040,3211,127946,-6103,-116,126375,75,19516,307,1,26298,0.0009999999999998899
1262002,6212,1764,127540,-2128,-1859,128289,53,19513,217,1,26299,0.0010019999999999474
1263000,4878,5317,128487,-587,2649,125227,45,19519,184,1,26300,0.0009980000000000544
1264000,7152,245,126219,-5191,-2066,128190,44,19518,180,1,26301,0.001000000000000112
1265003,3614,6441,127952,-795,2802,122002,67,19518,180,0,26302,0.0010029999999998651
1266000,9136,3260,126708,-1998,3347,131684,61,19516,274,0,26303,0.0009970000000001367
1267003,3104,5864,127668,5071,-505,120364,61,19515,250,0,26304,0.0010029999999998651
1268000,8337,5834,129996,-18571,7734,128869,51,19520,209,0,26305,0.0009970000000001367
1269000,8100,-3345,128390,4726,-7439,129133,44,19516,180,0,26306,0.0009999999999998899
1270000,2821,-5417,126591,8158,-4563,132864,66,19506,270,1,26307,0.001000000000000112
1271000,423,-792,126471,-18222,4454,123442,54,19506,270,1,26308,0.0009999999999998899
1272000,4936,24376,129752,-8451,20997,117023,52,19515,221,1,26309,0.001000000000000112
1273000,7562,5046,126036,3249,665,129888,52,19516,213,1,26310,0.0009999999999998899
1274000,8045,1693,127587,-3679,-4378,124673,45,19516,184,1,26311,0.001000000000000112
1275000,3442,-11347,126367,-4666,-14028,134533,60,19511,246,0,26312,0.0009999999999998899
1276000,6157,4461,127598,-1336,5287,121292,63,19511,258,0,26313,0.001000000000000112
1277000,2613,9360,130793,-1817,3176,129797,58,19511,258,0,26314,0.0009999999999998899
1278000,6220,4353,126747,-8688,3557,124530,47,19516,238,0,26315,0.001000000000000112
1279000,3791,4242,126335,-4864,170,126109,47,19514,192,0,26316,0.0009999999999998899
1280002,7094,3184,128164,3438,737,126750,60,19514,246,1,26317,0.0010019999999999474
1281000,3174,-1612,126480,-917,-4839,125758,53,19516,217,1,26318,0.0009980000000000544
1282000,7520,4338,129023,-9710,3487,127655,56,19517,229,1,26319,0.001000000000000112
1283000,6913,4391,128292,90,407,128772,45,19517,229,1,26320,0.0009999999999998899
1284001,6903,5336,127121,4785,4184,124034,52,19521,184,1,26321,0.0010010000000000296
1285000,2285,-597,126678,-9322,-5187,129355,52,19511,213,0,26322,0.0009989999999999721
1286000,5583,2125,127557,-8143,1298,123031,83,19510,340,0,26323,0.001000000000000112
1287000,5528,3091,129154,2216,-31,130453,64,19513,262,0,26324,0.0009999999999998899
1288002,10582,4407,129064,1255,2439,126315,51,19510,209,0,26325,0.0010019999999999474
1289000,7196,190,126389,-6279,-3538,126518,56,19510,229,0,26326,0.0009980000000000544
1290000,1927,1126,127518,-1570,-1400,128226,88,19510,229,1,26327,0.001000000000000112
1291000,4364,2175,126238,-1453,-1733,125584,58,19508,360,1,26328,0.0009999999999998899
1292000,8862,7019,128978,-3976,4598,125578,58,19513,238,1,26329,0.001000000000000112
1293000,7784,3509,128069,-691,714,126490,47,19519,192,1,26330,0.0009999999999998899
1294000,12087,193,128061,5011,-2298,126599,46,19515,188,0,26331,0.001000000000000112
1295000,4081,-5964,126790,-2764,-8772,132049,59,19515,242,0,26332,0.0009999999999998899
1296001,4402,4787,128870,-3802,1954,124775,68,19514,242,0,26333,0.0010010000000000296
1297000,8230,6515,128703,-3414,3474,126659,52,19512,279,0,26334,0.0009989999999999721
1298000,9294,4380,127943,-4,2494,127346,52,19514,213,0,26335,0.001000000000000112
1299001,9237,221,126824,4015,-1517,125067,45,19516,184,0,26336,0.0010009999999998076
1300000,9248,-3346,127372,490,-6911,129030,67,19506,274,1,26337,0.0009990000000001942
1301000,3900,-2970,127481,-5655,-5501,129011,88,19513,360,1,26338,0.0009999999999998899
1302000,7290,7122,129984,-1093,4700,126420,53,19513,360,1,26339,0.001000000000000112
1303000,11403,6483,128782,413,2837,127507,45,19514,217,1,26340,0.0009999999999998899
1304001,7290,-2604,125702,-613,-3791,127676,45,19519,184,1,26341,0.0010010000000000296
1305000,6280,301,127459,-457,-2314,124663,59,19513,242,0,26342,0.0009989999999999721
1306000,5641,-878,128708,-246,-5083,130182,62,19514,254,0,26343,0.001000000000000112
1307000,8873,1887,127728,-755,-954,128943,54,19516,221,0,26344,0.0009999999999998899
1308000,9018,10333,129409,-1200,8349,123040,42,19516,221,0,26345,0.001000000000000112
1309003,8350,1332,127447,-232,-1499,127360,58,19521,172,1,26346,0.0010029999999998651
1310000,4775,-5532,126808,886,-5861,128409,58,19521,238,1,26347,0.0009969999999999146
1311000,9625,-2414,128332,-323,-5285,128789,58,19510,238,1,26348,0.001000000000000112
1312000,7861,5601,129814,-3810,-800,128710,58,19513,238,1,26349,0.0009999999999998899
1313000,6428,6030,128257,1114,6478,128729,42,19520,172,1,26350,0.001000000000000112
1314000,7397,5560,128197,-1688,2376,125347,49,19520,172,1,26351,0.0009999999999998899
1315001,5078,-2189,126835,-6406,-3758,128271,70,19511,201,0,26352,0.0010010000000000296
1316000,3648,891,127873,1116,-2280,127222,70,19514,287,0,26353,0.0009989999999999721
1317000,8529,2907,128174,335,566,127195,59,19517,242,0,26354,0.001000000000000112
1318000,8229,3938,128388,-4414,1952,125935,49,19519,201,0,26355,0.0009999999999998899
1319001,5753,2941,127383,-1432,-737,126984,55,19512,225,0,26356,0.0010010000000000296
1320000,4186,1900,126983,-3174,-1061,126981,63,19512,225,1,26357,0.0009989999999999721
1321000,4888,3829,128428,-3311,1522,126317,53,19514,258,1,26358,0.001000000000000112
1322000,4997,2518,128753,-3699,-634,127336,53,19516,217,1,26359,0.0009999999999998899
1323000,7821,3607,127367,-1553,718,125967,45,19521,184,1,26360,0.001000000000000112
1324000,4221,2195,127517,-3648,-371,127008,47,19519,192,0,26361,0.0009999999999998899
1325000,2245,620,125894,-5809,-966,127186,65,19514,266,0,26362,0.001000000000000112
1326000,10317,11524,128096,12828,9173,122800,59,19514,266,0,26363,0.0009999999999998899
1327000,1362,2456,126852,-17592,-1295,128485,47,19516,242,0,26364,0.001000000000000112
1328002,15636,1859,129097,-6515,468,123488,47,19517,192,0,26365,0.0010019999999999474
1329000,2810,-175,129360,20466,-4873,134071,49,19513,201,0,26366,0.0009980000000000544
1330000,4119,-11070,123746,-17033,-12786,129980,77,19510,315,1,26367,0.0009999999999998899
1331002,-6192,11822,129970,-18588,10136,120665,54,19516,221,1,26368,0.0010020000000001694
1332000,8117,12848,127264,12584,10061,127508,50,19516,205,1,26369,0.0009979999999998324
1333000,5222,12283,125526,-8164,10117,117034,45,19517,205,1,26370,0.001000000000000112
1334000,8334,-4203,128268,-6624,-8780,133624,65,19516,184,1,26371,0.0009999999999998899
1335000,4124,-9607,125047,4786,-12152,129532,65,19511,266,0,26372,0.001000000000000112
1336002,6949,6795,130216,-4831,5232,123272,59,19517,242,0,26373,0.0010019999999999474
1337000,1001,5521,130169,-11116,2110,131688,56,19516,229,0,26374,0.0009980000000000544
1338000,9890,5772,125818,2995,3241,121573,48,19516,197,0,26375,0.0009999999999998899
1339000,450,1519,127268,-7421,-1356,129416,68,19517,197,1,26376,0.001000000000000112
1340000,7463,5105,127645,-3273,2864,123587,54,19509,279,1,26377,0.0009999999999998899
1341000,6738,-995,126546,3376,-3595,127012,54,19513,221,1,26378,0.001000000000000112
1342001,6896,8786,130642,-8616,6042,126317,56,19517,229,1,26379,0.0010010000000000296
1343000,7630,-1069,126453,-403,-3166,130019,45,19518,184,1,26380,0.0009989999999999721
1344000,7524,6143,128456,3371,3520,124717,54,19518,221,1,26381,0.0009999999999998899
1345000,-252,-5026,125749,-7485,-7844,129669,89,19512,221,0,26382,0.001000000000000112
1346000,6236,9250,129460,-8308,6110,121500,64,19511,365,0,26383,0.0009999999999998899
1347000,8585,-200,128134,3102,-1785,131348,64,19513,262,0,26384,0.001000000000000112
1348000,6492,6131,128622,620,3262,124939,51,19515,209,0,26385,0.0009999999999998899
1349000,8022,-4182,125805,-4611,-7035,129060,60,19510,246,0,26386,0.001000000000000112
1350000,937,4288,128141,-5287,1329,125892,96,19509,393,1,26387,0.0009999999999998899
1351000,4353,-656,126744,1261,-3209,128260,59,19509,393,1,26388,0.001000000000000112
1352001,12318,11475,130096,-2087,7586,123549,43,19516,242,1,26389,0.0010010000000000296
1353000,10294,-2908,125740,-2158,-3697,128331,43,19518,176,1,26390,0.0009989999999999721
1354001,5302,2807,128439,5522,1304,124418,49,19512,201,0,26391,0.0010010000000000296
1355000,6195,-5788,127505,-2362,-10171,133160,57,19511,233,0,26392,0.0009989999999999721
1356000,4749,5495,128734,-5954,3252,125961,64,19512,262,0,26393,0.0009999999999998899
1357001,6213,6110,129110,-452,3873,126260,50,19512,262,0,26394,0.0010010000000000296
1358000,13003,5353,128000,2413,2755,126316,50,19516,205,0,26395,0.0009989999999999721
1359000,7864,-6640,124708,473,-6657,127820,50,19514,205,0,26396,0.001000000000000112
1360002,6338,3583,128989,1213,-210,126374,81,19500,332,1,26397,0.0010019999999999474
1361000,5888,-694,128302,-6567,-6307,128182,64,19512,262,1,26398,0.0009980000000000544
1362000,9260,4674,128997,1740,3618,128211,49,19515,201,1,26399,0.0009999999999998899
1363000,7860,4677,128466,1765,4017,127508,43,19515,201,1,26400,0.001000000000000112
1364000,8155,-795,127030,-1976,-5898,124294,65,19512,176,0,26401,0.0009999999999998899
1365000,4209,-4422,126227,-1805,-8137,131868,65,19511,266,0,26402,0.001000000000000112
1366000,10288,6851,129314,1966,3796,125355,61,19508,250,0,26403,0.0009999999999998899
1367002,7905,6090,128647,-3559,5368,125475,52,19516,213,0,26404,0.0010019999999999474
1368000,8456,3374,128057,-615,-1042,127518,46,19518,188,0,26405,0.0009980000000000544
1369000,7307,-628,127426,2541,-5169,127990,59,19518,188,1,26406,0.001000000000000112
1370000,5599,-3739,127690,-1921,-4935,128809,62,19517,242,1,26407,0.0009999999999998899
1371000,8170,46,128228,-3906,-1649,128659,62,19514,254,1,26408,0.001000000000000112
1372000,11223,9689,129476,4103,7454,123855,55,19516,225,1,26409,0.0009999999999998899
1373000,5209,4932,127584,-3789,1670,127307,41,19518,168,1,26410,0.001000000000000112
1374000,5763,-315,127062,-4871,-3506,126936,56,19509,229,0,26411,0.0009999999999998899
1375000,5087,-300,127294,1746,-3014,128258,64,19509,229,0,26412,0.001000000000000112
1376000,4975,1330,128043,-3293,-776,127327,57,19514,262,0,26413,0.0009999999999998899
1377002,8564,5362,128837,-2607,2788,125139,45,19515,233,0,26414,0.0010019999999999474
1378000,8113,3698,127746,-1586,498,127577,45,19513,184,0,26415,0.0009980000000000544
1379003,4039,1723,126974,-3369,-1245,126484,60,19508,246,1,26416,0.0010030000000000872
1380000,3145,1662,127702,-2677,-1891,127545,48,19513,197,1,26417,0.0009969999999999146
1381001,6667,2611,127678,-2087,-270,127026,55,19513,225,1,26418,0.0010010000000000296
1382000,4611,4785,127875,-2992,1683,125831,44,19516,225,1,26419,0.0009989999999999721
1383003,7144,3406,126794,-1086,1071,124436,50,19518,180,1,26420,0.0010030000000000872
1384001,4467,5261,127196,-5861,2418,125858,50,19512,205,0,26421,0.0009980000000000544
1385000,7601,2031,126822,3728,-337,129025,58,19511,238,0,26422,0.0009989999999999721
1386001,3971,7832,129109,-3425,5435,123304,60,19513,246,0,26423,0.0010010000000000296
1387000,8330,-320,128471,-15819,-2930,128271,46,19513,188,0,26424,0.0009989999999999721
1388000,7430,283,128756,11253,-2225,127705,53,19517,188,0,26425,0.0009999999999998899
1389000,3613,-8223,125262,-1474,-10991,134059,86,19512,217,1,26426,0.001000000000000112
1390001,683,8503,127153,-18956,4001,121103,86,19513,352,1,26427,0.0010010000000000296
1391000,4534,18191,129257,-674,16428,119914,55,19516,225,1,26428,0.0009989999999999721
1392000,8396,4145,126272,3227,1739,129363,45,19517,184,1,26429,0.0009999999999998899
1393000,5448,-1855,127360,-4442,-3845,125238,47,19517,192,1,26430,0.001000000000000112
1394000,3846,-6944,127115,-5838,-10402,132892,73,19517,192,0,26431,0.0009999999999998899
1395000,5627,7235,128042,254,1728,123376,62,19514,299,0,26432,0.001000000000000112
1396000,2849,6995,129559,-1810,5602,127339,62,19512,254,0,26433,0.0009999999999998899
1397001,6175,5353,126985,-10668,1171,126411,50,19515,205,0,26434,0.0010010000000000296
1398000,5448,3773,127251,-2578,1932,124814,48,19516,197,0,26435,0.0009989999999999721
1399000,6145,903,127437,2681,-1511,128384,72,19515,295,1,26436,0.001000000000000112
1400000,3919,696,127394,-1733,-2219,125148,58,19515,295,1,26437,0.0009999999999998899
1401000,6654,5090,129022,-7629,1615,128344,51,19512,238,1,26438,0.001000000000000112
1402000,7857,5318,127682,-1290,3388,126527,51,19516,209,1,26439,0.0009999999999998899
1403000,5805,4613,127312,3936,1841,126018,42,19518,172,1,26440,0.001000000000000112
1404000,3153,-2161,126303,-6865,-3412,128080,62,19513,254,0,26441,0.0009999999999998899
1405000,5290,2669,128013,-8251,-2039,124580,82,19511,336,0,26442,0.001000000000000112
1406001,5543,3004,129275,351,894,129040,59,19511,336,0,26443,0.0010009999999998076
1407000,8957,5442,128423,302,2017,124551,50,19515,242,0,26444,0.0009990000000001942
