t_us,ax,ay,az,ax1,ay1,az1,shunt_raw,bus_raw,curr_raw,pg_rpm,seq,dt
0,978,10491,125699,197,8429,119974,255,19355,1044,1,48178,
997,12356,3136,124955,-1745,551,126510,157,19357,643,1,48179,0.000997
1997,4234,4676,125559,-1410,1535,124161,168,19346,688,0,48180,0.001
2997,12313,-1999,121901,5188,-7082,128914,150,19361,614,0,48181,0.0009999999999999996
3997,8198,9237,125856,1771,4941,118783,148,19361,614,0,48182,0.001
4997,14525,5068,125149,271,3800,125924,175,19366,606,1,48183,0.001
5997,10188,5110,125670,7934,3493,122039,175,19372,717,1,48184,0.001
6997,6167,-3428,124946,-2092,-4634,129339,150,19358,614,1,48185,0.001
7997,9092,683,126690,-671,-2048,126812,150,19358,614,1,48186,0.0009999999999999992
8997,8343,2453,126193,7934,1106,127001,192,19353,786,0,48187,0.0010000000000000009
9997,11848,5550,128039,1926,4295,124242,149,19353,786,0,48188,0.0009999999999999992
10997,14668,5414,126385,-155,1249,124203,146,19366,610,0,48189,0.0010000000000000009
11997,12292,1321,127565,4211,-3085,126945,146,19356,598,1,48190,0.0009999999999999992
12997,8927,-2096,127235,2892,-7979,129606,158,19364,647,1,48191,0.0010000000000000009
13997,2599,-8627,127853,-2992,-10065,133872,153,19361,627,1,48192,0.0009999999999999992
15000,7657,5350,130984,620,5073,125615,159,19349,651,0,48193,0.0010030000000000004
15997,5719,7421,129723,-4765,5435,125477,139,19349,651,0,48194,0.0009970000000000014
16997,12125,8460,130018,6184,5871,124494,141,19363,569,0,48195,0.0009999999999999974
17997,4630,-2464,128357,7821,-7095,132086,141,19362,577,0,48196,0.0010000000000000009
18997,16857,-6746,129335,-24072,-9034,129518,173,19344,709,1,48197,0.0010000000000000009
19997,4615,3116,136005,16171,2446,129317,130,19364,532,1,48198,0.0009999999999999974
20997,3166,-2132,131417,-192,-8495,137055,150,19359,614,1,48199,0.0010000000000000009
21997,-2682,-5709,129942,-26986,-7000,129311,196,19359,614,0,48200,0.0010000000000000009
22997,2360,13023,132795,-2256,8716,124342,153,19355,803,0,48201,0.0010000000000000009
23997,5498,6527,127245,7629,2667,129055,153,19365,627,0,48202,0.0009999999999999974
24998,7458,8817,131653,-17048,6033,120155,147,19360,602,1,48203,0.0010010000000000019
25997,3448,-8949,130581,68,-13938,141050,180,19365,737,1,48204,0.0009989999999999999
26997,4965,-7653,127088,5885,-5771,128072,159,19362,651,1,48205,0.0010000000000000009
27997,-1826,10311,134989,-14450,6220,127804,165,19362,651,1,48206,0.0009999999999999974
28997,2182,-2451,128206,-11512,-3950,131418,219,19350,676,0,48207,0.0010000000000000009
29997,-488,11363,129346,-5870,8634,121620,219,19356,897,0,48208,0.0010000000000000009
30997,6474,4266,128549,-9620,1694,130953,152,19363,623,0,48209,0.0010000000000000009
31997,5201,4501,125433,-644,489,120872,174,19338,713,1,48210,0.0009999999999999974
32997,-2052,-558,126031,-711,-5193,129519,165,19358,676,1,48211,0.0010000000000000009
33997,6720,2153,127255,-12438,-1294,126943,158,19358,647,1,48212,0.0010000000000000009
34997,3952,6160,128391,-506,4029,126336,190,19360,647,0,48213,0.0010000000000000009
36000,7674,5638,127433,-141,4062,127345,157,19365,778,0,48214,0.001002999999999997
36997,2476,5078,124876,-7323,3171,119905,157,19360,643,0,48215,0.0009969999999999979
38000,9351,4401,125711,-2640,2186,125944,145,19359,594,0,48216,0.0010030000000000039
38997,2279,2664,124155,4677,152,124578,214,19335,876,1,48217,0.0009969999999999979
39997,4663,3170,124896,-10737,1013,123616,151,19359,618,1,48218,0.0010000000000000009
41001,7908,6724,126048,1747,4251,125192,159,19359,618,1,48219,0.001003999999999998
41997,9880,1128,123150,4558,-1132,124763,171,19347,651,0,48220,0.0009960000000000038
42997,11437,3916,125004,2059,55,125084,171,19361,700,0,48221,0.0010000000000000009
43997,11229,5821,124904,-862,3537,121190,152,19366,623,0,48222,0.0010000000000000009
44997,11340,3558,125107,8406,1065,125702,157,19362,643,1,48223,0.000999999999999994
45997,11289,3209,125689,-189,2817,122524,130,19363,532,1,48224,0.0010000000000000009
46997,4680,-2122,125684,1223,-5418,128671,149,19363,532,1,48225,0.0010000000000000009
47997,8790,899,125390,3278,-683,125733,173,19364,610,1,48226,0.0010000000000000009
48997,9623,4648,127653,1426,901,126741,173,19354,709,0,48227,0.0010000000000000009
49997,14927,6067,126627,3623,4717,124566,151,19364,618,0,48228,0.0010000000000000009
50997,11306,3087,126392,3445,-414,121549,143,19365,586,0,48229,0.0010000000000000009
51997,9665,295,128146,1602,72,131327,203,19369,831,1,48230,0.000999999999999994
52997,10214,-8408,126939,2638,-12601,129772,146,19369,831,1,48231,0.0010000000000000009
53998,2903,-10,129610,2323,-3878,131185,150,19362,598,1,48232,0.0010010000000000019
54999,7852,3463,130152,-4482,3949,125761,150,19359,614,0,48233,0.0010010000000000019
55997,6717,7310,129796,-4452,2945,124560,168,19363,688,0,48234,0.0009979999999999989
56997,13397,3216,129965,5781,620,129380,151,19367,618,0,48235,0.0010000000000000009
57997,3984,870,129004,12395,-4006,127941,154,19350,631,1,48236,0.0010000000000000009
58997,17927,-6757,129999,-26217,-7460,130113,171,19350,631,1,48237,0.000999999999999994
59997,679,7143,136444,25337,1531,132738,148,19362,700,1,48238,0.0010000000000000009
60997,1656,-11092,129165,-12768,-17950,137342,148,19359,606,1,48239,0.0010000000000000009
61997,-5638,130,131453,-30583,369,125832,176,19341,721,0,48240,0.0010000000000000009
62997,5418,10543,132421,12516,7818,128785,149,19360,610,0,48241,0.0010000000000000009
63997,2906,10335,127097,-3370,8753,122975,146,19360,598,0,48242,0.0010000000000000009
64997,8486,8058,132677,-22192,2975,124946,196,19360,598,1,48243,0.0010000000000000009
65997,5201,-12952,129555,11619,-17735,140752,150,19366,803,1,48244,0.0010000000000000009
66997,3665,-5937,127397,525,-3028,126711,150,19359,614,1,48245,0.0010000000000000009
67997,-2982,8377,135362,-23603,3466,128774,159,19355,651,1,48246,0.0010000000000000009
68997,4211,400,127878,-8642,40,128548,216,19348,885,0,48247,0.0010000000000000009
69997,-2387,12057,129384,-2592,6579,126112,158,19363,647,0,48248,0.0010000000000000009
70997,7025,4089,127745,-13985,2070,125553,159,19363,647,0,48249,0.000999999999999987
71997,2972,4253,125028,-4313,-531,121613,219,19351,651,1,48250,0.0010000000000000009
72997,1881,-688,126001,7322,-4516,131982,219,19359,897,1,48251,0.0010000000000000009
73997,6600,1677,126520,-12058,-1810,126521,159,19358,651,1,48252,0.0010000000000000009
74997,2716,6985,128289,-8962,6595,125076,171,19358,700,0,48253,0.0010000000000000009
75997,9373,10316,127447,-1668,6054,123338,153,19359,627,0,48254,0.0010000000000000009
76997,1517,965,123629,2882,-335,124430,149,19359,610,0,48255,0.0010000000000000009
77997,7777,1698,124542,-7304,-1919,125629,182,19359,610,0,48256,0.0010000000000000009
78997,3320,5802,124217,-2479,4254,121411,169,19335,745,1,48257,0.0010000000000000009
79997,7317,6511,125222,1478,3689,124479,169,19360,692,1,48258,0.0010000000000000009
80997,11965,4826,126070,-7807,2222,124234,153,19355,627,0,48259,0.0010000000000000009
81997,4899,-158,124132,9950,-3426,127808,202,19362,827,0,48260,0.0010000000000000009
82997,12901,-1059,123943,3505,-1962,125863,153,19362,627,0,48261,0.0010000000000000009
83997,8729,8487,125380,-9300,5701,118811,145,19362,627,0,48262,0.0010000000000000009
84997,14185,6645,125372,10998,4744,125061,108,19355,594,1,48263,0.000999999999999987
85997,7939,1133,122938,5170,-2432,123416,108,19362,442,1,48264,0.0010000000000000009
86997,7994,-956,127440,-9787,-3158,127759,160,19362,655,1,48265,0.0010000000000000009
87997,8338,-3529,124635,7308,-6110,129694,165,19346,676,0,48266,0.0010000000000000009
88997,7749,9003,127888,7281,6413,124137,172,19346,704,0,48267,0.0010000000000000009
89997,16861,6023,127112,-2650,3687,125380,140,19362,704,0,48268,0.0010000000000000009
90997,10822,3779,126336,237,1419,121994,172,19363,573,1,48269,0.0010000000000000009
91997,10547,-5661,126977,6643,-7999,129926,172,19354,704,1,48270,0.0010000000000000009
92997,6686,-4810,129421,2641,-6364,128901,137,19364,561,1,48271,0.0010000000000000009
93999,4901,-5141,128594,-4514,-9404,133816,152,19358,623,1,48272,0.0010020000000000029
94997,6285,11508,130997,-628,8712,123944,191,19365,782,0,48273,0.0009979999999999989
96000,11084,4305,128176,-1875,3173,127265,150,19365,782,0,48274,0.0010030000000000039
96997,12106,7120,129709,8875,6995,124470,141,19366,614,0,48275,0.0009969999999999979
97997,6841,-8085,127627,82,-9194,130272,141,19354,577,1,48276,0.0010000000000000009
98997,14082,-4683,131542,-18811,-8888,129409,228,19368,934,1,48277,0.0010000000000000009
99997,-444,1811,134066,20988,111,138105,150,19362,614,1,48278,0.000999999999999987
100998,2389,-7998,128548,-9556,-11799,129219,163,19349,668,0,48279,0.0010010000000000019
101997,-5253,5352,131707,-26975,5270,125359,178,19349,668,0,48280,0.0009989999999999999
102997,7890,11542,132109,4660,7676,128576,148,19361,729,0,48281,0.0010000000000000009
103997,4717,3879,127388,3235,1665,122318,148,19362,606,0,48282,0.0010000000000000009
104997,6491,4551,132912,-18317,-3693,132483,170,19353,696,1,48283,0.0010000000000000009
105997,6808,-14666,127119,7896,-17636,136272,135,19362,553,1,48284,0.0010000000000000009
106997,653,6966,131608,-9891,9425,122906,158,19359,647,1,48285,0.0010000000000000009
107998,-1248,534,131809,-16076,-7294,136551,190,19359,647,0,48286,0.0010010000000000019
108997,1420,5785,127739,-7423,8917,119074,155,19340,778,0,48287,0.0009989999999999999
109997,798,6848,128726,-7055,1549,132358,155,19362,635,0,48288,0.0010000000000000009
111000,8352,7202,128024,-4105,4591,120828,151,19356,618,0,48289,0.0010030000000000039
111997,-1876,-3311,124013,-659,-8024,129185,222,19353,909,1,48290,0.0009969999999999979
112997,4670,4383,129118,-11389,2800,126700,153,19359,627,1,48291,0.0010000000000000009
114006,5197,525,125907,-4802,-1228,127441,161,19359,659,0,48292,0.001008999999999996
114997,5319,11332,129252,-144,7592,126577,145,19353,659,0,48293,0.0009909999999999919
115997,3699,389,123709,-5394,-2534,123483,145,19358,594,0,48294,0.0010000000000000009
116997,7117,11597,126894,-7021,9521,120260,159,19362,651,0,48295,0.0010000000000000009
117997,6849,-4153,122967,7556,-6586,130266,162,19347,664,1,48296,0.0010000000000000009
118997,1449,8222,125573,-10009,5147,119505,251,19358,1028,1,48297,0.0010000000000000009
119997,8418,771,124769,-4247,-914,127949,153,19358,627,1,48298,0.0010000000000000009
120997,8343,9207,125492,3991,5217,122724,179,19354,627,0,48299,0.0010000000000000009
121997,8587,-767,122756,4079,-4138,126905,157,19351,733,0,48300,0.0010000000000000009
122997,12025,7510,125931,-2261,5372,120264,157,19360,643,0,48301,0.0010000000000000009
123997,11792,1232,123974,5375,-1366,127224,148,19361,606,1,48302,0.0010000000000000009
124997,8887,6370,126257,4743,4741,121250,147,19363,602,1,48303,0.0010000000000000009
125997,7395,-2286,124615,-2530,-5062,128002,153,19363,627,1,48304,0.0010000000000000009
126997,7328,3790,126948,1135,1425,124809,152,19361,627,1,48305,0.0010000000000000009
127997,10332,-1126,125016,5005,-3408,128668,215,19357,623,0,48306,0.0010000000000000009
128997,9357,8182,128264,2096,6592,123963,215,19361,881,0,48307,0.0010000000000000009
129997,16631,2848,125775,1557,346,125556,150,19361,614,0,48308,0.0010000000000000009
130997,9141,4533,128020,5718,1675,122722,154,19354,631,1,48309,0.0010000000000000009
131997,9107,-6643,126563,169,-10807,131865,125,19354,512,1,48310,0.0010000000000000009
132997,4641,-2452,128589,2798,-5679,129375,153,19363,512,1,48311,0.0010000000000000009
133997,7364,1942,130279,-4130,-1256,130931,169,19362,627,0,48312,0.0010000000000000009
134999,4181,7653,130013,-3004,5121,124029,169,19357,692,0,48313,0.0010019999999999751
135999,8586,3101,128565,-2225,618,126443,146,19365,598,0,48314,0.0010000000000000009
136997,13016,1135,128715,9991,-728,128282,142,19364,582,0,48315,0.0009980000000000266
137997,4466,-1470,128377,-711,-2365,128309,191,19356,782,1,48316,0.0009999999999999731
138997,16055,-4933,131257,-21464,-8920,130502,143,19356,782,1,48317,0.0010000000000000009
139997,-2309,5309,133471,23731,4389,130211,153,19357,586,1,48318,0.0010000000000000009
140997,5683,-13657,127662,-9874,-16119,138376,153,19358,627,0,48319,0.0010000000000000009
141997,-6944,5392,131753,-30641,-1995,124956,215,19360,881,0,48320,0.0010000000000000009
142997,7924,8612,130697,8917,6954,129286,153,19365,627,0,48321,0.0010000000000000009
143997,4380,12273,128300,-444,7437,115516,155,19351,635,1,48322,0.0010000000000000009
144997,5355,3996,132949,-23218,4819,137392,153,19351,635,1,48323,0.0010000000000000009
145997,3803,-13900,126660,10536,-16267,135716,157,19366,627,1,48324,0.0010000000000000009
146997,-595,1829,130713,-639,-5859,121873,157,19360,643,1,48325,0.0010000000000000009
147997,-2933,6034,133689,-20837,6079,135816,169,19349,692,0,48326,0.0010000000000000009
148997,2366,3287,127587,-9677,7772,120329,199,19360,815,0,48327,0.0010000000000000009
149999,-497,10142,129545,-848,2562,132259,149,19362,610,0,48328,0.0010020000000000029
151000,6856,3715,126972,-13819,2188,119073,192,19362,610,1,48329,0.0010010000000000019
151997,-710,2835,125445,-6822,-4837,127032,140,19336,786,1,48330,0.0009969999999999979
152997,4806,-2418,128720,944,-1801,131690,140,19359,573,1,48331,0.0010000000000000009
153997,4741,4300,126517,-13926,642,123778,156,19357,639,0,48332,0.0010000000000000009
155001,4560,8785,128723,-5564,10362,125486,170,19362,696,0,48333,0.0010040000000000049
155999,6741,5087,125267,4389,-653,124465,161,19360,659,0,48334,0.0009979999999999989
156997,3426,2906,124248,-2569,1880,123812,149,19360,659,0,48335,0.0009979999999999989
157997,7806,394,124407,-7854,-1573,125179,243,19355,610,1,48336,0.0010000000000000009
158997,27,6775,124626,1147,5114,122449,243,19344,995,1,48337,0.0010000000000000009
159997,13433,6531,125195,-1916,3737,125200,156,19358,639,1,48338,0.0010000000000000009
160997,6994,4413,125727,1135,728,125284,161,19347,659,0,48339,0.0010000000000000009
161998,9395,-920,122358,8369,-6046,128328,141,19357,577,0,48340,0.0010010000000000019
162997,8830,4098,124582,-3343,3268,120695,148,19357,577,0,48341,0.0009989999999999999
163997,14207,9250,126250,1866,6089,123018,164,19366,606,1,48342,0.0010000000000000009
164997,11799,4059,125343,10637,2539,123563,164,19370,672,1,48343,0.0010000000000000009
165997,3307,-1114,125160,-3738,-4090,126270,144,19363,590,1,48344,0.0010000000000000009
166997,11058,-2224,126742,-357,-4898,129862,153,19360,627,1,48345,0.0009999999999999731
167997,7760,2473,126039,8723,1849,124489,187,19355,766,0,48346,0.0010000000000000009
168997,11857,7736,128013,2328,4965,126723,148,19355,606,0,48347,0.0010000000000000009
169997,15175,5569,126906,-2088,2946,121745,141,19369,606,0,48348,0.0010000000000000009
170997,11245,863,127203,5458,-2633,126767,174,19353,577,1,48349,0.0010000000000000009
171997,10166,-3142,127150,7236,-7905,129476,174,19370,713,1,48350,0.0010000000000000009
172997,2867,-6388,127785,-2146,-10068,131644,151,19368,618,1,48351,0.0010000000000000009
173997,9340,3260,130429,-3696,1095,129072,161,19351,659,0,48352,0.0010000000000000009
174997,3550,6668,129325,10,4976,124729,142,19351,582,0,48353,0.0010000000000000009
175997,13796,11624,130302,2723,9787,123168,145,19363,582,0,48354,0.0010000000000000009
176998,4203,-2360,128399,8808,-4775,132295,162,19365,594,0,48355,0.0010010000000000019
177999,18144,-5917,129406,-21799,-8338,127249,162,19344,664,1,48356,0.0010010000000000019
178997,2438,21,135010,16442,-2552,133096,126,19363,516,1,48357,0.0009979999999999989
179997,5610,-5763,130118,4168,-8109,136431,152,19363,623,1,48358,0.0010000000000000009
180997,-5387,-513,130660,-27310,-5395,128488,192,19363,786,0,48359,0.0010000000000000009
181998,5761,14237,131848,-7064,8781,124182,154,19353,786,0,48360,0.0010010000000000019
182997,2824,7183,126932,11420,5168,129633,144,19363,631,0,48361,0.0009989999999999999
183997,10584,5279,131969,-18185,2386,121057,144,19356,590,1,48362,0.0010000000000000009
184997,1392,-9976,130233,-3628,-10005,137111,188,19366,770,1,48363,0.0010000000000000009
185997,5522,-4754,128351,8516,-10915,132398,155,19360,635,1,48364,0.0010000000000000009
186997,-3739,9234,135483,-14006,8447,125543,163,19353,668,1,48365,0.0010000000000000009
187997,1781,-925,127770,-14265,-6364,134247,241,19353,668,0,48366,0.0010000000000000009
188998,-3540,13151,130494,-6989,12003,119164,155,19357,987,0,48367,0.0010010000000000019
189997,9462,4681,128771,-8689,819,132022,155,19361,635,0,48368,0.0009989999999999999
190997,2405,1759,125302,-165,1761,128186,165,19342,676,1,48369,0.0010000000000000009
191997,20,73,126501,-1357,-7705,125473,185,19356,758,1,48370,0.0010000000000000009
192997,6152,2439,126603,-13249,1388,128925,158,19359,647,1,48371,0.0010000000000000009
193997,4056,9149,129421,-1213,2458,124700,180,19359,647,0,48372,0.0010000000000000009
194997,6249,2497,126214,-1863,4126,126363,161,19359,737,0,48373,0.0010000000000000009
195998,3699,7380,125938,-7163,9183,119342,161,19358,659,0,48374,0.0010009999999999741
196997,9129,2489,125336,-3800,-5454,129636,148,19360,606,0,48375,0.0009989999999999999
197997,3341,4018,124567,7568,5134,119995,200,19327,819,1,48376,0.0010000000000000009
198997,5450,713,124552,-12955,-2355,127724,139,19359,569,1,48377,0.0010000000000000009
199997,7477,11004,126650,4121,7859,122299,153,19359,569,1,48378,0.0010000000000000009
200997,9441,-687,122563,4147,-5460,127848,179,19354,627,0,48379,0.0010000000000000009
201997,11488,7337,125784,-2683,6677,120344,179,19358,733,0,48380,0.0010000000000000009
202997,11022,3153,124222,3029,-2006,126032,154,19362,631,0,48381,0.0010000000000000009
203997,11371,4275,125659,7697,4068,122050,152,19361,623,1,48382,0.0010000000000000009
204999,11302,1229,124882,-2996,-3801,125751,127,19363,520,1,48383,0.0010020000000000029
205997,4769,491,126179,-545,1036,125675,156,19363,520,1,48384,0.0009979999999999989
206998,8957,-604,124653,4923,-3948,128789,167,19360,639,1,48385,0.0010010000000000019
207997,9241,6723,128178,2376,5861,124078,167,19343,684,0,48386,0.0009989999999999999
208997,16576,4635,126146,-422,595,125838,139,19363,569,0,48387,0.0010000000000000009
209997,10313,4985,126967,5741,3160,121632,142,19365,582,0,48388,0.0010000000000000009
210997,10561,-3918,127039,730,-9482,130839,192,19361,786,1,48389,0.0010000000000000009
211997,10049,-5707,127531,2432,-6887,129763,145,19361,594,1,48390,0.0010000000000000009
212997,2808,-560,129386,-2552,-4285,131656,147,19363,594,1,48391,0.0010000000000000009
213997,7403,7145,130148,-2841,5642,124796,169,19358,602,0,48392,0.0010000000000000009
214999,6731,6912,129775,-2816,4435,125381,169,19366,692,0,48393,0.0010020000000000029
215999,14643,2108,130069,10453,389,128504,149,19365,610,0,48394,0.0010000000000000009
216997,2809,974,128806,3988,-1653,126696,149,19352,610,1,48395,0.0009979999999999989
217999,19038,-6481,130472,-26128,-9093,132136,198,19352,811,1,48396,0.0010020000000000029
218999,-36,7301,136138,21543,4422,127676,152,19363,811,1,48397,0.0010000000000000009
219997,2181,-10862,129541,-2087,-14563,139773,166,19361,623,1,48398,0.0009979999999999989
220997,-4935,-732,130835,-33859,-4097,126920,166,19347,680,0,48399,0.0010000000000000009
221997,5359,11834,133423,5013,9002,125562,142,19359,582,0,48400,0.0010000000000000009
222997,3443,7219,126535,7152,4075,128909,145,19363,594,0,48401,0.0010000000000000009
223997,7804,9191,132723,-25806,6966,118997,185,19363,758,1,48402,0.0010000000000000009
224997,5213,-12223,129864,6827,-12897,141783,148,19361,758,1,48403,0.0010000000000000009
225997,3957,-5018,127308,8077,-8733,129143,158,19358,606,1,48404,0.0010000000000000009
226997,-2762,9035,135404,-20713,6812,125944,158,19354,647,1,48405,0.0009999999999999731
227997,4052,-495,127799,-12052,-4186,133241,204,19349,836,0,48406,0.0010000000000000009
228997,-2429,12166,129182,-675,9222,121924,157,19359,643,0,48407,0.0010000000000000009
229997,6227,3633,128086,-11787,326,130902,151,19352,618,0,48408,0.0010000000000000009
230998,3349,4944,125043,-9100,2735,118332,252,19352,618,1,48409,0.0010010000000000019
231998,172,-1119,126009,7974,-6926,132394,165,19360,1032,1,48410,0.0010000000000000009
232999,7215,2940,126668,-8492,-155,127061,165,19356,676,1,48411,0.0010010000000000019
233997,4583,5512,127708,-9893,1691,125438,169,19356,692,0,48412,0.0009979999999999989
234997,9600,10982,128184,-1292,11073,123355,150,19359,614,0,48413,0.0010000000000000009
235997,1733,-797,123527,2128,-3961,125515,150,19362,614,0,48414,0.0010000000000000009
236997,7293,2455,125154,-5638,1727,125029,171,19362,614,0,48415,0.0010000000000000009
237997,3754,5846,124263,-4277,1349,120660,215,19341,700,1,48416,0.0010000000000000009
238997,4965,8018,125263,2632,5793,124408,215,19355,881,1,48417,0.0010000000000000009
239997,13372,4837,125514,-7887,3016,124390,160,19358,655,0,48418,0.0010000000000000009
240997,6640,368,124332,3521,-1154,128331,196,19357,803,0,48419,0.0010000000000000009
241997,11582,-1880,123979,13937,-4442,123862,158,19363,647,0,48420,0.0010000000000000009
242998,7731,6580,124992,-9538,5656,120059,145,19363,647,0,48421,0.0010010000000000019
243997,13739,7726,126160,440,5334,125132,127,19356,594,1,48422,0.0009989999999999999
244997,8488,1960,123266,13610,-2618,125107,127,19364,520,1,48423,0.0010000000000000009
245997,6631,432,126829,-5195,-2111,126518,151,19363,618,1,48424,0.0010000000000000009
246997,9820,-3397,124837,8834,-3867,127336,153,19355,627,0,48425,0.0010000000000000009
247997,7949,4759,126624,8184,4061,126355,175,19359,717,0,48426,0.0010000000000000009
248997,17549,6429,127562,-3417,4296,123918,144,19359,717,0,48427,0.0010000000000000009
249997,9922,5180,126853,3267,1506,123405,164,19363,590,1,48428,0.0010000000000000009
250997,9797,-3783,127177,5087,-7377,129494,164,19346,672,1,48429,0.0009999999999999731
251997,6571,-5746,128718,2258,-8647,130074,128,19363,524,1,48430,0.0010000000000000009
252997,6694,-3370,129143,-5758,-4595,132334,146,19362,598,1,48431,0.0010000000000000009
253997,5533,7309,130391,6,5680,124218,182,19365,745,0,48432,0.0010000000000000009
254997,9180,7428,129153,-1588,3837,125489,153,19365,627,0,48433,0.0010000000000000009
255997,12969,3349,128616,9993,358,129195,144,19362,627,0,48434,0.0010000000000000009
256997,6190,-3975,127842,-8011,-7346,128778,213,19361,590,1,48435,0.0010000000000000009
257997,12995,-4425,131056,-6490,-5723,130047,213,19362,872,1,48436,0.0010000000000000009
258999,2248,1502,133396,18459,-1953,134040,146,19364,598,1,48437,0.0010020000000000029
259997,2774,-9297,128909,-15221,-12936,135441,156,19351,639,0,48438,0.0009979999999999989
260997,-5231,1929,131420,-20147,-76,126899,190,19351,778,0,48439,0.0010000000000000009
261999,6326,11071,132096,5762,9741,127046,152,19359,778,0,48440,0.0010020000000000029
262997,5940,8803,128803,-6847,5885,124606,163,19360,623,0,48441,0.0009979999999999989
263998,7279,4883,132674,-11491,1296,126716,163,19347,668,1,48442,0.0010010000000000296
264997,4915,-16252,126502,4527,-19593,140482,140,19355,573,1,48443,0.0009989999999999721
265997,977,6167,131767,-4959,4297,123221,160,19358,655,1,48444,0.0010000000000000009
266997,-996,1200,132326,-15476,-2279,133856,184,19358,754,0,48445,0.0010000000000000009
267997,-119,5529,128262,-10282,2923,124975,161,19335,754,0,48446,0.0010000000000000009
268997,348,7618,128965,-8522,4508,127327,150,19359,659,0,48447,0.0010000000000000009
269997,8028,7403,127900,-7775,4201,124647,150,19361,614,0,48448,0.0010000000000000009
270997,-1853,-1446,124446,2363,-4444,125051,215,19344,881,1,48449,0.0010000000000000009
271997,4604,2060,128596,-8340,-164,128149,158,19354,647,1,48450,0.0010000000000000009
272997,5255,2241,126429,-9622,-1027,127517,157,19355,643,0,48451,0.0010000000000000009
273997,4552,10218,128580,1505,8205,125328,150,19355,643,0,48452,0.0010000000000000009
274997,4203,456,123807,-4059,-2271,125334,155,19359,614,0,48453,0.0010000000000000009
275997,6690,10375,126301,-8944,7882,119087,155,19362,635,0,48454,0.0010000000000000009
276997,7503,-3559,123116,5165,-5325,129780,158,19352,647,1,48455,0.0010000000000000009
277997,2723,6699,125217,-4155,4546,120316,269,19365,1102,1,48456,0.0010000000000000009
278997,8846,2264,124941,-6611,-1263,126889,151,19362,618,1,48457,0.0010000000000000009
279999,7502,7864,125133,3200,5704,123189,170,19362,618,0,48458,0.0010020000000000029
280997,8702,-1310,122453,2995,-5335,127498,151,19353,696,0,48459,0.0009979999999999989
281997,11646,9397,125438,-830,6115,120343,151,19363,618,0,48460,0.0010000000000000009
282999,11879,2070,124073,2711,-4,125057,144,19364,590,1,48461,0.0010020000000000029
284000,9544,5616,125872,5990,3663,122546,157,19372,643,1,48462,0.0010009999999999741
284999,6980,-1692,125020,-1973,-3969,128262,152,19366,623,1,48463,0.0009990000000000276
285997,7913,2082,126753,323,-34,126660,149,19366,623,1,48464,0.0009979999999999989
286997,9348,-939,125362,4371,-4588,126641,206,19357,610,0,48465,0.0010000000000000009
287997,10120,7884,128312,2680,5951,125364,206,19367,844,0,48466,0.0010000000000000009
288999,16702,2579,125678,1383,1402,123627,146,19363,598,0,48467,0.0010020000000000029
289997,9250,5206,128190,4376,301,125074,150,19358,614,1,48468,0.0009979999999999989
290997,10461,-7109,126737,96,-11484,132338,147,19362,602,1,48469,0.0010000000000000009
291997,3297,-2515,128799,2776,-5188,129546,155,19362,602,1,48470,0.0010000000000000009
292997,7359,628,130385,-3411,6,130730,167,19361,635,0,48471,0.0010000000000000009
293998,4007,8053,130294,-4200,6253,122811,167,19355,684,0,48472,0.0010009999999999741
294999,10855,914,128066,4598,-2330,130071,147,19363,602,0,48473,0.0010010000000000296
295997,9191,2751,128706,12855,1432,126386,142,19365,582,0,48474,0.0009979999999999989
296997,8369,-3428,128098,-20968,-8953,132276,187,19350,766,1,48475,0.0010000000000000009
297999,12878,-1757,133069,4157,436,127122,149,19350,766,1,48476,0.0010020000000000029
298998,-1731,1218,132105,16010,-5339,137773,155,19363,610,1,48477,0.0009989999999999721
299997,4100,-12117,127773,-25684,-12917,132626,155,19354,635,0,48478,0.0009990000000000276
300997,-2716,7802,132539,-13714,4855,123322,210,19358,860,0,48479,0.0009999999999999454
301997,7841,8102,129386,16160,5102,131562,153,19362,627,0,48480,0.0010000000000000009
302997,6352,11646,129485,-18738,8770,117891,152,19355,623,1,48481,0.0010000000000000009
303997,4499,69,132957,-8688,-4684,134459,151,19355,618,1,48482,0.0010000000000000009
304997,4506,-15493,125638,11977,-18104,137075,154,19363,618,1,48483,0.0010000000000000009
305997,-3112,7687,133104,-13450,6847,121995,168,19363,631,1,48484,0.0010000000000000009
306997,-938,2080,131913,-17948,-2770,134756,168,19347,688,0,48485,0.0010000000000000009
307997,552,7587,128368,-2325,7195,121183,197,19359,807,0,48486,0.0010000000000000009
308997,176,7720,128926,-7446,3908,131446,149,19360,610,0,48487,0.0010000000000000009
309997,6928,5779,126866,-11690,2889,120352,184,19360,754,1,48488,0.0010000000000000009
310997,-229,551,125593,854,-3822,126117,136,19335,754,1,48489,0.0010000000000000009
311997,5170,-876,128464,2279,-3345,132242,157,19359,557,1,48490,0.0010000000000000009
312997,4616,3053,126469,-13766,319,124280,157,19359,643,0,48491,0.0010000000000000009
313997,4313,8728,128937,-3426,7568,126701,172,19362,704,0,48492,0.0010000000000000009
314997,6461,4430,124760,-2019,2222,122125,159,19359,651,0,48493,0.0010000000000000009
315997,3684,4248,125274,-1705,2144,124440,147,19359,602,0,48494,0.0010000000000000009
316997,5813,348,123860,-3513,-2427,126346,230,19351,602,1,48495,0.0010000000000000009
317998,3195,6986,124377,-2282,4714,121631,152,19343,942,1,48496,0.0010010000000000296
318997,9817,7293,125259,4839,4839,124123,152,19361,623,1,48497,0.0009989999999999721
319997,12865,3321,125778,-12186,626,124176,162,19346,664,0,48498,0.0010000000000000009
320997,10079,941,124670,12751,-3338,127879,143,19360,586,0,48499,0.0010000000000000009
321997,5190,58,124224,10319,-3221,127184,147,19363,602,0,48500,0.0010000000000000009
322997,11262,5024,124308,-13068,1872,120811,161,19363,602,1,48501,0.0010000000000000009
323999,11035,12264,127125,6571,12042,120012,139,19369,659,1,48502,0.0010020000000000029
325005,11063,-314,124089,6368,-2395,127599,139,19359,569,1,48503,0.0010060000000000069
325997,6900,1540,127688,1117,1181,123689,153,19361,627,1,48504,0.0009919999999999929
326997,10838,-8517,124787,1028,-12066,133503,187,19355,766,0,48505,0.0010000000000000009
327997,8240,8608,128105,7719,4186,123140,153,19363,627,0,48506,0.0010000000000000009
328997,15826,6577,127868,-162,5602,125205,139,19363,627,0,48507,0.0010000000000000009
329997,11304,4237,126746,-375,1897,123672,173,19360,569,1,48508,0.0010000000000000009
330997,10517,-4540,127070,6544,-6093,127209,173,19367,709,1,48509,0.0010000000000000009
331997,4518,-9879,127159,1472,-14097,131039,148,19362,606,1,48510,0.0010000000000000009
332997,5739,3600,129648,-342,-1485,124642,157,19354,643,0,48511,0.0010000000000000009
333997,10098,10845,131285,-6601,7990,125535,144,19363,590,0,48512,0.0010000000000000009
334998,9743,9381,129805,4336,7432,127185,147,19363,590,0,48513,0.0010009999999999741
335997,5450,-2741,128572,11226,-7757,130761,163,19366,602,0,48514,0.0009990000000000276
336997,14277,-9086,129025,-22837,-12209,129225,163,19343,668,1,48515,0.0010000000000000009
337997,4059,1489,135136,10667,-242,132469,129,19362,528,1,48516,0.0010000000000000009
338997,4200,-6725,129845,13717,-12684,137051,149,19362,610,1,48517,0.0010000000000000009
339997,-4140,2601,131134,-25954,3393,124843,181,19352,741,0,48518,0.0010000000000000009
340997,4288,14036,131793,4717,9028,127318,154,19352,741,0,48519,0.0010000000000000009
341999,1980,5303,126813,2970,2186,126727,145,19364,631,0,48520,0.0010020000000000029
342997,9936,3611,131963,-18065,-986,125585,145,19357,594,1,48521,0.0009979999999999989
343997,5106,-12740,129719,4547,-14655,139521,194,19363,795,1,48522,0.0010000000000000009
344997,4391,2443,130040,3226,3446,125103,163,19362,668,1,48523,0.0010000000000000009
345997,-2356,5690,134287,-17955,700,131464,165,19356,676,1,48524,0.0010000000000000009
346997,-98,588,128197,-13340,-617,127799,236,19356,967,0,48525,0.0010000000000000009
347997,-1377,8240,129908,-5501,3973,126926,157,19356,967,0,48526,0.0010000000000000009
348997,8719,6401,128859,-7967,4352,125585,168,19360,643,0,48527,0.0010000000000000009
349997,2179,2218,125689,2136,-2611,124044,168,19346,688,1,48528,0.0010000000000000009
350997,1659,1525,125675,-5589,-2721,127892,186,19361,762,1,48529,0.0010000000000000009
351997,5833,2191,126719,-9200,-1402,127697,155,19354,635,1,48530,0.0010000000000000009
352997,4186,8586,129023,-189,6589,126029,174,19354,713,0,48531,0.0010000000000000009
353997,6256,4213,126492,-2632,1989,125714,159,19361,713,0,48532,0.0010000000000000009
354997,3626,7107,126282,-8873,5216,120941,147,19359,651,0,48533,0.0010000000000000009
355997,9258,-1219,124399,3065,-4230,129333,147,19358,602,0,48534,0.0010000000000000009
356997,3193,6323,124604,698,4582,120318,201,19326,823,1,48535,0.0010000000000000009
357997,7358,1879,124537,-9333,-511,126307,139,19358,569,1,48536,0.0010000000000000009
358997,7243,9305,125938,3081,6857,122510,153,19358,627,1,48537,0.0010000000000000009
359997,8965,-924,123217,3925,-3740,128078,179,19350,627,0,48538,0.0010000000000000009
360997,11600,6292,125873,-1139,4389,121625,151,19365,733,0,48539,0.0009999999999999454
361997,10911,1865,124127,2205,-966,124003,151,19365,618,0,48540,0.0010000000000000009
362997,10636,4050,125172,7178,1989,124118,151,19363,618,1,48541,0.0010000000000000009
363999,10805,1012,124465,-1201,-1250,123848,127,19362,520,1,48542,0.0010020000000000029
364997,5362,2692,126574,367,-281,127084,157,19362,643,1,48543,0.0009979999999999989
365997,8749,-1074,124252,1994,-3050,127344,166,19362,643,0,48544,0.0010000000000000009
366999,8231,7708,128194,3543,5143,124714,140,19344,680,0,48545,0.0010020000000000029
367997,16962,1703,125465,2557,-483,126817,140,19360,573,0,48546,0.0009979999999999989
368997,9477,5990,127218,2261,2727,121148,139,19361,569,0,48547,0.0010000000000000009
369997,11166,-4938,126682,203,-6429,129768,191,19359,782,1,48548,0.0010000000000000009
370997,7828,-3810,128497,6138,-6916,128807,144,19365,590,1,48549,0.0010000000000000009
371997,5042,-3031,128734,-2810,-6716,132198,151,19365,590,1,48550,0.0010000000000000009
372997,6281,7339,130003,-4235,3420,126273,172,19360,618,0,48551,0.0010000000000000009
373997,8549,6487,130040,247,6749,124343,172,19364,704,0,48552,0.0010000000000000009
374998,16141,-1351,128341,4041,-3274,131084,147,19367,602,0,48553,0.0010010000000000296
375997,1424,4883,130373,12469,3060,123042,147,19356,602,1,48554,0.0009989999999999721
376997,18471,-10843,129027,-28830,-10731,134969,192,19364,786,1,48555,0.0010000000000000009
377998,-1937,8978,135735,14916,3392,125572,152,19364,786,1,48556,0.0010010000000000296
378997,1994,-9105,129426,8575,-6578,138382,170,19362,623,1,48557,0.0009989999999999721
379997,-4577,-440,130012,-35209,-10188,122223,170,19342,696,0,48558,0.0010000000000000009
380998,5748,10676,133708,-2090,9233,131800,157,19362,643,0,48559,0.0010010000000000296
381997,4144,4066,125873,15830,20,123497,145,19360,594,0,48560,0.0009989999999999721
382997,7539,10509,132898,-26735,4659,123788,183,19355,750,1,48561,0.0010000000000000009
383998,6172,-10517,130590,160,-17604,142868,145,19355,750,1,48562,0.0010010000000000296
384999,3579,-5967,126498,12439,-1363,123189,158,19361,594,1,48563,0.0010009999999999741
385999,-4105,9985,136161,-18113,2836,131322,158,19360,647,1,48564,0.0010000000000000009
386997,1145,-1846,127364,-17263,-1224,127811,205,19347,840,0,48565,0.0009979999999999989
387997,2763,12840,129118,416,8329,125382,157,19363,643,0,48566,0.0010000000000000009
388997,1048,3289,128316,-16119,592,127162,150,19356,614,0,48567,0.0010000000000000009
389999,2373,4241,124629,-3967,202,120509,246,19356,1008,1,48568,0.0010020000000000029
390999,-848,-396,127171,6090,-2944,133079,155,19361,1008,1,48569,0.0010000000000000009
391998,5141,2975,126733,-13047,-498,125860,155,19362,635,1,48570,0.0009989999999999721
392997,4357,4931,127593,-5870,4475,125515,167,19353,684,0,48571,0.0009990000000000276
393997,5558,10325,127713,-833,4932,123739,149,19359,610,0,48572,0.0010000000000000009
394997,3984,-100,123220,-1806,-1284,123960,153,19361,627,0,48573,0.0010000000000000009
395998,4847,3334,125013,-6892,-81,125053,170,19361,696,0,48574,0.0010009999999999741
396997,4504,4438,123534,-1197,3019,123059,208,19338,696,1,48575,0.0009990000000000276
397997,2249,7323,124425,2329,4128,122753,152,19356,852,1,48576,0.0010000000000000009
398998,10097,3625,125326,-8407,1245,124897,152,19356,623,0,48577,0.0010009999999999741
399997,11693,2561,124856,2255,-1098,125305,191,19361,782,0,48578,0.0009990000000000276
400997,12300,-1795,124439,16661,-3695,128341,159,19359,651,0,48579,0.0010000000000000009
401999,4488,2502,124049,-9027,-256,122413,145,19359,594,1,48580,0.0010020000000000029
402997,11988,8609,125983,-3056,6824,120807,126,19357,594,1,48581,0.0009979999999999989
403997,11742,5784,124047,8940,2463,125410,153,19364,516,1,48582,0.0010000000000000009
404997,6464,1782,126204,334,-460,124906,153,19363,627,1,48583,0.0010000000000000009
405997,9444,-3738,125625,-2197,-6135,127863,156,19352,639,0,48584,0.0010000000000000009
406997,10346,-232,126268,7907,-2601,129731,189,19359,774,0,48585,0.0010000000000000009
407997,11039,8982,127965,4838,6654,122221,147,19363,602,0,48586,0.0010000000000000009
408997,14228,4166,127521,-6134,1527,124897,165,19363,602,1,48587,0.0010000000000000009
409997,11023,-1758,127637,5814,-4666,126921,129,19354,676,1,48588,0.0010000000000000009
410999,11101,-9303,127531,5789,-11839,133092,129,19364,528,1,48589,0.0010020000000000029
411998,4022,-78,129232,-7006,-3596,129270,148,19363,606,1,48590,0.0009989999999999721
412998,7792,9219,130771,-4418,6762,123831,181,19361,741,0,48591,0.0010000000000000009
413997,8441,8614,129703,4113,6746,126111,152,19368,623,0,48592,0.0009990000000000276
414997,11674,1061,128406,10500,-146,130196,141,19368,623,0,48593,0.0010000000000000009
415997,4337,-5725,128628,-10801,-8011,128606,213,19361,577,1,48594,0.0010000000000000009
416997,14864,-5659,131630,-9231,-10488,130957,213,19354,872,1,48595,0.0010000000000000009
417997,3847,3173,133503,23963,1108,132408,149,19359,610,1,48596,0.0010000000000000009
418997,3734,-7902,129653,-17920,-12540,135869,158,19355,647,0,48597,0.0010000000000000009
419997,-2870,11096,133438,-23307,4892,124228,189,19362,774,0,48598,0.0009999999999999454
420997,3791,7537,130841,9463,6976,129071,148,19362,774,0,48599,0.0010000000000000009
421997,2027,5383,128923,-4022,2250,126275,162,19362,606,0,48600,0.0010000000000000009
422997,9388,-1551,131683,-17357,-984,126381,162,19346,664,1,48601,0.0010000000000000009
423997,3926,-8511,126968,8087,-12897,138826,127,19362,520,1,48602,0.0010000000000000009
424997,5441,7874,132320,-77,3534,124332,157,19356,643,1,48603,0.0010000000000000009
425998,-2453,-1686,131014,-19420,-1030,133867,178,19343,729,0,48604,0.0010010000000000296
426998,-228,5546,128272,-10354,-874,122685,161,19343,729,0,48605,0.0010000000000000009
427997,-1543,6148,129025,-6438,4282,131033,148,19361,659,0,48606,0.0009989999999999721
428997,7994,8385,127637,-10125,5880,120276,148,19359,606,1,48607,0.0010000000000000009
429997,681,-2872,124007,2504,-7483,129375,209,19345,856,1,48608,0.0010000000000000009
430997,1556,2823,128723,-6647,1107,126109,153,19358,627,1,48609,0.0010000000000000009
431997,7469,2626,126586,-8783,2087,126858,157,19353,643,0,48610,0.0010000000000000009
432997,4024,10381,128806,1031,6055,126652,158,19353,643,0,48611,0.0010000000000000009
433997,6978,315,124385,-6103,-638,123101,156,19355,647,0,48612,0.0010000000000000009
434997,3265,7253,126412,-4921,3302,124802,156,19361,639,0,48613,0.0010000000000000009
435997,8207,-3047,123075,6950,-2599,126033,153,19349,627,1,48614,0.0010000000000000009
436997,3193,9867,125105,-12011,5395,119874,275,19358,1126,1,48615,0.0010000000000000009
437997,6745,2462,124448,-450,1908,126488,154,19357,631,1,48616,0.0010000000000000009
438997,8430,7852,125149,4598,2402,123601,173,19357,709,0,48617,0.0010000000000000009
439997,9600,-500,122798,3663,-3122,126391,149,19346,709,0,48618,0.0010000000000000009
440998,11612,8299,125671,-1908,4410,120169,146,19359,610,0,48619,0.0010010000000000296
441997,10490,-140,124307,7342,-2004,127174,146,19361,598,1,48620,0.0009989999999999721
442997,11144,5238,126003,2181,4130,122031,160,19369,655,1,48621,0.0010000000000000009
443997,10063,-1389,125079,-374,-3885,127630,161,19361,659,1,48622,0.0010000000000000009
444997,5458,4390,126365,974,1957,124769,155,19361,635,1,48623,0.0010000000000000009
445997,9129,865,126203,3469,-1177,127203,202,19355,635,0,48624,0.0010000000000000009
446997,8262,5439,127736,4806,3501,126401,149,19359,827,0,48625,0.0010000000000000009
447997,17480,2035,125880,3391,-181,123730,149,19362,610,0,48626,0.0010000000000000009
448997,9801,4832,128484,2077,1284,124049,148,19355,606,1,48627,0.0010000000000000009
449997,10531,-6432,126427,2975,-11087,132208,152,19363,623,1,48628,0.0010000000000000009
450997,9251,-958,128629,3865,-4066,128354,148,19363,606,1,48629,0.0010000000000000009
451998,3180,1578,130462,-6722,-978,131142,161,19361,606,0,48630,0.0010009999999999741
452997,6841,7352,129986,-2460,5118,122003,143,19356,659,0,48631,0.0009990000000000276
453997,8476,1437,128794,3298,-1078,129875,143,19362,586,0,48632,0.0010000000000000009
454997,15002,802,127957,13569,-1719,128187,141,19363,577,0,48633,0.0010000000000000009
455997,3851,-2006,128993,-18770,-4215,127969,179,19349,733,1,48634,0.0010000000000000009
456997,17278,-1093,134048,852,-4395,130986,152,19358,623,1,48635,0.0010000000000000009
457997,-2421,-640,131561,20031,-2421,134722,158,19358,623,1,48636,0.0010000000000000009
458997,1501,-9790,129073,-26275,-14942,134422,209,19355,647,0,48637,0.0010000000000000009
459998,-4379,12063,133612,-17929,6274,122822,209,19355,856,0,48638,0.0010009999999999741
460997,6207,6384,128355,20169,4503,132650,155,19361,635,0,48639,0.0009990000000000276
461997,3597,9194,130115,-18711,6072,120139,151,19351,618,1,48640,0.0010000000000000009
462997,8035,-1372,132354,-13052,-1266,130521,166,19366,680,1,48641,0.0010000000000000009
463997,6040,-12419,125679,13756,-16591,138784,156,19366,680,1,48642,0.0010000000000000009
464997,3477,9177,134510,-11918,4728,122201,166,19360,639,1,48643,0.0010000000000000009
465997,-2964,-1948,130505,-19848,-2476,134674,166,19348,680,0,48644,0.0010000000000000009
466997,3386,9330,128836,-2636,4238,123775,199,19360,815,0,48645,0.0010000000000000009
467997,-1729,5949,129096,-5502,5127,129379,150,19362,614,0,48646,0.0010000000000000009
468997,6228,6500,126749,-13648,3429,122483,177,19334,725,1,48647,0.0010000000000000009
469997,2836,-209,125369,47,-2603,124699,132,19334,725,1,48648,0.0010000000000000009
470997,3186,897,128048,2286,-2247,132409,153,19361,541,1,48649,0.0010000000000000009
471997,7173,2758,126567,-14210,-1103,124871,153,19358,627,0,48650,0.0010000000000000009
472997,3373,10891,129584,-4098,7534,123995,178,19365,729,0,48651,0.0010000000000000009
473999,7306,-258,123986,-977,193,125599,161,19360,659,0,48652,0.0010020000000000029
474997,2012,6602,125878,-3577,2634,123748,148,19357,606,0,48653,0.0009979999999999989
475997,6233,3086,123781,-4273,-891,123133,223,19357,606,1,48654,0.0010000000000000009
476999,3418,8963,124807,-3353,5727,122149,148,19342,913,1,48655,0.0010019999999999474
477997,8141,2983,125085,2342,-224,126519,148,19360,606,1,48656,0.0009980000000000544
478998,13372,1711,125588,-8615,-1873,125020,157,19349,643,0,48657,0.0010009999999999741
479997,7619,373,123789,13686,-1845,127626,156,19356,639,0,48658,0.0009989999999999721
480997,9354,3723,124563,-9047,1113,121836,151,19364,618,0,48659,0.0010000000000000009
481997,8476,8375,125918,-1205,6971,122117,162,19364,618,1,48660,0.0010000000000000009
482997,11841,6329,125482,11595,2862,124328,136,19365,664,1,48661,0.0010000000000000009
483997,8557,321,124972,-714,-1838,124670,136,19361,557,1,48662,0.0010000000000000009
484997,7506,-2829,126316,-2272,-6870,129387,147,19361,602,1,48663,0.0010000000000000009
485997,11030,708,126612,8373,-127,126368,179,19351,733,0,48664,0.0010000000000000009
486997,8372,7510,127763,4470,4358,125365,150,19363,614,0,48665,0.0010000000000000009
487997,15544,6081,126849,-4931,3282,123450,141,19363,577,0,48666,0.0010000000000000009
488997,8887,492,126636,2966,-3738,126129,192,19359,577,1,48667,0.0010000000000000009
489997,9244,-4759,126871,5682,-7857,130185,148,19368,786,1,48668,0.0010000000000000009
490997,6608,-5522,128541,-1496,-8640,131477,148,19363,606,1,48669,0.0010000000000000009
491997,7328,3401,129919,-3088,1917,127602,153,19358,627,0,48670,0.0010000000000000009
492998,4867,8167,130729,-972,7282,124565,152,19363,623,0,48671,0.0010010000000000296
493997,11906,6705,129723,8798,4200,127443,148,19363,606,0,48672,0.0009989999999999721
494997,6290,-1433,128715,-1815,-3784,128571,159,19367,606,0,48673,0.0010000000000000009
495997,12724,-6244,130504,-19747,-9095,129094,143,19348,651,1,48674,0.0010000000000000009
496997,9047,599,134410,21189,-2137,132868,143,19366,586,1,48675,0.0010000000000000009
497997,5656,-6292,129830,-6517,-9714,134799,149,19363,610,1,48676,0.0010000000000000009
498999,-859,-513,131027,-27422,-4761,130633,183,19346,750,0,48677,0.0010020000000000029
499997,-150,14369,131047,3083,9732,123225,153,19367,627,0,48678,0.0009979999999999989
500997,2615,5551,127689,2608,2649,130009,145,19367,627,0,48679,0.0010000000000000564
501997,8475,6355,132161,-17122,4053,121529,210,19357,594,1,48680,0.0010000000000000009
502998,3179,-13639,129125,2185,-14009,139255,210,19361,860,1,48681,0.0010009999999999186
503997,5198,1582,130122,4486,-2967,128025,171,19355,700,1,48682,0.0009990000000000832
504997,-2102,3509,133627,-15753,2517,129265,168,19354,688,1,48683,0.0010000000000000009
505997,1324,3778,128870,-12396,-1061,130610,233,19353,954,0,48684,0.0010000000000000009
506997,-2176,7745,129397,-6644,6476,124008,156,19353,954,0,48685,0.0010000000000000009
507997,5017,8011,129250,-8335,4330,127559,163,19364,639,0,48686,0.0010000000000000009
508997,7112,-1868,124229,1248,-3086,124498,163,19347,668,1,48687,0.0009999999999998899
509997,-1762,5389,126888,-3685,-1935,126682,196,19357,803,1,48688,0.0010000000000000009
510997,5589,214,126364,-10809,-1653,128061,157,19358,643,1,48689,0.0010000000000000009
511997,3738,11550,129522,-381,7654,125264,173,19360,709,0,48690,0.0010000000000000009
512997,4695,932,125232,-1450,582,128067,156,19360,709,0,48691,0.0010000000000000009
513997,3616,9255,126653,-8065,4696,120196,145,19356,639,0,48692,0.0010000000000000009
514997,8247,-2620,123433,-2,-1053,126830,145,19359,594,0,48693,0.0010000000000000009
515997,6136,8528,125090,4199,3338,122274,190,19329,778,1,48694,0.0010000000000000009
516997,2736,274,123967,-10415,-574,125190,138,19359,565,1,48695,0.0010000000000000009
517999,8191,9878,125986,2086,6260,123403,153,19355,627,1,48696,0.0010020000000000584
518999,7546,-1138,122560,4321,-1804,127816,180,19355,627,0,48697,0.0010000000000000009
519999,8840,6478,126616,267,1947,119589,152,19360,737,0,48698,0.0010000000000000009
520997,11531,2534,123709,-47,2035,126484,152,19363,623,0,48699,0.0009979999999999434
521997,12253,6125,125591,9029,1559,121392,148,19359,606,1,48700,0.0010000000000000009
522997,10849,39,123847,590,1159,126822,118,19360,483,1,48701,0.0010000000000000009
523997,6287,2009,126614,182,1533,124738,153,19362,627,1,48702,0.0010000000000000009
524997,8758,-1113,124634,3827,-3776,128633,165,19362,627,0,48703,0.0010000000000000009
525997,9754,6327,128422,2465,5436,124352,143,19349,676,0,48704,0.0010000000000000009
526997,12044,3769,126046,1676,436,126101,143,19364,586,0,48705,0.0010000000000000009
527997,15203,4822,126956,4926,2577,121676,140,19361,573,0,48706,0.0010000000000000009
528997,9142,-3443,126988,1057,-9139,130674,184,19362,754,1,48707,0.0010000000000000009
529998,10682,-6394,128455,1928,-7499,129829,142,19364,582,1,48708,0.0010010000000000296
530997,3401,767,129711,-3890,-1594,130742,151,19364,618,1,48709,0.0009989999999999721
531997,9007,7914,130670,-758,5521,124846,178,19359,618,0,48710,0.0010000000000000009
532998,4240,4023,128610,-3024,294,126558,154,19363,729,0,48711,0.0010010000000000296
533999,11938,2501,129952,12712,15,129126,154,19368,631,0,48712,0.0010010000000000296
534997,4566,-1359,128267,-8262,-4784,128762,145,19354,594,1,48713,0.0009979999999999434
535997,14903,-3164,131625,-15212,-4480,128381,190,19363,778,1,48714,0.0010000000000000009
536997,7733,5403,134503,24737,1433,133489,149,19363,610,1,48715,0.0010000000000000009
537999,2254,-13250,128027,-14767,-17141,136270,167,19364,610,1,48716,0.0010020000000000584
538998,-1903,2738,132236,-28489,-105,126545,162,19348,684,0,48717,0.0009989999999999721
539997,2602,8516,132239,14211,7256,129455,162,19359,664,0,48718,0.0009989999999999721
540997,4569,10932,127956,-6199,8044,122227,145,19364,594,0,48719,0.0010000000000000009
541999,8574,5703,133374,-20894,2855,126291,181,19359,741,1,48720,0.0010020000000000584
542997,3228,-14479,127119,12278,-17636,139999,142,19359,582,1,48721,0.0009979999999999434
543997,5385,1020,130152,-1130,-1655,125632,159,19359,582,1,48722,0.0010000000000000009
544997,-3408,5224,133449,-23105,2124,130158,198,19355,651,0,48723,0.0010000000000000009
545997,2574,4377,128119,-7243,1062,127224,198,19342,811,0,48724,0.0010000000000000009
546997,-1033,8309,128590,-3194,5104,127620,161,19366,659,0,48725,0.0010000000000000009
547998,4074,6544,127775,-14663,3052,124816,153,19352,627,0,48726,0.0010010000000000296
548997,6371,512,124516,-1149,-2016,122919,243,19359,995,1,48727,0.0009989999999999721
549997,-1111,1018,127872,5235,-2388,130675,155,19359,995,1,48728,0.0010000000000000009
550997,6319,82,126127,-13581,-3089,126784,164,19355,635,1,48729,0.0010000000000000009
551997,2836,11934,129746,-9361,8940,124289,164,19352,672,0,48730,0.0010000000000000009
552997,8475,2376,124311,4375,1402,126279,147,19361,602,0,48731,0.0010000000000000009
553997,877,6754,124893,-1264,3505,121041,152,19363,623,0,48732,0.0010000000000000009
554997,8431,-1895,123175,-10869,-3137,126736,172,19341,704,0,48733,0.0010000000000000009
555997,4576,10522,125652,1721,7801,120053,206,19341,704,1,48734,0.0010000000000000009
556997,6318,685,124421,-592,-1415,127595,152,19357,844,1,48735,0.0010000000000000009
557997,8586,6523,125897,-1962,2939,123774,152,19355,623,0,48736,0.0010000000000000009
558997,6656,-2616,122600,1049,-4849,128055,189,19355,774,0,48737,0.0010000000000000009
559997,11689,7900,125624,3697,3550,122239,153,19359,627,0,48738,0.0010000000000000009
560997,9277,4693,125052,-1609,3841,122725,144,19361,590,1,48739,0.0010000000000000009
561997,13363,5609,124909,8135,2393,123739,130,19361,590,1,48740,0.0010000000000000009
562997,9797,-2652,124193,-2868,-3033,124090,159,19365,532,1,48741,0.0010000000000000009
563997,7295,2099,127766,-985,-1839,128262,159,19364,651,1,48742,0.0010000000000000009
564997,6614,-1129,125313,8956,-2810,127398,155,19356,635,0,48743,0.0010000000000000009
565997,10169,6763,127916,-2366,1929,124551,184,19359,754,0,48744,0.0010000000000000009
566997,13236,7291,126849,879,5981,123205,143,19370,586,0,48745,0.0010000000000000009
567997,12888,1918,127260,3714,25,126226,160,19370,586,1,48746,0.0010000000000000009
568997,10402,-4156,127880,3401,-5905,128986,123,19349,655,1,48747,0.0010000000000000009
569997,9471,-7830,128474,1176,-10238,133948,123,19365,504,1,48748,0.0010000000000000009
570997,4966,1929,129759,-2560,2626,127554,151,19362,618,1,48749,0.0010000000000000009
571999,6378,9449,129895,-869,6410,123628,177,19359,725,0,48750,0.0010019999999999474
572999,8143,7878,129282,-4083,5481,124240,149,19363,610,0,48751,0.0010000000000000009
573999,13440,-1296,128031,8971,-6174,133312,141,19363,577,0,48752,0.0010000000000000009
574997,2646,-6378,128422,-19222,-7921,128265,203,19362,577,1,48753,0.0009980000000000544
575997,17282,-1181,133108,742,-1051,128190,149,19359,831,1,48754,0.0010000000000000009
576999,-288,2218,132992,17344,-2148,137268,149,19362,610,1,48755,0.0010019999999999474
577997,4605,-9378,128731,-20332,-12902,132070,160,19359,655,0,48756,0.0009980000000000544
578997,-6139,7883,132408,-19968,6235,124266,191,19359,782,0,48757,0.0010000000000000009
579997,7561,13204,130866,12510,8888,127591,149,19359,610,0,48758,0.0010000000000000009
580997,2934,5975,129559,-10038,3477,123078,157,19361,610,0,48759,0.0010000000000000009
581997,8502,-720,131906,-12039,-5655,133267,122,19353,643,1,48760,0.0010000000000000009
582997,4251,-14721,125731,5180,-17086,136517,122,19360,500,1,48761,0.0010000000000000009
583997,4035,12479,133450,-7660,11049,121946,158,19357,647,1,48762,0.0010000000000000009
584997,-1073,-2961,129979,-14050,-6510,135711,181,19344,741,0,48763,0.0010000000000000009
585997,1440,8438,128573,-9145,7158,120744,168,19344,688,0,48764,0.0010000000000000009
586997,-1785,4269,128528,-7052,1043,132391,147,19357,688,0,48765,0.0010000000000000009
587997,8479,9203,127487,-4432,6400,119996,201,19362,602,1,48766,0.0010000000000000009
588997,358,-4165,124594,1218,-7772,129126,201,19341,823,1,48767,0.0010000000000000009
589997,846,3523,128941,-12660,1801,126090,148,19357,606,1,48768,0.0010000000000000009
590997,7657,2347,126614,-6213,-993,128391,160,19354,655,0,48769,0.0010000000000000009
591997,4593,10611,128619,872,8907,125200,165,19359,676,0,48770,0.0010000000000000009
592997,7357,651,123539,-4045,-2422,123863,157,19359,676,0,48771,0.0010000000000000009
593997,3029,10083,126733,-9434,8348,121000,152,19361,643,0,48772,0.0010000000000000009
594997,9070,-4035,122843,8008,-7412,129835,152,19349,623,1,48773,0.0010000000000000009
595998,1630,8437,125668,-8577,6681,119230,263,19358,1077,1,48774,0.0010010000000000296
596997,8563,2335,124962,-4408,-1345,127224,154,19362,631,1,48775,0.0009989999999999721
597997,6646,7026,124803,2979,5381,122578,171,19353,700,0,48776,0.0010000000000000009
598998,9908,0,122905,5444,-5412,128339,150,19353,700,0,48777,0.0010009999999999186
599997,10838,9404,125731,-1873,6868,119446,145,19355,614,0,48778,0.0009990000000000832
600997,12308,909,124450,5001,-1041,126593,145,19361,594,1,48779,0.0010000000000000009
601997,9875,5331,126369,3929,4166,121083,173,19368,709,1,48780,0.0010000000000000009
602997,10245,-3783,125030,-336,-6290,128367,155,19359,635,1,48781,0.0010000000000000009
603997,6648,649,126380,1387,792,125310,159,19360,651,1,48782,0.0010000000000000009
604997,9240,-460,126112,2319,-2555,127812,203,19360,651,0,48783,0.0010000000000000009
605997,8409,8331,128408,4887,7611,123810,152,19359,831,0,48784,0.0010000000000000009
606997,17438,628,125762,1684,-928,126807,152,19361,623,0,48785,0.0010000000000000009
607997,9455,2847,128343,5605,1250,122362,149,19354,610,1,48786,0.0010000000000000009
608997,9090,-8118,126090,-70,-11934,132665,163,19361,668,1,48787,0.0010000000000000009
609997,8765,-630,128929,3732,-5107,128930,156,19360,639,1,48788,0.0010000000000000009
610997,3822,3493,130696,-4150,389,130014,164,19360,639,0,48789,0.0010000000000000009
611997,7294,6174,129971,-4420,4803,124873,143,19352,672,0,48790,0.0010000000000000009
612997,8249,5336,127989,-204,-915,129819,143,19360,586,0,48791,0.0010000000000000009
613997,14420,246,128497,13610,-1463,127792,144,19365,590,0,48792,0.0010000000000000009
614997,4310,203,128328,-9011,-5398,131433,177,19337,725,1,48793,0.0010000000000000009
615997,17727,-6112,135582,-12823,-4933,126471,140,19366,573,1,48794,0.0010000000000000009
616997,-1209,7973,131062,22966,2153,138961,153,19366,573,1,48795,0.0010000000000000009
617997,3700,-11153,128773,-16227,-8508,129474,202,19359,627,0,48796,0.0010000000000000009
618997,-6810,1243,132654,-25210,4514,125464,202,19357,827,0,48797,0.0010000000000000009
619998,7011,6813,127792,14607,4650,130000,156,19363,639,0,48798,0.0010009999999999186
620997,3087,10586,131044,-8820,9106,117951,151,19356,618,1,48799,0.0009990000000000832
621997,7092,8405,131894,1005,-8499,139048,162,19363,664,1,48800,0.0010000000000000009
622997,5304,-12253,125278,8527,-12699,132413,152,19363,623,1,48801,0.0010000000000000009
623997,2327,-1567,134943,-15299,8059,123807,159,19360,623,1,48802,0.0010000000000000009
624997,-2283,6541,129633,-13016,-6350,135262,215,19348,651,0,48803,0.0010000000000000009
625997,3222,-609,129357,-1870,9396,120256,215,19359,881,0,48804,0.0010000000000000009
627000,-1429,10660,128960,-11241,2114,131245,152,19360,623,0,48805,0.0010029999999999761
627997,7265,5826,126306,-8365,4132,118751,179,19336,733,1,48806,0.0009969999999999146
628997,1007,1858,124851,6988,-7078,130142,152,19336,623,1,48807,0.0010000000000000009
629997,2734,-410,127330,-9460,-1571,128138,158,19358,623,1,48808,0.0010000000000000009
630997,6317,430,127415,-11309,2511,124249,180,19352,647,0,48809,0.0010000000000000009
631998,5972,11737,129338,4321,9085,126376,180,19364,737,0,48810,0.0010010000000000296
632997,5253,2424,122939,340,-2912,124483,162,19360,664,0,48811,0.0009989999999999721
633997,2347,5842,126431,-12446,5148,121977,150,19358,614,0,48812,0.0010000000000000009
634997,8581,-842,124328,87,-7,125879,223,19358,913,1,48813,0.0010000000000000009
635997,2051,9883,125442,2502,5410,122531,150,19339,913,1,48814,0.0010000000000000009
636997,10230,206,125437,-3030,-620,126948,153,19359,614,1,48815,0.0010000000000000009
637997,6764,7068,124873,-472,854,123146,153,19352,627,0,48816,0.0010000000000000009
638997,9959,-1862,123510,7569,-2493,127307,157,19355,643,0,48817,0.0010000000000000009
639998,10077,7444,126275,-1413,6395,119827,150,19360,614,0,48818,0.0010010000000000296
640999,12153,4861,124491,3148,-307,126473,161,19368,659,1,48819,0.0010010000000000296
641997,9036,4219,125831,3308,5274,121888,136,19368,659,1,48820,0.0009979999999999434
642997,8627,-1586,126132,119,-5528,129006,151,19360,557,1,48821,0.0010000000000000009
643997,7195,1993,125621,5117,-1764,126190,151,19359,618,1,48822,0.0010000000000000009
644997,8787,-2517,126609,-1589,-1547,127682,176,19352,721,0,48823,0.0010000000000000009
645997,10684,6474,128019,4388,6173,124162,150,19360,614,0,48824,0.0010000000000000009
646997,14915,7715,126319,2933,1875,124308,141,19359,577,0,48825,0.0010000000000000009
647997,10711,2383,127535,-87,-2383,125500,195,19359,577,1,48826,0.0010000000000000009
648997,7619,-3245,127466,4446,-9735,130438,154,19366,799,1,48827,0.0010000000000000009
649997,6373,-7718,128529,2457,-9371,132517,154,19362,631,1,48828,0.0010000000000000009
650997,7085,2773,130792,-4224,3429,126871,158,19354,647,0,48829,0.0010000000000000009
651997,5554,7272,130222,-4108,5763,125147,154,19363,631,0,48830,0.0010000000000000009
652999,9831,6425,129955,6152,3909,126099,150,19366,614,0,48831,0.0010020000000000584
653997,7463,-1321,128465,9634,-6072,132384,157,19366,614,0,48832,0.0009979999999999434
654997,9422,-4169,130804,-23081,-5001,126766,152,19348,643,1,48833,0.0010000000000000009
655997,11640,55,134826,10573,767,129388,152,19365,623,1,48834,0.0010000000000000009
656997,3046,767,129881,8895,-6707,136438,149,19361,610,1,48835,0.0010000000000000009
657997,2567,-9052,129988,-23973,-10576,131549,184,19351,754,0,48836,0.0010000000000000009
658997,-2698,6259,132111,-10511,6378,124206,153,19363,627,0,48837,0.0010000000000000009
659997,6047,12248,127943,9043,6439,127014,144,19363,627,0,48838,0.0010000000000000009
660999,5347,6818,132200,-14272,4661,125324,201,19361,590,1,48839,0.0010020000000000584
661997,4447,-1265,129285,-5287,-8741,139596,201,19364,823,1,48840,0.0009979999999999434
662997,3916,-13143,128806,6046,-11602,124800,150,19359,614,1,48841,0.0010000000000000009
663997,-440,10292,134014,-10925,1163,130518,160,19355,655,1,48842,0.0010000000000000009
664997,-150,-625,127836,-12306,-322,127770,230,19356,942,0,48843,0.0010000000000000009
665997,-212,8419,129419,-8279,5218,126624,159,19356,651,0,48844,0.0010000000000000009
666997,3175,5555,128385,-8843,3990,125415,162,19359,651,0,48845,0.0010000000000000009
667997,7459,8008,124779,-1209,-2923,124400,202,19347,664,1,48846,0.0010000000000000009
668999,-2922,-3855,125724,-6105,-2435,128205,202,19357,827,1,48847,0.0010020000000000584
669997,5590,2279,126885,-11849,-1236,127730,163,19356,668,1,48848,0.0009979999999999434
670997,3633,3285,129289,2066,9235,124804,177,19358,725,0,48849,0.0010000000000000009
671997,6262,10470,125628,-3369,-702,125516,162,19358,664,0,48850,0.0010000000000000009
672997,2525,537,125781,-8423,5633,120326,150,19356,664,0,48851,0.0010000000000000009
673997,8485,7797,123830,3236,-5245,129040,191,19362,614,0,48852,0.0010000000000000009
674997,5471,-2374,124814,-835,4661,120824,191,19329,782,1,48853,0.0010000000000000009
675997,2900,8665,124770,-8727,151,125494,161,19354,659,1,48854,0.0010000000000000009
676997,8758,3472,125710,2569,5343,123788,159,19355,651,1,48855,0.0010000000000000009
677997,7808,5778,122834,3552,-4147,127563,184,19355,754,0,48856,0.0010000000000000009
678997,10716,461,125822,871,3843,122043,158,19358,754,0,48857,0.0010000000000000009
679999,11274,8505,124480,1078,1286,123323,150,19362,647,0,48858,0.0010020000000000584
680998,12764,1339,125328,7582,2515,123549,150,19362,614,1,48859,0.0009989999999999721
681999,11181,5589,123856,-2094,-3511,125682,117,19363,479,1,48860,0.0010010000000000296
682997,6015,-3118,126988,1100,192,125943,150,19361,614,1,48861,0.0009979999999999434
683997,7803,2727,124500,3601,-2963,127323,157,19348,643,0,48862,0.0010000000000000009
684997,9042,3283,127670,1584,4053,125696,159,19348,643,0,48863,0.0010000000000000009
685997,11575,6651,126736,2372,2937,124851,141,19362,651,0,48864,0.0010000000000000009
686997,15317,2481,126961,1850,-83,124565,141,19362,577,1,48865,0.0010000000000000009
687997,10417,1373,127709,4222,-5778,127564,183,19359,750,1,48866,0.0010000000000000009
688997,10565,-4967,127678,1865,-9472,131902,139,19365,569,1,48867,0.0010000000000000009
689997,2400,-5671,129586,-4811,-3878,130824,146,19359,598,1,48868,0.0010000000000000009
690997,8430,7839,130796,-552,6944,125210,172,19359,598,0,48869,0.0010000000000000009
691997,6200,7171,128864,-3305,3557,125901,149,19364,704,0,48870,0.0010000000000000009
692997,11056,1882,129889,6606,-1619,128079,149,19365,610,0,48871,0.0010000000000000009
693997,4924,-379,128529,8069,-3428,129371,146,19357,598,1,48872,0.0010000000000000009
694997,14207,-8284,129793,-26500,-10032,131414,203,19365,831,1,48873,0.0010000000000000009
695997,11203,7059,135996,18960,8906,125494,150,19362,614,1,48874,0.0010000000000000009
696997,337,-56,128670,-193,-11768,139748,163,19362,614,1,48875,0.0010000000000000009
697997,351,-11784,131374,-30673,-7694,128202,165,19348,668,0,48876,0.0010000000000000009
698997,-1193,10592,133166,-1161,6027,127812,165,19362,676,0,48877,0.0010000000000000009
699997,7495,5178,127367,8958,4574,127718,145,19361,594,0,48878,0.0010000000000000009
700997,6391,14949,133211,-23640,10207,118371,177,19356,725,1,48879,0.0010000000000000009
701997,6455,-4474,127449,5241,-12975,141783,144,19366,590,1,48880,0.0010000000000000009
702997,4618,-12438,128579,6401,-10350,129088,161,19366,590,1,48881,0.0010000000000000009
703997,-2236,9735,134968,-17948,7638,125982,199,19359,659,0,48882,0.0010000000000000009
704999,1099,-1711,127163,-13100,-6119,133357,199,19343,815,0,48883,0.0010019999999999474
705997,636,9372,129811,-1014,8538,122192,157,19357,643,0,48884,0.0009980000000000544
706997,2565,4426,127480,-11575,127,121684,149,19354,610,0,48885,0.0010000000000000009
707997,5900,7658,124645,-7587,3997,123984,237,19360,971,1,48886,0.0010000000000000009
708999,-1227,-448,128100,7012,-5955,131617,156,19360,639,1,48887,0.0010019999999999474
709997,6910,2676,126238,-9501,73,124742,164,19358,639,1,48888,0.0009980000000000544
710997,3846,4113,129398,-10400,8896,126343,164,19352,672,0,48889,0.0010000000000000009
711999,9297,11543,124923,2183,-1633,125502,145,19358,594,0,48890,0.0010019999999999474
712997,368,337,124045,2620,4288,121233,152,19367,623,0,48891,0.0009980000000000544
713999,8385,4957,123433,-11660,-3014,126574,165,19341,676,1,48892,0.0010019999999999474
714999,3342,3526,124871,-485,7130,121136,209,19341,856,1,48893,0.0010000000000000009
715999,7446,6560,124575,-391,265,126243,151,19359,856,1,48894,0.0010000000000000009
716997,7173,4314,125944,-2489,3120,123342,188,19359,618,0,48895,0.0009980000000000544
717997,7193,3329,122438,5037,-7417,129016,188,19356,770,0,48896,0.0010000000000000009
718997,11695,-1164,125015,2867,4857,120518,155,19361,635,0,48897,0.0010000000000000009
719997,10359,9619,125107,1495,3012,123548,143,19359,586,1,48898,0.0010000000000000009
720997,12441,3348,125459,5341,4918,121029,137,19359,561,1,48899,0.0010000000000000009
721997,10901,4409,125023,-2313,-5055,128037,157,19363,561,1,48900,0.0010000000000000009
722997,6971,-3457,127270,3072,-1692,127483,156,19364,643,1,48901,0.0010000000000000009
723997,6149,-335,125420,3032,-2145,127206,156,19357,639,0,48902,0.0010000000000000009
724997,10060,3453,128138,1387,5478,125645,196,19361,803,0,48903,0.0010000000000000009
725997,14588,9486,126797,3616,3533,123254,147,19366,602,0,48904,0.0010000000000000009
726997,13096,1779,126807,2674,-1722,125404,159,19347,651,1,48905,0.0010000000000000009
727999,9854,16,127640,4130,-8202,128159,120,19347,651,1,48906,0.0010019999999999474
728997,8885,-7245,127523,1304,-10817,132933,151,19358,491,1,48907,0.0009980000000000544
729997,4768,-3284,130433,-3956,685,128851,151,19361,618,0,48908,0.0010000000000000009
730997,6132,8937,130064,-2368,5759,125263,174,19357,713,0,48909,0.0010000000000000009
731997,9864,5109,129521,-864,4767,123222,152,19365,623,0,48910,0.0010000000000000009
732997,12098,6537,128246,13050,-4302,133398,141,19365,577,0,48911,0.0010000000000000009
733997,5052,-9798,128993,-15526,-7963,128117,202,19365,577,1,48912,0.0010000000000000009
734997,15194,-1818,134835,-204,-1488,128321,145,19360,827,1,48913,0.0010000000000000009
735997,-1620,2333,132115,17875,-2559,137239,145,19361,594,1,48914,0.0010000000000000009
736997,4420,-6327,129914,-22291,-10597,129997,154,19355,631,0,48915,0.0010000000000000009
737997,-5414,-1874,133353,-17565,1836,128446,208,19358,852,0,48916,0.0010000000000000009
738997,8297,13917,128962,11473,9872,125559,153,19359,627,0,48917,0.0010000000000000009
739997,3721,5226,131211,-13558,2490,124296,160,19359,627,1,48918,0.0010000000000000009
740997,9303,6634,131434,-8800,-1895,130705,126,19353,655,1,48919,0.0010000000000000009
741998,5344,-16334,125632,6865,-20023,138407,126,19364,516,1,48920,0.0010009999999999186
742997,1144,4486,135196,-10243,10257,121580,157,19355,643,1,48921,0.0009990000000000832
743997,-1149,4482,128651,-14269,-6297,135412,175,19340,717,0,48922,0.0010000000000000009
744997,414,2592,129801,-7045,6381,121912,172,19359,704,0,48923,0.0010000000000000009
745997,-1582,9616,128722,-8849,1982,131088,150,19359,704,0,48924,0.0010000000000000009
746999,8183,7258,126219,-7070,5635,121178,203,19360,614,1,48925,0.0010019999999999474
747997,-700,-309,125180,3722,-7527,128237,203,19340,831,1,48926,0.0009979999999999434
748997,2475,3201,128105,-11649,1933,126151,145,19358,594,1,48927,0.0010000000000000009
749997,7087,-16,127541,-8411,-2775,128345,156,19354,639,0,48928,0.0010000000000000009
750997,4822,11485,127973,2013,8907,125106,164,19359,672,0,48929,0.0010000000000000009
751997,5721,1555,124102,-5490,-3507,124706,160,19359,672,0,48930,0.0010000000000000009
752997,4308,9458,126557,-8990,9409,119864,156,19361,655,0,48931,0.0010000000000000009
753997,8271,-2484,123076,7061,-7438,123737,156,19351,639,1,48932,0.0010000000000000009
754997,2345,8449,125376,-7261,8038,123050,262,19357,1073,1,48933,0.0010000000000000009
755998,9255,1909,125709,-6659,-1174,125247,153,19359,627,1,48934,0.0010010000000000296
756997,7502,7643,124072,4444,4521,125826,166,19346,680,0,48935,0.0009989999999999721
757997,9443,-2611,123621,3484,1510,124340,149,19346,610,0,48936,0.0010000000000000009
758997,11195,7320,125596,-1354,3910,121396,149,19363,610,0,48937,0.0010000000000000009
759997,11859,3730,124420,3983,1212,125258,177,19360,610,1,48938,0.0010000000000000009
760997,9548,5866,126169,5277,2375,122420,177,19372,725,1,48939,0.0010000000000000009
761997,8803,-537,125189,-3018,-5417,128982,151,19358,618,1,48940,0.0010000000000000009
762998,7374,2020,125881,4791,-893,125621,151,19358,618,1,48941,0.0010010000000000296
763997,8756,-1052,126826,1552,943,127213,193,19358,790,0,48942,0.0009989999999999721
764997,9169,6872,128046,1860,5343,123787,148,19354,790,0,48943,0.0010000000000000009
765997,16724,5947,126480,2652,150,125333,146,19367,606,0,48944,0.0010000000000000009
766997,11036,2983,127870,2955,-2163,125234,146,19353,598,1,48945,0.0010000000000000009
767999,7772,-5183,126619,4902,-11714,131508,160,19364,655,1,48946,0.0010020000000000584
768997,7450,-8203,128248,-1185,-7881,131583,153,19362,627,1,48947,0.0009979999999999434
769997,6727,1330,131138,-2233,5795,126820,163,19362,668,0,48948,0.0010000000000000009
770997,5374,10682,130813,-4124,8491,124300,137,19351,668,0,48949,0.0010000000000000009
771997,10728,6996,128938,4140,-306,127347,139,19363,561,0,48950,0.0010000000000000009
772997,10600,2,129152,13362,-3240,129591,139,19367,569,0,48951,0.0010000000000000009
773997,6198,-5578,128399,-25983,-14346,133325,173,19336,709,1,48952,0.0010000000000000009
774997,14941,-7615,137193,12590,5767,124781,129,19363,528,1,48953,0.0010000000000000009
775997,187,10808,131110,12120,-3641,138516,156,19356,639,1,48954,0.0010000000000000009
776997,4321,-12634,129550,-32649,-10781,129265,199,19356,639,0,48955,0.0010000000000000009
777997,-5691,6462,133494,-6896,6483,124919,152,19354,815,0,48956,0.0010000000000000009
778997,6701,3833,126088,16594,-374,133530,152,19365,623,0,48957,0.0010000000000000009
779998,4342,10225,132116,-23598,10820,114695,145,19354,594,1,48958,0.0010010000000000296
780997,6997,5771,131329,-3622,-8629,140490,181,19362,741,1,48959,0.0009989999999999721
781997,5991,-14462,125695,12830,-12718,131777,157,19360,643,1,48960,0.0010000000000000009
782997,1,4149,135644,-17177,7510,124546,168,19360,643,1,48961,0.0010000000000000009
783997,-1995,4187,128678,-15136,-4577,134415,223,19351,688,0,48962,0.0010000000000000009
784997,2660,2374,129215,622,6524,121327,223,19360,913,0,48963,0.0010000000000000009
785999,-1084,8693,129303,-11510,2396,132328,150,19362,614,0,48964,0.0010020000000000584
786997,8244,6330,124675,-8027,2370,119122,173,19338,709,1,48965,0.0009979999999999434
787999,-2118,1363,124990,5300,-4440,128243,169,19355,692,1,48966,0.0010020000000000584
788997,4228,1100,126816,-9271,-865,128143,156,19355,692,1,48967,0.0009979999999999434
789997,6338,2318,128662,-12568,2897,124491,186,19357,639,0,48968,0.0010000000000000009
790998,5831,9994,128006,5263,6499,128753,186,19363,762,0,48969,0.0010010000000000296
791999,4250,636,124258,359,-1053,122708,163,19361,668,0,48970,0.0010010000000000296
792998,4552,7422,125658,-13515,4739,122572,148,19358,606,0,48971,0.0009989999999999721
793999,7545,-813,124354,4910,-1022,126111,211,19341,864,1,48972,0.0010010000000000296
794997,1576,7750,124257,-2829,3409,122643,149,19341,864,1,48973,0.0009979999999999434
795997,9956,2653,126048,-4294,2376,124764,157,19359,610,1,48974,0.0010000000000000009
796997,5966,9228,123422,2313,2721,123494,157,19351,643,0,48975,0.0010000000000000009
797998,10136,-3172,124799,6751,-4622,127946,176,19360,721,0,48976,0.0010010000000000296
798997,11064,7809,125712,-2590,5273,120071,154,19362,631,0,48977,0.0009989999999999721
799997,12686,2962,124444,6386,540,122842,157,19366,643,1,48978,0.0010000000000000009
800997,9353,6574,124792,3383,5552,124338,133,19366,643,1,48979,0.0010000000000000009
801997,7277,-2810,126654,-1470,-5446,127590,154,19359,545,1,48980,0.0010000000000000009
802997,7082,1395,124700,4733,-1606,128120,154,19360,631,1,48981,0.0010000000000000009
803997,9576,105,127828,-126,-153,125135,175,19346,717,0,48982,0.0010000000000000009
804998,10102,8672,127273,4476,3853,124148,148,19361,606,0,48983,0.0010010000000000296
805998,16221,4802,125633,3829,-541,124279,144,19361,590,0,48984,0.0010000000000000009
806997,9994,1682,127597,1320,-6791,128588,206,19361,844,1,48985,0.0009989999999999721
807997,8513,-4974,128013,4724,-8133,130498,147,19370,844,1,48986,0.0010000000000000009
808998,4864,-4291,129547,-4018,-3576,131206,152,19364,602,1,48987,0.0010010000000000296
809999,7694,3475,130597,-732,4239,126567,152,19356,623,0,48988,0.0010009999999999186
810997,2910,4966,128504,-2119,1183,125021,168,19365,688,0,48989,0.0009980000000000544
811997,12868,7558,130666,9074,5057,126899,150,19363,614,0,48990,0.0010000000000000009
812997,6566,-2081,127853,-833,-7820,131284,153,19363,627,0,48991,0.0010000000000000009
813997,14966,-2532,131724,-20093,-3224,126359,182,19355,627,1,48992,0.0010000000000000009
814997,7992,105,133647,20463,-3487,135611,159,19359,745,1,48993,0.0010000000000000009
815999,2933,-2632,128802,-9805,-11206,133690,159,19362,651,1,48994,0.0010019999999999474
816997,-459,-7384,130585,-25496,-7524,131767,178,19340,729,0,48995,0.0009980000000000544
817999,-73,8579,132397,5496,13557,122232,150,19361,614,0,48996,0.0010019999999999474
818997,5615,12764,126812,-1126,2605,128538,148,19359,606,0,48997,0.0009980000000000544
819997,6320,7037,133256,-14946,4994,122786,198,19359,606,1,48998,0.0010000000000000009
820999,2194,-3024,127142,5527,-18716,141566,153,19362,811,1,48999,0.0010019999999999474
821997,3825,-13645,130478,-842,1179,124797,153,19357,627,1,49000,0.0009980000000000544
822997,-1402,14206,133617,-16400,2702,129676,157,19355,643,1,49001,0.0010000000000000009
823997,2174,-4861,127595,-7190,-2181,129767,212,19351,868,0,49002,0.0010000000000000009
825000,-691,10611,129336,-10236,6530,123876,155,19360,635,0,49003,0.0010029999999999761
825997,5039,4968,128969,-10762,4831,126362,157,19360,635,0,49004,0.0009970000000000256
826997,7012,7357,123988,4035,-2604,124173,230,19349,643,1,49005,0.0010000000000000009
827997,-3496,-4921,127724,-3414,-3101,128835,230,19358,942,1,49006,0.0010000000000000009
828997,6165,3331,126092,-15483,-2071,127323,164,19358,672,1,49007,0.0010000000000000009
829997,4033,3785,129629,4792,8047,124910,171,19355,700,0,49008,0.0010000000000000009
830997,6166,8789,124305,-1736,674,126378,154,19356,631,0,49009,0.0010000000000000009
831997,2865,707,126100,-9431,4975,119498,152,19356,631,0,49010,0.0010000000000000009
832997,8224,9589,126720,193,-1717,128060,184,19358,623,0,49011,0.0010000000000000009
834003,4335,-985,125349,2278,4338,121742,184,19331,754,1,49012,0.0010059999999999514
834997,2811,7051,125588,-9897,58,125114,187,19352,766,1,49013,0.0009940000000000504
835998,8150,3689,125659,3118,3782,125223,154,19355,631,1,49014,0.0010009999999999186
836997,8722,3353,122336,4101,-3375,126030,198,19359,811,0,49015,0.0009990000000000832
837999,11564,1755,123518,624,4293,122643,156,19359,811,0,49016,0.0010019999999999474
838997,10378,9350,125759,624,2792,122292,149,19361,639,0,49017,0.0009980000000000544
839997,13080,1095,124414,7350,1229,124942,149,19353,610,1,49018,0.0010000000000000009
841000,10670,4159,124147,-1233,-793,124570,109,19363,446,1,49019,0.0010029999999999761
841997,5722,-3023,125381,1218,-2606,127646,150,19366,614,1,49020,0.0009970000000000256
842997,9151,2727,126004,3959,-977,125649,157,19350,643,0,49021,0.0010000000000000009
843997,9618,1765,126615,1651,1246,127502,161,19350,643,0,49022,0.0010000000000000009
844997,13071,7162,127684,2091,3328,124040,140,19364,659,0,49023,0.0010000000000000009
845998,13856,3398,126673,1328,1459,124510,140,19361,573,1,49024,0.0010009999999999186
846997,9544,2409,128020,4375,-2566,129255,172,19356,704,1,49025,0.0009990000000000832
847997,10027,-6775,126051,2486,-11244,132502,134,19363,549,1,49026,0.0010000000000000009
848997,4746,-5188,128193,-3860,-6403,128359,146,19366,598,1,49027,0.0010000000000000009
849997,7957,8082,131333,308,7214,124377,190,19366,778,0,49028,0.0010000000000000009
850997,6122,7823,130594,-3455,5548,126382,152,19364,778,0,49029,0.0010000000000000009
851998,12486,-493,128595,1565,-4580,129869,144,19363,623,0,49030,0.0010009999999999186
852999,2493,-647,128796,16680,-4213,130010,144,19358,590,1,49031,0.0010010000000000296
853997,12713,-5728,127831,-27025,-6895,128557,218,19366,893,1,49032,0.0009980000000000544
854997,10485,5465,135335,6026,7981,129983,155,19358,635,1,49033,0.0010000000000000009
855997,853,1611,132761,-10504,-17979,139518,166,19358,680,1,49034,0.0010000000000000009
856997,975,-12860,127407,-30211,-300,123450,188,19346,680,0,49035,0.0010000000000000009
857997,-114,11347,134150,11761,2388,132885,151,19360,770,0,49036,0.0010000000000000009
858997,7338,3567,127823,-959,7242,122011,151,19359,618,0,49037,0.0010000000000000009
859997,6420,14281,130489,-24152,5231,124310,172,19350,704,1,49038,0.0010000000000000009
860998,5789,-3701,133062,10034,-15229,140811,136,19356,557,1,49039,0.0010009999999999186
861997,4795,-11325,125447,-1463,-3956,124839,153,19356,627,1,49040,0.0009990000000000832
862997,-2362,9546,134560,-19991,5430,129634,190,19358,627,0,49041,0.0010000000000000009
863997,283,-1544,130280,-9977,-3677,129279,156,19344,778,0,49042,0.0010000000000000009
864997,1752,9358,128645,1160,9237,125812,156,19360,639,0,49043,0.0010000000000000009
865999,2284,4465,128578,-15004,321,127309,152,19359,623,0,49044,0.0010019999999999474
866997,5310,8650,125979,-4688,2736,119175,230,19355,942,1,49045,0.0009979999999999434
868000,-434,-2203,127888,5448,-5922,133874,152,19359,623,1,49046,0.0010030000000000872
869006,6874,2890,126612,-14449,61,124920,158,19359,623,0,49047,0.0010059999999999514
869997,4010,2144,126674,-7351,6817,125142,137,19355,647,0,49048,0.0009909999999999641
870997,8810,13308,129674,5070,2735,125570,137,19359,561,0,49049,0.0010000000000000009
871997,29,-211,123192,-4602,1473,121864,155,19360,635,0,49050,0.0010000000000000009
872999,8613,5520,125532,-8649,-1135,125512,164,19346,672,1,49051,0.0010020000000000584
873997,3841,2204,124251,839,4773,122533,238,19357,975,1,49052,0.0009979999999999434
874997,8130,7160,125277,-430,613,124659,151,19357,975,1,49053,0.0010000000000000009
875997,7641,1868,125096,-2793,2239,124876,180,19359,618,0,49054,0.0010000000000000009
876997,7774,4585,125379,3275,-3795,126772,180,19354,737,0,49055,0.0010000000000000009
877997,10999,-777,123819,4446,1260,124128,155,19360,635,0,49056,0.0010000000000000009
878997,10199,9338,126212,-1558,5174,121596,145,19362,594,1,49057,0.0010000000000000009
879997,11341,2088,123778,6821,2058,123740,140,19367,573,1,49058,0.0010000000000000009
880997,11245,5789,124991,-1820,-1436,124216,153,19367,573,1,49059,0.0010000000000000009
881999,7779,-1992,126232,1383,-1756,127463,150,19363,627,1,49060,0.0010020000000000584
882997,7077,-1443,125158,5499,-3801,127904,150,19359,614,0,49061,0.0009979999999999434
883997,9604,3063,126866,537,3203,126175,193,19359,790,0,49062,0.0010000000000000009
884998,13935,7696,127946,2790,4853,123767,145,19366,594,0,49063,0.0010010000000000296
885997,12160,1973,125839,2174,-733,124833,156,19346,639,1,49064,0.0009989999999999721
886999,8672,623,128062,2626,-4349,127510,129,19346,639,1,49065,0.0010020000000000584
888005,9392,-8148,127720,2394,-10856,132614,157,19364,528,1,49066,0.0010059999999999514
888997,4511,-3229,128170,-2680,-2619,129530,157,19364,643,0,49067,0.0009919999999999929
889997,6576,6716,129875,-2395,4730,124775,176,19358,721,0,49068,0.0010000000000000009
890997,12205,10219,130383,-1989,7308,123533,152,19362,623,0,49069,0.0010000000000000009
891997,10252,783,128602,12563,-4318,132905,141,19363,577,0,49070,0.0010000000000000009
892997,6978,-3460,129147,-10749,-6001,126648,195,19363,799,1,49071,0.0010000000000000009
893998,10693,-7277,130524,-8172,-9072,132095,155,19353,799,1,49072,0.0010010000000000296
894997,2200,3063,133580,19316,194,135028,160,19361,635,1,49073,0.0009989999999999721
895997,1601,-6820,128764,-15120,-10824,129266,160,19351,655,0,49074,0.0010000000000000009
896997,-2039,5589,131457,-22855,5114,122681,218,19358,893,0,49075,0.0010000000000000009
897997,7377,11002,131742,8679,8214,131622,153,19361,627,0,49076,0.0010000000000000009
898997,3980,2444,128581,-3065,645,122997,156,19361,639,1,49077,0.0010000000000000009
899997,6652,1913,131908,-15174,-10334,137288,130,19348,639,1,49078,0.0010000000000000009
900997,6255,-11470,128751,2958,-2882,129018,157,19364,532,1,49079,0.0010000000000000009
901997,2632,6798,131060,-511,4526,127566,157,19361,643,1,49080,0.0010000000000000009
902998,-1535,779,131804,-16250,-3245,130920,174,19343,713,0,49081,0.0010010000000000296
903998,-666,5479,128328,-7751,6945,123022,191,19359,782,0,49082,0.0010000000000000009
904998,528,6569,128973,-5691,2564,129849,150,19359,614,0,49083,0.0010000000000000009
905997,7641,8106,128443,-663,417,123159,193,19359,614,1,49084,0.0009989999999999721
907000,-681,-2490,124893,-5128,-5247,127849,149,19342,790,1,49085,0.0010029999999999761
907997,3975,4474,127316,-9233,-531,127107,149,19357,610,1,49086,0.0009970000000000256
908997,6380,-347,126235,-530,4309,126192,161,19354,659,0,49087,0.0010000000000000009
909997,4846,10989,129322,-3480,4322,126553,163,19361,668,0,49088,0.0010000000000000009
910997,3707,1278,124462,-7423,2895,122088,159,19365,651,0,49089,0.0010000000000000009
911997,5354,9560,126680,-2246,2901,125459,149,19365,651,0,49090,0.0010000000000000009
912997,6793,-4252,122835,4858,-766,124851,250,19353,610,1,49091,0.0010000000000000009
913997,2308,10024,124993,-9876,3580,122012,250,19352,1024,1,49092,0.0010000000000000009
914997,9388,988,124443,775,2153,125340,152,19358,623,1,49093,0.0010000000000000009
915997,9250,8223,125199,5167,369,124659,167,19351,684,0,49094,0.0010000000000000009
916997,8538,-1003,123122,2592,-642,125398,149,19356,610,0,49095,0.0010000000000000009
917999,10586,7130,125778,-2122,4082,120824,148,19356,610,0,49096,0.0010020000000000584
918999,10781,1803,124278,7014,-713,127488,173,19366,606,1,49097,0.0010000000000000009
919997,9691,4605,125463,2811,4032,121278,173,19370,709,1,49098,0.0009979999999999434
920997,8202,-205,124060,703,-3681,127649,147,19363,602,1,49099,0.0010000000000000009
921999,8574,2722,126638,2743,26,125475,151,19359,618,1,49100,0.0010020000000000584
922999,9965,-1256,124990,2285,388,126666,195,19353,799,0,49101,0.0009999999999998899
923999,8995,6264,127894,3390,4250,126353,149,19353,799,0,49102,0.0010000000000000009
924997,16177,4526,126587,4021,1483,123434,145,19367,610,0,49103,0.0009980000000000544
925997,8563,3225,127309,218,-2409,125577,145,19355,594,1,49104,0.0010000000000000009
926997,9603,-5775,127320,2729,-10190,130398,161,19363,659,1,49105,0.0010000000000000009
928004,6797,-4312,128962,5957,-6697,130990,150,19362,614,1,49106,0.0010069999999999801
928997,6164,1492,130219,-5799,1893,128272,160,19352,655,0,49107,0.0009930000000000216
929997,4521,8303,130226,-6694,5738,123766,136,19352,655,0,49108,0.0010000000000000009
930997,9773,2894,127920,6830,63,128313,144,19363,557,0,49109,0.0010000000000000009
931997,11131,2956,128498,11192,-215,128541,144,19364,590,0,49110,0.0010000000000000009
932997,7168,-4513,128030,-21422,-8907,130865,170,19339,696,1,49111,0.0010000000000000009
933997,13446,-2699,132496,6104,578,127335,127,19365,520,1,49112,0.0010000000000000009
934997,-221,872,132613,18147,-6818,139480,152,19358,623,1,49113,0.0010000000000000009
935997,3641,-10982,128424,-27362,-11670,130558,192,19358,623,0,49114,0.0010000000000000009
936997,-3924,5549,132148,-15108,4673,124844,155,19353,786,0,49115,0.0010000000000000009
937997,7225,10134,131091,17499,7093,130283,155,19364,635,0,49116,0.0010000000000000009
938997,5628,10164,129075,-18585,6926,119173,151,19357,618,1,49117,0.0010000000000000009
939997,5886,526,132445,-10025,-6286,135086,176,19366,721,1,49118,0.0010000000000000009
940997,4755,-14978,126031,12955,-16641,127722,164,19359,672,1,49119,0.0010000000000000009
941997,-1506,6429,132301,-13902,7180,126895,167,19359,684,1,49120,0.0010000000000000009
942997,-668,3220,132478,-18069,-2169,131309,232,19355,684,0,49121,0.0010000000000000009
943997,906,5560,128074,-1958,6129,123854,152,19362,950,0,49122,0.0010000000000000009
944997,418,7044,128928,-7326,148,128688,152,19362,623,0,49123,0.0010000000000000009
945997,6605,5496,127465,-11204,1480,119759,175,19339,717,1,49124,0.0010000000000000009
946997,-806,-181,125145,1914,-5258,132267,158,19357,647,1,49125,0.0010000000000000009
947997,4647,-154,128737,-849,157,126464,156,19357,639,1,49126,0.0010000000000000009
948997,2715,3573,126222,-15806,6377,123869,183,19358,639,0,49127,0.0010000000000000009
949997,6274,11538,129354,2840,5731,125399,158,19364,750,0,49128,0.0010000000000000009
950997,4968,861,123565,3048,-1184,123597,158,19359,647,0,49129,0.0010000000000000009
951997,4036,5417,125163,-11863,-720,125107,145,19358,594,0,49130,0.0010000000000000009
952997,8141,-942,123574,-86,4684,121685,212,19337,868,1,49131,0.0010000000000000009
953997,1132,9365,125550,511,2402,125482,151,19337,618,1,49132,0.0010000000000000009
954997,11955,2174,124886,-2512,2245,124994,157,19360,618,1,49133,0.0010000000000000009
955997,4161,4699,125246,1457,-2229,125674,172,19346,643,0,49134,0.0010000000000000009
956997,11280,-385,122046,3848,1040,124683,172,19358,704,0,49135,0.0010000000000000009
957997,9095,8186,125594,-2012,6336,120625,149,19364,610,0,49136,0.0010000000000000009
958997,14044,4492,124923,7759,850,125448,152,19366,623,1,49137,0.0010000000000000009
959997,9230,3724,125226,330,-723,122457,132,19366,541,1,49138,0.0010000000000000009
960997,6749,-2750,125127,-3259,-3447,128651,156,19366,541,1,49139,0.0010000000000000009
961997,9044,1149,126677,8410,-2393,126997,174,19361,639,1,49140,0.0010000000000000009
962997,8153,3187,126250,748,1193,127029,174,19347,713,0,49141,0.0010000000000000009
963997,11569,5893,128206,-264,4944,123117,148,19365,606,0,49142,0.0010000000000000009
964998,14314,5889,126675,3067,261,124339,140,19360,573,0,49143,0.0010009999999999186
965997,12208,363,127331,4275,-4868,128144,201,19368,823,1,49144,0.0009990000000000832
966998,7717,-2657,127418,2040,-8024,129925,146,19368,823,1,49145,0.0010009999999999186
967997,3628,-6975,128078,-1938,-7508,133617,152,19364,598,1,49146,0.0009990000000000832
968997,8223,4896,130458,-558,6318,124383,152,19356,623,0,49147,0.0010000000000000009
969997,5855,7809,130128,-3043,4233,126196,165,19360,676,0,49148,0.0010000000000000009
970997,12054,6805,129851,5950,4691,125847,149,19367,610,0,49149,0.0010000000000000009
971998,4914,-2511,128478,8202,-8653,132786,151,19349,618,1,49150,0.0010009999999999186
972997,13543,-5955,129363,-25627,-6975,128334,180,19349,618,1,49151,0.0009990000000000832
973997,8032,2687,135524,15574,956,130046,149,19362,737,1,49152,0.0010000000000000009
974998,2932,-640,131838,225,-7729,136729,149,19360,610,1,49153,0.0010009999999999186
975997,-82,-7394,129652,-25864,-8575,129757,173,19346,709,0,49154,0.0009990000000000832
976997,-18,10524,132708,-3779,9803,124198,150,19366,614,0,49155,0.0010000000000000009
977997,6597,9688,128703,7890,3561,129240,148,19358,606,0,49156,0.0010000000000000009
978997,5216,7108,130957,-16778,4619,121567,195,19358,606,1,49157,0.0010000000000000009
979997,2812,-5180,131305,-807,-12554,140156,147,19361,799,1,49158,0.0010000000000000009
980997,4291,-10498,126587,4433,-6109,128872,147,19362,602,1,49159,0.0010000000000000009
981999,-394,12708,134612,-12960,8155,125643,155,19354,635,1,49160,0.0010019999999999474
982999,1099,-3695,128805,-12181,-5994,132968,211,19349,864,0,49161,0.0010000000000000009
983999,431,11323,129566,-7416,9570,120785,159,19363,651,0,49162,0.0010000000000000009
984997,4799,3536,128534,-8606,46,131955,159,19363,651,0,49163,0.0009979999999999434
985998,6226,6415,126293,-437,2153,120544,237,19350,651,1,49164,0.0010010000000000296
986997,-3043,-3067,125246,-977,-7373,130165,156,19360,971,1,49165,0.0009989999999999721
987997,7273,4348,127500,-13636,940,127010,156,19356,639,1,49166,0.0010000000000000009
988997,3558,4117,127539,1856,3747,125663,168,19355,688,0,49167,0.0010000000000000009
989997,8134,8286,127793,-794,5339,124321,154,19360,631,0,49168,0.0010000000000000009
990997,1365,2281,124283,-7846,1822,119908,151,19360,618,0,49169,0.0010000000000000009
991997,9479,7352,126773,-2644,-6940,130803,181,19362,618,0,49170,0.0010000000000000009
992998,2192,-792,123579,4955,6428,119367,189,19333,741,1,49171,0.0010010000000000296
993997,4549,6178,125265,-10629,-777,126621,189,19360,774,1,49172,0.0009989999999999721
994997,7583,4562,125422,1932,5803,122517,151,19360,618,0,49173,0.0010000000000000009
995997,9517,3405,123701,4505,-6383,128197,201,19367,823,0,49174,0.0010000000000000009
996997,10245,2168,124065,-1680,5735,120529,156,19367,639,0,49175,0.0010000000000000009
997997,11030,7719,125640,4093,-68,125739,148,19361,639,0,49176,0.0010000000000000009
998997,11500,2081,124373,5161,4020,121555,118,19357,606,1,49177,0.0010000000000000009
999997,11802,4863,126174,-2821,-4418,126542,118,19365,483,1,49178,0.0010000000000000009
1000997,5204,-3421,125377,2601,-507,126240,154,19363,631,1,49179,0.0010000000000000009
1001997,8869,1093,125499,3383,-2454,127280,159,19348,651,0,49180,0.001000000000000112
1003000,9672,3983,128544,2317,6530,125173,171,19362,700,0,49181,0.0010029999999998651
1004002,13176,8462,127894,1599,2357,125608,141,19362,700,0,49182,0.0010020000000001694
1004999,12814,705,125705,5783,-239,123536,169,19361,577,1,49183,0.0009969999999999146
1005999,9224,2241,128411,428,-8289,129569,169,19356,692,1,49184,0.0009999999999998899
1006997,10667,-9454,126053,1787,-9732,131377,141,19360,577,1,49185,0.0009980000000000544
1007997,3083,337,129344,-3081,1276,128900,155,19360,635,1,49186,0.001000000000000112
1008998,8221,6624,130933,-3208,4551,126813,191,19367,782,0,49187,0.0010010000000000296
1009997,5622,7171,130509,-3820,3181,124307,151,19367,782,0,49188,0.0009989999999999721
1010997,13790,-1324,128634,10434,-4395,131340,141,19362,618,0,49189,0.0009999999999998899
1011997,2416,-291,128866,2223,-1730,127288,141,19359,577,1,49190,0.001000000000000112
1012997,16973,-6062,128813,-25219,-9205,131138,221,19366,905,1,49191,0.0009999999999998899
1013997,8051,6794,136825,24889,7741,128440,147,19361,602,1,49192,0.001000000000000112
1014997,696,-2087,131604,-6622,-15522,139172,163,19353,668,0,49193,0.0009999999999998899
1015998,-3429,-9084,128980,-34285,-3985,126391,183,19353,668,0,49194,0.0010010000000000296
1016997,1470,11704,134143,7610,5837,128846,148,19360,750,0,49195,0.0009989999999999721
1017997,6258,5842,127441,4099,5631,126059,148,19362,606,0,49196,0.001000000000000112
1018997,7970,13617,131276,-25647,7164,120119,167,19351,684,1,49197,0.0009999999999998899
1019997,6618,-7272,131992,10390,-15534,142173,133,19362,545,1,49198,0.001000000000000112
1020998,4572,-11777,124829,2339,-7875,127049,158,19359,647,1,49199,0.0010009999999998076
1021997,-2980,10564,135482,-21409,6615,127667,190,19359,647,0,49200,0.0009990000000001942
1022997,2010,-1751,129236,-11846,-3751,131117,149,19334,778,0,49201,0.0009999999999998899
1023997,-583,11950,128931,210,8595,123702,149,19361,610,0,49202,0.001000000000000112
1024997,4155,2988,127908,-13574,168,129289,148,19363,606,0,49203,0.0009999999999998899
1025999,5192,7605,125273,-7055,2569,117395,220,19351,901,1,49204,0.0010019999999999474
1026997,1002,-1615,124245,8845,-5307,133119,156,19360,639,1,49205,0.0009980000000000544
1027997,7617,3895,127721,-11225,614,126079,161,19360,659,0,49206,0.001000000000000112
1028997,3260,1504,126767,-9287,2128,126379,145,19348,659,0,49207,0.0009999999999998899
1029997,9047,14083,129939,-2047,8405,122818,158,19360,594,0,49208,0.001000000000000112
1030997,1834,-2870,122666,4177,-4263,125741,158,19359,647,0,49209,0.0009999999999998899
1031997,6702,4928,125252,-6783,1054,123814,159,19348,651,1,49210,0.001000000000000112
1032997,3892,3282,123457,-5329,3078,122634,256,19358,1049,1,49211,0.0009999999999998899
1033997,7038,9763,125804,182,6467,124938,161,19358,659,1,49212,0.001000000000000112
1035000,11050,4149,125655,-2191,943,126169,179,19356,659,0,49213,0.0010029999999998651
1035998,4992,1672,125219,6031,-2524,128359,155,19353,733,0,49214,0.0009980000000000544
1036997,13898,-4363,123383,2368,-5012,120642,155,19362,635,0,49215,0.0009989999999999721
1037997,8181,10555,126386,-4937,8641,122756,147,19359,602,1,49216,0.001000000000000112
1038997,13848,5132,124929,9423,4119,123402,154,19363,631,1,49217,0.0009999999999998899
1039997,7537,3375,124312,1730,-3877,126965,162,19363,664,1,49218,0.001000000000000112
1041016,8210,-1887,126444,239,-3136,128349,153,19358,664,1,49219,0.0010189999999998811
1041997,8209,-783,125356,9319,1339,124953,212,19356,627,0,49220,0.0009810000000001207
1042997,8355,5178,126983,2638,2560,127752,212,19359,868,0,49221,0.0009999999999998899
1044000,16474,5307,127331,-921,3279,121602,148,19367,606,0,49222,0.0010030000000000872
1045000,11737,3490,126480,4513,-3308,127535,155,19348,635,1,49223,0.0009999999999998899
1045997,11058,-2388,127766,6653,-5466,127959,138,19359,565,1,49224,0.0009969999999999146
1046997,6220,-4115,128727,-1499,-10565,132720,155,19359,565,1,49225,0.001000000000000112
1047997,4514,-5051,129086,-4462,1466,128700,164,19359,635,0,49226,0.0009999999999998899
1048997,5527,7375,129696,387,3428,125539,164,19359,672,0,49227,0.001000000000000112
1049997,13347,6278,129240,2663,10298,122733,146,19363,598,0,49228,0.0009999999999998899
1050997,10851,5516,128973,10050,-7205,133656,141,19361,577,0,49229,0.001000000000000112
1051999,8224,-6560,127442,-20331,-6014,125443,193,19353,790,1,49230,0.0010019999999999474
1052999,11802,-4077,131585,12517,-2855,132869,141,19353,790,1,49231,0.001000000000000112
1053997,1437,490,133511,5817,-6651,135778,148,19365,577,1,49232,0.0009979999999998324
1054997,1811,-6987,128936,-24298,-8343,130312,148,19360,606,0,49233,0.001000000000000112
1055998,-4256,2657,131884,-9096,6614,124806,212,19363,868,0,49234,0.0010010000000000296
1056997,6952,13661,131651,9409,6333,128616,153,19359,627,0,49235,0.0009989999999999721
1057998,5306,4661,128922,-15922,3832,121954,153,19354,627,1,49236,0.0010010000000000296
1058997,5970,4214,132535,-4569,-7995,135145,140,19354,627,1,49237,0.0009989999999999721
1059997,6397,-16064,126381,5954,-12605,133575,156,19366,573,1,49238,0.0009999999999998899
1060997,746,9625,132696,-12417,8846,124308,156,19359,639,1,49239,0.001000000000000112
1061997,-514,-2993,130658,-11730,-8114,135305,170,19346,696,0,49240,0.0009999999999998899
1062997,-1492,9196,128656,-9691,10853,119455,197,19362,807,0,49241,0.001000000000000112
1063997,859,5743,128855,-9785,1099,131952,149,19359,610,0,49242,0.0009999999999998899
1064997,7662,9165,128054,-1338,4023,121140,190,19359,610,1,49243,0.001000000000000112
1065998,-1271,-4738,124221,-90,-7948,129915,148,19338,778,1,49244,0.0010010000000000296
1066999,5026,5942,128559,-14078,1573,125489,148,19359,606,1,49245,0.0010010000000000296
1067999,5101,-1274,125810,-1468,-225,128102,160,19352,655,0,49246,0.0009999999999998899
1068997,5633,11803,129484,-970,6155,126124,164,19359,672,0,49247,0.0009980000000000544
1069997,3518,-71,123441,-7507,-1579,123605,160,19359,655,0,49248,0.0009999999999998899
1070997,5348,12573,127534,-5508,7902,121556,150,19359,655,0,49249,0.001000000000000112
1071997,6853,-5305,122249,6869,-5272,128906,238,19357,614,1,49250,0.0009999999999998899
1072997,2377,10278,125817,-11554,5108,120042,238,19350,975,1,49251,0.001000000000000112
1073997,8987,937,124572,-174,1481,126706,152,19361,623,1,49252,0.0009999999999998899
1074997,9308,7882,124977,4128,1765,123732,163,19345,668,0,49253,0.001000000000000112
1075997,8443,-1052,122731,3386,-3470,126273,141,19359,577,0,49254,0.0009999999999998899
1076997,11489,8283,126046,-2006,5605,120190,149,19359,610,0,49255,0.001000000000000112
1077997,10820,1262,123912,6663,-1742,127333,169,19364,610,1,49256,0.0009999999999998899
1078997,8775,6050,126096,2106,4624,121055,142,19372,692,1,49257,0.001000000000000112
1079997,7157,-1414,124322,-318,-4646,127643,142,19363,582,1,49258,0.0009999999999998899
1080997,8125,3454,126384,3240,985,127333,150,19363,614,1,49259,0.001000000000000112
1081997,9392,-354,125195,3130,-1979,125830,191,19356,782,0,49260,0.0009999999999998899
1082998,10080,7026,128062,1618,5716,125295,154,19356,631,0,49261,0.0010010000000000296
1083997,16027,4201,126219,3820,1498,123137,143,19361,631,0,49262,0.0009989999999999721
1084997,8724,4169,127721,3946,542,128314,162,19357,586,1,49263,0.001000000000000112
1085997,9658,-7335,126668,-452,-9047,130714,162,19369,664,1,49264,0.0009999999999998899
1086997,5056,-3883,128326,5047,-4236,131194,148,19363,606,1,49265,0.001000000000000112
1087997,7949,2613,130513,-3336,5276,125832,159,19353,651,0,49266,0.0009999999999998899
1088998,4320,7896,130092,-5675,4432,125688,145,19365,594,0,49267,0.0010010000000000296
1089997,10851,3752,128624,10737,359,128761,145,19365,594,0,49268,0.0009989999999999721
1090997,9437,251,127828,5060,-2575,127613,167,19367,594,0,49269,0.001000000000000112
1091997,9025,-3077,128548,-26530,-8430,131283,167,19340,684,1,49270,0.0009999999999998899
1092997,13765,-2693,132951,19265,3329,128155,123,19362,504,1,49271,0.001000000000000112
1093997,182,1797,132375,1472,-11283,138997,152,19360,623,1,49272,0.0009999999999998899
1094997,2639,-11205,128433,-33269,-6300,128427,191,19352,782,0,49273,0.001000000000000112
1095997,-3164,8226,132570,774,8462,124360,153,19352,782,0,49274,0.0009999999999998899
1097023,6096,9309,130191,10286,4034,130252,146,19362,627,0,49275,0.0010259999999999714
1097998,6432,10690,129630,-24477,6575,118513,146,19357,598,1,49276,0.0009750000000001702
1098997,4191,-583,132279,4787,-12798,141244,182,19370,745,1,49277,0.0009989999999999721
1099997,4629,-13885,126060,8655,-9275,130178,156,19361,639,1,49278,0.0009999999999998899
1100997,-2665,6791,132760,-19495,6937,125314,164,19349,672,1,49279,0.001000000000000112
1101997,-909,2397,132269,-13958,-3019,132957,241,19349,672,0,49280,0.0009999999999998899
1102997,461,6745,128405,-838,8015,122458,155,19361,987,0,49281,0.001000000000000112
1103997,1435,6628,128904,-10633,1486,129756,155,19360,635,0,49282,0.0009999999999998899
1104997,7691,6854,127412,-6837,1366,119566,167,19339,684,1,49283,0.001000000000000112
1105997,-1483,-2635,124687,7266,-7053,130655,184,19357,754,1,49284,0.0009999999999998899
1106997,5388,147,128380,-10220,-967,127729,165,19358,676,1,49285,0.001000000000000112
1107997,3054,4122,126832,-11626,6555,123911,185,19358,676,0,49286,0.0009999999999998899
1108997,7338,11582,129023,4124,6720,126726,158,19361,758,0,49287,0.001000000000000112
1109997,3209,336,123340,1511,-847,123147,158,19358,647,0,49288,0.0009999999999998899
1110997,6304,5093,125387,-12070,-153,124061,147,19359,602,0,49289,0.001000000000000112
1111997,7163,751,124085,3082,3186,122726,208,19333,852,1,49290,0.0009999999999998899
1112997,2613,7406,124827,-725,1142,125565,160,19354,655,1,49291,0.001000000000000112
1113999,9431,4133,125616,-3579,4126,124048,159,19354,655,1,49292,0.0010019999999999474
1114997,5721,6018,125007,667,-1441,125866,174,19351,651,0,49293,0.0009980000000000544
1115997,11006,-191,122081,7615,-691,125524,174,19359,713,0,49294,0.0009999999999998899
1116997,10619,9039,125833,-2169,5016,119761,151,19358,618,0,49295,0.001000000000000112
1117997,13518,2235,124639,6921,560,125958,155,19366,635,1,49296,0.0009999999999998899
1118997,10513,5007,126228,1901,1977,122578,127,19365,520,1,49297,0.001000000000000112
1119997,6076,-2968,125561,-1199,-3507,128873,155,19365,635,1,49298,0.0009999999999998899
1120997,7985,2208,126363,5179,-1907,126734,166,19362,635,0,49299,0.001000000000000112
1121997,9627,2032,125929,73,1750,125935,141,19344,680,0,49300,0.0009999999999998899
1122997,11952,7519,128288,3041,4283,124673,141,19363,577,0,49301,0.001000000000000112
1123997,16333,3649,126718,3498,616,123544,139,19361,569,0,49302,0.0009999999999998899
1124997,10431,413,127210,3718,-3605,127415,196,19363,803,1,49303,0.001000000000000112
1125997,9378,-4227,127275,3249,-9295,130866,146,19363,598,1,49304,0.0009999999999998899
1126997,3403,-5300,127857,-766,-7623,132074,151,19365,598,1,49305,0.001000000000000112
1127997,7750,6985,131304,-2711,6018,124530,169,19361,618,0,49306,0.0009999999999998899
1128997,5556,6539,129617,-2802,3988,125310,169,19363,692,0,49307,0.001000000000000112
1129997,11608,5694,129935,4323,3881,130048,148,19368,606,0,49308,0.0009999999999998899
1130997,4597,-3269,128238,11911,-6700,130796,150,19351,614,1,49309,0.001000000000000112
1131997,16153,-3266,129422,-25242,-4952,126537,181,19351,741,1,49310,0.0009999999999998899
1132997,6102,5610,136345,12663,-308,135615,149,19364,741,1,49311,0.001000000000000112
1133997,3837,-3242,131148,6069,-13755,133292,173,19361,610,1,49312,0.0009999999999998899
1134998,-2426,-8122,129695,-25600,-4061,129950,173,19343,709,0,49313,0.0010010000000000296
1135997,2120,10001,133109,-7169,10052,125452,145,19364,594,0,49314,0.0009989999999999721
1136997,4654,8937,127902,-6060,5605,124901,147,19361,602,0,49315,0.001000000000000112
1137997,6723,9480,131865,-15602,3025,126134,189,19360,774,1,49316,0.0009999999999998899
1138998,2921,-5564,130564,7162,-18394,140044,144,19360,774,1,49317,0.0010010000000000296
1139997,4259,-10284,126395,-4703,2804,123899,155,19362,590,1,49318,0.0009989999999999721
1140999,-734,12376,135502,-16394,-886,131749,155,19356,635,1,49319,0.0010019999999999474
1141997,1546,-4822,128109,-7907,-579,126870,210,19344,860,0,49320,0.0009980000000000544
1142997,-472,12481,130339,-8427,6230,126892,162,19363,664,0,49321,0.001000000000000112
1143999,5443,3687,128409,-11441,3978,125022,156,19348,639,0,49322,0.0010019999999999474
1144997,4493,7823,125852,3170,-2450,124257,245,19348,639,1,49323,0.0009980000000000544
1145998,-2377,-3164,124908,-6004,-1524,128885,153,19363,1003,1,49324,0.0010009999999998076
1146998,8276,2996,127314,-12239,-1846,127097,153,19358,627,1,49325,0.001000000000000112
1147997,3941,4318,127992,3897,7861,125665,166,19356,680,0,49326,0.0009989999999999721
1148997,8048,8401,127944,-3703,-1220,125167,151,19358,618,0,49327,0.001000000000000112
1149997,1144,2755,124379,-9707,7615,119537,153,19361,627,0,49328,0.0009999999999998899
1150998,9706,7065,126332,3108,-5762,130014,179,19361,627,0,49329,0.0010010000000000296
1152000,2194,769,123654,-2066,5594,120363,202,19340,733,1,49330,0.0010019999999999474
1152997,6180,5427,125520,-8016,-917,126075,202,19358,827,1,49331,0.0009970000000001367
1153997,7368,4559,125465,4567,4880,123917,153,19356,627,0,49332,0.0009999999999998899
1154997,9886,2418,123722,3140,-4875,127149,199,19357,815,0,49333,0.001000000000000112
1155997,10223,2654,124553,-905,5128,121546,157,19363,643,0,49334,0.0009999999999998899
1156997,11111,8196,125417,1486,1555,123968,147,19363,643,1,49335,0.001000000000000112
1157999,11029,2519,124529,7289,3304,122883,122,19356,602,1,49336,0.0010019999999999474
1158999,12082,4079,125827,-4012,-3447,125252,122,19361,500,1,49337,0.0009999999999998899
1159997,5942,-2957,125654,2391,-1772,126653,154,19361,631,1,49338,0.0009980000000000544
1160997,8208,356,125147,4128,-3688,127474,156,19353,639,0,49339,0.001000000000000112
1161997,9415,4530,127443,1528,4826,125224,177,19360,725,0,49340,0.0009999999999998899
1162997,13901,8323,127376,1010,3933,124732,143,19360,725,0,49341,0.0009999999999998899
1163997,12089,2098,126052,3362,-187,124406,165,19365,586,1,49342,0.001000000000000112
1164997,8839,672,128086,2598,-5710,127294,165,19354,676,1,49343,0.0009999999999998899
1165997,10567,-9267,126400,1833,-11501,132252,134,19363,549,1,49344,0.001000000000000112
1166999,3683,-1026,129036,-4405,-1705,129031,151,19364,618,1,49345,0.0010019999999999474
1167997,8312,7879,131145,-1068,6361,126845,184,19362,754,0,49346,0.0009980000000000544
1168997,6743,8245,130571,-3153,5458,124327,152,19362,623,0,49347,0.0009999999999998899
1169997,13263,-326,128964,6580,-3185,130197,141,19362,623,0,49348,0.001000000000000112
1170997,1639,-329,129543,6449,-2262,127689,216,19361,577,1,49349,0.0009999999999998899
1171997,19025,-9012,128543,-26605,-12012,132474,216,19370,885,1,49350,0.001000000000000112
1172997,4290,9796,137199,21157,8755,126325,152,19362,623,1,49351,0.0009999999999998899
1173997,1347,-4237,130584,-2213,-11718,138629,161,19351,659,0,49352,0.001000000000000112
1174997,-5450,-5203,129729,-33173,-5926,122827,186,19351,762,0,49353,0.0009999999999998899
1175997,3096,10253,133693,1837,6222,134230,148,19363,762,0,49354,0.001000000000000112
1176997,4150,5643,126387,9035,3508,116660,161,19363,606,0,49355,0.0009999999999998899
1177997,8440,13130,132418,-25799,9848,132691,161,19346,659,1,49356,0.001000000000000112
1178997,6657,-9647,131098,7266,-17297,137578,129,19362,528,1,49357,0.0009999999999998899
1179997,5464,-8399,125683,6807,3942,122921,161,19363,659,1,49358,0.001000000000000112
1180997,-3845,9832,135654,-19661,-334,133899,186,19337,762,0,49359,0.0009999999999998899
1181997,3898,-1597,128156,-14018,3432,123677,155,19337,762,0,49360,0.001000000000000112
1182997,-1723,10728,128993,772,4513,130489,149,19361,635,0,49361,0.0009999999999998899
1183997,6330,5449,128628,-12590,3925,121405,149,19356,610,0,49362,0.001000000000000112
1184997,3285,5394,124609,3607,-4988,125508,211,19348,864,1,49363,0.0009999999999998899
1185997,1119,-863,125141,-3266,-900,129402,153,19358,627,1,49364,0.001000000000000112
1186997,7389,2674,127427,-14920,-566,125504,163,19352,668,0,49365,0.0009999999999998899
1187997,4978,7619,128862,594,8454,127400,149,19352,668,0,49366,0.001000000000000112
1188997,7778,5685,127187,4261,-1579,125245,158,19358,610,0,49367,0.0009999999999998899
1189997,1194,3435,123899,-12981,6058,119974,158,19361,647,0,49368,0.001000000000000112
1190997,9810,2614,124548,2019,-2021,126762,157,19348,643,1,49369,0.0009999999999998899
1191999,1938,5948,124577,-431,4592,122348,262,19359,1073,1,49370,0.0010020000000001694
1192997,10846,1583,124106,-4380,-1103,125750,152,19357,623,1,49371,0.0009979999999998324
1193997,5432,8874,126649,-1401,6040,122741,175,19357,623,0,49372,0.001000000000000112
1194997,9544,172,123593,8249,-6550,129001,150,19350,717,0,49373,0.0009999999999998899
1195997,10552,2493,125288,-682,4863,120476,150,19358,614,0,49374,0.001000000000000112
1196997,12701,5142,125155,2699,300,125510,145,19361,594,1,49375,0.0009999999999998899
1197997,10249,5006,124549,5919,6766,119431,152,19370,623,1,49376,0.001000000000000112
1198997,9743,2134,124081,-223,-5374,128735,154,19359,631,1,49377,0.0009999999999998899
1199997,5830,-729,127129,833,-1577,127075,154,19359,631,1,49378,0.001000000000000112
1200997,8706,-1944,124559,1989,-2651,127546,206,19355,631,0,49379,0.0009999999999998899
1201997,6935,8172,128333,5366,7935,124844,206,19360,844,0,49380,0.001000000000000112
1202997,17358,6599,126835,1510,2061,123330,152,19363,623,0,49381,0.0009999999999998899
1203997,11603,1784,126302,2500,-1598,124869,151,19353,618,1,49382,0.001000000000000112
1204997,9717,-3374,127485,5475,-9383,130488,157,19361,643,1,49383,0.0009999999999998899
1205997,7912,-6978,128504,370,-8391,130492,157,19361,643,1,49384,0.001000000000000112
1206997,4191,239,130128,-6581,521,130011,169,19359,643,0,49385,0.0009999999999998899
1207997,6436,6864,130436,433,4390,125214,169,19355,692,0,49386,0.001000000000000112
1208997,10905,4887,128480,-86,3524,123751,147,19362,602,0,49387,0.0009999999999998899
1209997,11100,2644,128961,11002,-4553,132804,144,19368,590,0,49388,0.001000000000000112
1210997,8575,-5692,127316,-13374,-5843,126132,186,19349,762,1,49389,0.0009999999999998899
1211997,12476,-145,132314,1114,-1824,129861,140,19349,573,1,49390,0.001000000000000112
1212999,-266,454,132745,15570,-3904,136937,150,19364,573,1,49391,0.0010019999999999474
1213997,2914,-7562,128839,-21165,-10879,130601,207,19357,614,0,49392,0.0009980000000000544
1214997,-4848,1090,131321,-15499,1393,128839,207,19361,848,0,49393,0.0009999999999998899
1215997,7943,13127,131880,10667,10701,124739,153,19368,627,0,49394,0.001000000000000112
1216997,4568,5212,128368,-14472,2875,124541,153,19357,627,1,49395,0.0009999999999998899
1217997,7111,5003,132738,-7417,-1341,130541,162,19357,664,1,49396,0.001000000000000112
1218997,4957,-16316,125991,6026,-19323,138022,157,19362,664,1,49397,0.0009999999999998899
1219997,597,8959,132537,-11771,9587,121748,165,19360,643,1,49398,0.001000000000000112
1220997,-287,-835,131314,-12738,-6927,136377,165,19344,676,0,49399,0.0009999999999998899
1221997,13,5773,128397,-6274,6281,121219,193,19357,790,0,49400,0.001000000000000112
1222997,1077,7254,129146,-11298,3161,128984,150,19363,614,0,49401,0.0009999999999998899
1223997,6802,8477,128106,-7188,5729,121962,186,19363,762,1,49402,0.001000000000000112
1224997,-1737,-3172,124413,3989,-7317,129860,134,19338,762,1,49403,0.0009999999999998899
1225997,4411,2696,128808,-11892,-927,126829,156,19357,549,1,49404,0.001000000000000112
1226997,5950,106,126258,-8281,5490,126229,156,19357,639,0,49405,0.0009999999999998899
1228011,5050,11793,129441,2498,3288,126565,174,19359,713,0,49406,0.0010140000000000704
1228997,4385,-923,123317,-5077,2159,121408,159,19363,651,0,49407,0.0009859999999999314
1229997,4972,12105,127037,-8546,2620,125346,148,19355,606,0,49408,0.001000000000000112
1230998,7932,-4788,122330,4351,989,124126,232,19355,606,1,49409,0.0010010000000000296
1231998,1120,11135,125937,-9926,2175,123722,155,19343,950,1,49410,0.0009999999999998899
1232997,9430,300,124585,2278,2059,125801,155,19362,635,1,49411,0.0009989999999999721
1233998,7855,7072,125033,4769,-1074,124845,161,19351,659,0,49412,0.0010010000000000296
1234997,10074,-1946,122872,744,611,125216,151,19360,618,0,49413,0.0009989999999999721
1235997,10544,9889,126144,-924,5393,119996,148,19363,606,0,49414,0.001000000000000112
1236998,11754,1543,123647,8178,-476,127073,163,19363,606,1,49415,0.0010010000000000296
1237997,8138,5904,125788,186,3361,121423,140,19367,668,1,49416,0.0009989999999999721
1238997,8125,-2214,124344,-1838,-4984,129227,140,19363,573,1,49417,0.0009999999999998899
1239997,7497,3131,126940,7154,1240,124372,152,19360,623,1,49418,0.001000000000000112
1240997,9957,-1243,125400,888,-1728,128596,183,19351,750,0,49419,0.0009999999999998899
1241999,10447,5383,127668,544,4764,124288,152,19363,623,0,49420,0.0010019999999999474
1242997,14183,5898,127205,2730,1968,124536,140,19363,623,0,49421,0.0009980000000000544
1243997,11256,3216,127717,2178,-450,124856,186,19356,573,1,49422,0.001000000000000112
1244999,8420,-5562,126570,5353,-12801,132133,186,19367,762,1,49423,0.0010019999999999474
1245997,5840,-7511,127050,57,-7969,130334,151,19361,618,1,49424,0.0009980000000000544
1246997,8004,2555,129658,-4293,4565,127253,158,19354,647,0,49425,0.0009999999999998899
1247997,4369,10862,130495,-1144,9350,123734,149,19358,610,0,49426,0.001000000000000112
1248997,11482,9587,130167,1941,3269,128092,147,19358,610,0,49427,0.0009999999999998899
1249997,6303,-6704,127263,15042,-8722,131181,160,19366,602,0,49428,0.001000000000000112
1250997,8199,-2337,128850,-24591,-7870,129132,160,19346,655,1,49429,0.0009999999999998899
1251997,13886,-8396,131337,8121,-3260,131062,140,19364,573,1,49430,0.001000000000000112
1252997,1547,9426,133734,16673,2816,131587,151,19360,618,1,49431,0.0009999999999998899
1253999,3079,-8900,128261,-32111,-12283,133663,186,19348,762,0,49432,0.0010019999999999474
1254997,-3767,8603,132827,-10974,8579,121257,156,19348,762,0,49433,0.0009980000000000544
1255998,3401,4058,129763,20712,-2570,136652,148,19362,639,0,49434,0.0010010000000000296
1256998,5233,6499,129218,-23758,6976,116913,148,19356,606,1,49435,0.0009999999999998899
1257997,5297,3045,133056,-7296,-4530,135503,200,19367,819,1,49436,0.0009990000000001942
1258997,5316,-10720,126879,15308,-10670,135074,151,19359,618,1,49437,0.0009999999999998899
1259997,-1332,6066,131377,-16259,5736,122082,163,19353,668,1,49438,0.001000000000000112
1260997,-1747,2864,132521,-20161,-1761,134003,233,19353,954,0,49439,0.0009999999999998899
1261997,1683,3478,128293,506,3100,124034,159,19354,954,0,49440,0.001000000000000112
1262997,1773,6877,129429,-7875,4246,129505,164,19359,651,0,49441,0.0009999999999998899
1263997,7676,6554,127814,-9717,2070,122933,164,19346,672,1,49442,0.001000000000000112
1264997,-3056,-2041,123766,5109,-5632,125715,198,19356,811,1,49443,0.0009999999999998899
1265997,5842,2800,128404,-10371,302,128404,164,19354,672,1,49444,0.001000000000000112
1266997,3500,3586,127401,-8251,2306,125550,179,19354,733,0,49445,0.0009999999999998899
1267997,7217,9970,128513,1095,7678,127335,159,19360,733,0,49446,0.001000000000000112
1268999,1848,191,124612,-1908,-2075,120741,152,19357,651,0,49447,0.0010019999999999474
1269997,8575,6959,126105,-8642,3976,127971,152,19363,623,0,49448,0.0009980000000000544
1270997,4358,-1144,123423,6586,-2231,121282,197,19326,807,1,49449,0.0009999999999998899
1271997,3270,7569,124739,-7647,4022,125478,148,19359,606,1,49450,0.001000000000000112
1272998,9688,4274,124823,-3695,7566,122328,154,19351,631,1,49451,0.0010009999999998076
1273997,7488,7794,125429,4874,-3365,128083,187,19351,631,0,49452,0.0009990000000001942
1274997,9682,-1518,122187,6587,361,122640,153,19363,766,0,49453,0.0009999999999998899
1275998,10513,6405,125835,-4633,531,124294,153,19361,627,0,49454,0.0010010000000000296
1276999,13556,1608,124812,10486,3724,122872,152,19359,623,1,49455,0.0010010000000000296
1277997,11712,6788,125743,-2620,-1232,124337,122,19369,500,1,49456,0.0009980000000000544
1278997,5262,-2131,125776,-2803,-1090,127134,155,19360,635,1,49457,0.0009999999999998899
1279997,9317,811,125715,5707,-2982,127143,161,19360,635,1,49458,0.001000000000000112
1280997,8893,3381,126590,3071,4118,126442,149,19346,659,0,49459,0.0009999999999998899
1281997,11698,6816,128140,1011,2266,123844,149,19363,610,0,49460,0.0009999999999998899
1282997,15003,2394,125955,2135,16,124030,141,19363,577,0,49461,0.001000000000000112
1283997,10532,1187,127659,4141,-6438,129084,184,19357,754,1,49462,0.0009999999999998899
1284997,10444,-2992,126892,1580,-7555,129917,143,19363,586,1,49463,0.001000000000000112
1285998,2331,-3864,128765,-5875,-3086,131492,149,19363,586,1,49464,0.0010010000000000296
1286997,8468,5288,131104,-312,3495,126095,177,19361,610,0,49465,0.0009989999999999721
1287997,5725,2729,128302,408,1362,125425,177,19366,725,0,49466,0.0009999999999998899
1288998,10397,11184,132065,8436,5193,127127,149,19368,610,0,49467,0.0010010000000000296
1289999,6829,-6474,127580,-4050,-10516,131446,145,19355,594,1,49468,0.0010010000000000296
1290999,17070,1615,131381,-14298,318,125434,208,19363,852,1,49469,0.001000000000000112
1291999,3232,685,135449,19384,-6739,137862,150,19363,852,1,49470,0.0009999999999998899
1292997,4031,-6107,129982,-12727,-10038,131314,166,19366,614,1,49471,0.0009980000000000544
1293997,-4216,-5247,131510,-22387,-7884,133434,166,19349,680,0,49472,0.0009999999999998899
1294997,3815,11172,131660,7461,12573,122618,156,19360,639,0,49473,0.001000000000000112
1295997,4077,11724,127912,-5674,5642,125710,145,19361,594,0,49474,0.0009999999999998899
1296997,7251,7262,132552,-14490,3560,125391,177,19354,725,1,49475,0.001000000000000112
1297999,2510,-10443,128919,7227,-18297,139918,142,19354,725,1,49476,0.0010019999999999474
1298997,2358,-6564,128394,-2448,1303,125862,158,19362,582,1,49477,0.0009980000000000544
1299997,-171,10363,134984,-17730,1766,129484,158,19359,647,1,49478,0.0009999999999998899
1300997,1086,-2651,127824,-5617,-1211,129685,202,19343,827,0,49479,0.001000000000000112
1301997,-1334,11546,130068,-12069,7081,124405,160,19359,655,0,49480,0.0009999999999998899
1302997,6867,6006,128350,-10901,4363,125890,150,19353,614,0,49481,0.001000000000000112
1303997,3805,3882,125219,3869,-1942,124351,240,19353,983,1,49482,0.0009999999999998899
1304997,-1227,-906,125875,-3279,-4165,129025,154,19359,983,1,49483,0.001000000000000112
1305997,7484,1957,126790,-14576,-1572,126560,165,19357,631,1,49484,0.0009999999999998899
1306997,4463,7282,128949,4521,6713,126116,165,19352,676,0,49485,0.001000000000000112
1307997,7898,4881,126688,-2028,1299,125546,145,19359,594,0,49486,0.0009999999999998899
1308998,1563,5024,125140,-8222,4869,120055,154,19360,631,0,49487,0.0010010000000000296
1309997,9795,3912,125353,-2011,-1465,127990,168,19360,688,0,49488,0.0009989999999999721
1310997,2966,3814,124053,3015,3977,121439,213,19339,688,1,49489,0.001000000000000112
1311997,4754,3631,125186,-8157,149,125658,151,19355,872,1,49490,0.0009999999999998899
1312997,8796,4004,125260,1885,2177,124955,151,19358,618,0,49491,0.001000000000000112
1313997,8475,2187,123624,4442,-1961,125495,189,19357,774,0,49492,0.0009999999999998899
1314997,13094,4273,125060,-158,3371,119038,159,19359,651,0,49493,0.001000000000000112
1315997,9672,7929,125118,-516,3742,126711,146,19359,598,1,49494,0.0009999999999998899
1316997,11429,1549,124759,10526,-65,122271,138,19358,598,1,49495,0.001000000000000112
1317997,10545,1864,124715,-1791,-1054,126497,152,19367,565,1,49496,0.0009999999999998899
1318997,8257,-751,125888,-2792,-2478,126269,152,19361,623,1,49497,0.001000000000000112
1319997,6823,3282,126280,10074,1283,125929,152,19355,623,0,49498,0.0009999999999998899
1320997,9961,2473,127255,-1690,1590,128084,184,19363,754,0,49499,0.001000000000000112
1321997,13277,5281,127413,-3880,3049,124472,146,19369,598,0,49500,0.0009999999999998899
1322997,8033,4450,127668,7718,-3006,126612,163,19369,598,1,49501,0.001000000000000112
1323997,10057,-3912,126491,627,-9252,127168,123,19344,668,1,49502,0.0009999999999998899
1324997,9812,-3567,127750,2767,-4532,129233,123,19367,504,1,49503,0.001000000000000112
1325997,8728,-3587,127485,-1064,-1039,130719,147,19362,602,1,49504,0.0009999999999998899
1326997,11027,11668,131071,-3078,12638,120402,175,19362,717,0,49505,0.001000000000000112
1327997,3223,6014,131871,-4677,-5308,133042,149,19360,610,0,49506,0.0009999999999998899
1328998,13650,-5423,128120,13087,-5540,127958,143,19360,610,0,49507,0.0010010000000000296
1329998,-2630,-2387,129371,-8312,-7193,132638,208,19364,586,1,49508,0.001000000000000112
1330997,21013,-6686,128635,-15367,-2637,126314,208,19358,852,1,49509,0.0009989999999999721
1331997,3502,14320,135460,25948,11550,127848,151,19363,618,1,49510,0.0009999999999998899
1332997,5000,-3006,130859,-15523,-17027,138638,157,19355,643,0,49511,0.001000000000000112
1333997,-5328,-7759,128662,-28024,-2987,124988,200,19359,819,0,49512,0.0009999999999998899
1334997,4045,7744,134587,15249,2309,133894,151,19359,819,0,49513,0.001000000000000112
1335997,2086,1878,126523,-8014,4012,123080,160,19366,618,0,49514,0.0009999999999998899
1336997,8824,13801,132571,-21191,7019,123572,160,19346,655,1,49515,0.001000000000000112
1337997,7445,-7434,130947,12257,-15809,140996,124,19364,508,1,49516,0.0009999999999998899
1338997,5729,-6033,124781,-4657,1734,120602,159,19359,651,1,49517,0.001000000000000112
1339997,-3736,11585,135920,-20212,1640,132830,178,19343,729,0,49518,0.0009999999999998899
1340997,4506,-4519,127980,-7637,-2657,127584,177,19343,729,0,49519,0.001000000000000112
1341997,-4214,9472,129306,-1965,3074,129814,148,19356,725,0,49520,0.0009999999999998899
1342997,7435,3566,129104,-14790,3440,124985,148,19356,606,0,49521,0.001000000000000112
1343997,2475,5860,124007,1313,-1841,121381,203,19345,831,1,49522,0.0009999999999998899
1344997,1983,683,125067,-571,1211,128510,150,19362,614,1,49523,0.001000000000000112
1345997,9055,3181,126991,-15023,-1714,126121,159,19354,651,0,49524,0.0009999999999998899
1346997,3896,7760,129196,-1295,8768,126129,160,19354,655,0,49525,0.001000000000000112
1347997,4652,4400,127054,2386,-3404,127937,156,19358,655,0,49526,0.0009999999999998899
1348997,1136,3136,124549,-11465,4716,120009,151,19360,639,0,49527,0.001000000000000112
1349997,9548,755,124185,1692,-5174,128845,151,19351,618,1,49528,0.0009999999999998899
1350997,1759,8451,124044,52,9196,118620,263,19356,1077,1,49529,0.001000000000000112
1351997,13264,3240,123946,-8155,-1972,125527,154,19359,631,1,49530,0.0009999999999998899
1352997,5899,10505,127044,1863,8140,122124,173,19359,709,0,49531,0.001000000000000112
1354000,8463,-3120,123007,6564,-8799,130402,150,19349,709,0,49532,0.0010029999999998651
1354998,8936,361,125683,-2745,998,123175,145,19361,614,0,49533,0.0009980000000000544
1355997,11554,4595,125040,1568,1294,124504,145,19359,594,1,49534,0.0009989999999999721
1356997,10269,6772,124353,8569,6883,120200,168,19370,688,1,49535,0.001000000000000112
1357997,10690,3101,123701,-3943,-2258,124689,152,19365,623,1,49536,0.0009999999999998899
1358997,7244,179,127094,929,-876,127280,154,19365,631,1,49537,0.001000000000000112
1359997,10255,-3307,124233,5307,-4905,128088,199,19359,631,0,49538,0.0009999999999998899
1360998,6033,6678,128678,2146,4289,126758,148,19354,815,0,49539,0.0010010000000000296
1361997,17380,4376,126900,1067,1352,123756,148,19364,606,0,49540,0.0009989999999999721
1362997,9351,3053,126561,4296,491,126120,146,19353,598,1,49541,0.001000000000000112
1363997,9706,-2955,127388,648,-7053,129650,153,19368,627,1,49542,0.0009999999999998899
1364997,8601,-5036,128188,4236,-7047,130101,153,19364,627,1,49543,0.001000000000000112
1365997,4553,1336,129844,-5660,-1837,130421,164,19364,627,0,49544,0.0009999999999998899
1366997,5345,4495,129708,-2007,3693,124251,142,19355,672,0,49545,0.001000000000000112
1367997,9424,7550,129391,2088,7591,124618,142,19361,582,0,49546,0.0009999999999998899
1368997,12538,868,128182,7563,-8710,133336,139,19366,569,0,49547,0.001000000000000112
1369997,9457,-5359,127522,-8878,-2854,124757,175,19340,717,1,49548,0.0009999999999998899
1370997,10355,-1018,132682,15481,-2323,133702,134,19363,549,1,49549,0.001000000000000112
1372003,1476,-2860,131081,-1108,-6265,133541,154,19363,549,1,49550,0.0010059999999998404
1372997,-409,-3997,130144,-25246,-6494,131298,204,19358,631,0,49551,0.0009940000000001614
1373997,-1766,226,131084,-569,6158,125846,204,19360,836,0,49552,0.0009999999999998899
1374997,5573,12781,131085,3207,6938,125832,155,19361,635,0,49553,0.001000000000000112
1375997,6675,6588,129772,-15574,2463,124011,147,19355,602,1,49554,0.0009999999999998899
1376997,6324,1143,131463,336,-10747,135562,169,19363,692,1,49555,0.001000000000000112
1377997,5161,-13552,126386,4087,-8344,132185,156,19363,692,1,49556,0.0009999999999998899
1378997,-511,9107,133331,-17716,6661,125097,167,19362,639,1,49557,0.001000000000000112
1379997,381,43,130969,-6372,-4455,133659,167,19344,684,0,49558,0.0009999999999998899
1380997,-2503,6003,128716,-7739,6382,123213,216,19360,885,0,49559,0.001000000000000112
1381999,2811,6512,128647,-11974,3754,128079,151,19360,618,0,49560,0.0010019999999999474
1382997,6978,7608,127510,1747,835,122842,177,19338,725,1,49561,0.0009980000000000544
1383999,-1425,-1288,124861,-299,-3992,127610,156,19338,725,1,49562,0.0010019999999999474
