t_us,ax,ay,az,ax1,ay1,az1,shunt_raw,bus_raw,curr_raw,pg_rpm,seq,dt
0,9326,-6556,125724,-5814,-8485,126550,458,19183,1876,0,16035,
1002,11461,862,129414,6731,3136,123193,396,19174,1876,1,16036,0.0010019999999999999
2000,17492,-3541,129908,8767,-4212,131431,398,19204,1622,1,16037,0.0009980000000000002
3000,9463,-2160,128380,-10533,-2825,130513,398,19182,1630,1,16038,0.001
4000,5754,-8294,128646,-510,-7742,127723,480,19168,1966,0,16039,0.001
5000,5889,14455,131051,10505,14583,126352,300,19200,1229,0,16040,0.001
6000,7707,-16336,125474,-5986,-18748,138303,413,19200,1692,0,16041,0.001
7000,5647,11613,132084,-22609,11326,115380,514,19188,1692,1,16042,0.0009999999999999992
8000,10045,2620,129561,9406,333,131378,347,19197,2105,1,16043,0.0010000000000000009
9000,-2157,-9307,131400,12997,-8247,130124,347,19190,1421,1,16044,0.0009999999999999992
10002,-440,-10043,129738,-39424,-11434,136622,435,19183,1782,1,16045,0.0010019999999999994
11000,-2230,6712,128668,-21,6043,125471,551,19215,2257,0,16046,0.0009980000000000006
12000,9267,33570,132576,-1317,34375,110795,390,19187,1597,0,16047,0.0010000000000000009
13000,11758,-17701,124610,-6229,-17937,140369,454,19187,1597,0,16048,0.0009999999999999992
14000,-2098,-10463,124747,-6380,-13084,125439,603,19174,1859,1,16049,0.0009999999999999992
15001,2973,-1165,130632,-13341,-1589,128380,603,19215,2470,1,16050,0.0010010000000000002
16000,6592,12110,128099,-2447,9346,121245,383,19186,1569,1,16051,0.0009990000000000016
17000,1797,-2927,128331,-4264,-3308,140640,460,19173,1884,0,16052,0.0009999999999999974
18000,-6199,94,125016,-15078,13511,111022,397,19198,1626,0,16053,0.0010000000000000009
19000,8327,15417,129462,-11673,3484,128825,415,19198,1626,0,16054,0.0010000000000000009
20000,10159,-6877,124150,5929,-2028,125428,494,19189,1700,1,16055,0.0010000000000000009
21000,4546,7630,126214,3637,5487,121040,494,19178,2023,1,16056,0.0009999999999999974
22000,12594,-2504,126310,-14899,399,128085,300,19194,1229,1,16057,0.0010000000000000009
23001,6189,7930,126593,5518,1530,125136,424,19180,1737,1,16058,0.0010010000000000019
24000,6621,-15165,123459,-2866,-14141,136938,524,19188,2146,0,16059,0.0009989999999999999
25001,1422,10297,127209,-5571,20712,108919,361,19188,2146,0,16060,0.0010009999999999984
26001,17018,12117,127454,4894,-318,131921,424,19191,1479,0,16061,0.0010000000000000009
27000,14263,-6764,123376,9770,-4310,122765,424,19183,1737,1,16062,0.0009989999999999999
28000,8755,2125,124984,5246,-3452,126500,506,19215,2072,1,16063,0.0009999999999999974
29001,14662,-5985,126400,7504,1081,124509,396,19186,1622,1,16064,0.0010010000000000019
30000,7053,9991,125757,405,8130,122358,464,19176,1900,1,16065,0.0009989999999999999
31000,13641,-9405,127619,-634,-8945,137402,388,19176,1900,0,16066,0.0010000000000000009
32000,16474,9478,124847,13861,12934,110560,399,19200,1589,0,16067,0.0010000000000000009
33000,16799,5162,126978,184,-4950,132761,399,19188,1634,0,16068,0.0010000000000000009
34000,14261,-14805,123177,7199,-12662,125684,468,19171,1917,1,16069,0.000999999999999994
35000,12552,-3449,130259,16300,-3468,132700,315,19200,1290,1,16070,0.0010000000000000009
36000,17946,-562,128378,891,4074,125149,404,19183,1655,1,16071,0.0010000000000000009
37003,7896,9638,128371,-83,3345,121015,489,19183,2003,0,16072,0.0010030000000000039
38000,8482,-12331,126640,5628,-13916,140247,353,19191,2003,0,16073,0.0009969999999999979
39000,14481,6410,130443,7549,11855,114424,420,19186,1446,0,16074,0.0010000000000000009
40001,12100,5461,128609,832,-622,130848,420,19185,1720,0,16075,0.001000999999999995
41004,9828,-8503,126910,1887,-6544,123772,535,19197,2191,1,16076,0.0010030000000000039
42001,12279,-7566,130331,6200,-8666,132826,354,19194,1450,1,16077,0.0009969999999999979
43000,9964,-4638,129772,-9425,-3789,133390,438,19194,1794,1,16078,0.0009989999999999999
44000,6117,-348,129295,-2497,-2828,123532,564,19177,1794,0,16079,0.0010000000000000009
45001,6148,6309,132133,13871,9003,130817,386,19212,2310,0,16080,0.0010010000000000019
46000,6868,2785,126257,-9401,-55,123828,386,19191,1581,0,16081,0.0009989999999999999
47000,7601,-2997,129550,-22680,-4134,128182,446,19175,1827,1,16082,0.0010000000000000009
48001,9243,-5139,131232,15003,-6354,131382,403,19203,1651,1,16083,0.001000999999999995
49000,-820,-7736,130777,15439,-6189,130690,412,19203,1687,1,16084,0.0009989999999999999
50000,-4354,1443,131633,-50989,500,129340,492,19185,1687,1,16085,0.0010000000000000009
51000,197,1855,130014,-666,2886,126429,310,19166,2015,0,16086,0.0010000000000000009
52000,10384,19693,130445,16321,18906,124320,310,19195,1270,0,16087,0.0010000000000000009
53000,10751,2553,126576,-21395,592,124174,420,19182,1720,0,16088,0.0010000000000000009
54000,-3048,-12778,126289,-10888,-14455,130782,512,19170,2097,1,16089,0.0010000000000000009
55001,4080,-7382,129799,-3209,-7102,135079,273,19195,1118,1,16090,0.001000999999999995
56000,4600,8981,130395,1745,8281,122483,422,19195,1118,1,16091,0.0009989999999999999
57000,-1034,7106,127533,-14319,4288,126421,536,19178,1728,0,16092,0.0010000000000000009
58001,-3129,-4380,124406,-14789,-5631,129272,536,19204,2195,0,16093,0.0010010000000000019
59000,8480,11402,129509,-4032,13394,119679,385,19183,1577,0,16094,0.0009989999999999999
60000,12281,5788,125241,3666,5258,126407,439,19178,1798,1,16095,0.0010000000000000009
61001,477,720,125352,1510,-29,126418,474,19206,1941,1,16096,0.0010010000000000019
62000,13239,-8122,126619,-16078,-8031,131458,390,19206,1941,1,16097,0.0009989999999999999
63000,8497,2681,125964,9666,503,124083,469,19191,1597,1,16098,0.0010000000000000009
64000,4466,3974,126025,4406,3497,126962,469,19162,1921,0,16099,0.0010000000000000009
65001,2652,329,124526,-17566,-240,119027,435,19197,1782,0,16100,0.0010010000000000019
66002,17164,8869,126147,1937,5755,127272,393,19188,1610,0,16101,0.001000999999999988
67002,16929,805,123520,15695,-489,123143,471,19179,1929,1,16102,0.0010000000000000009
68000,7130,413,123992,4558,-4043,124198,294,19179,1929,1,16103,0.0009979999999999989
69000,14188,-9171,126584,-1079,-7896,130606,427,19195,1204,1,16104,0.0010000000000000009
70000,8910,4094,126201,8689,7649,122588,427,19181,1749,0,16105,0.0010000000000000009
71000,12179,5474,128527,-2076,4429,128794,518,19198,2122,0,16106,0.0010000000000000009
72000,15388,2081,125309,4818,1748,119995,365,19190,1495,0,16107,0.0010000000000000009
73000,17873,1546,123911,8531,-1376,126022,418,19182,1712,0,16108,0.0010000000000000009
74000,14424,-5600,124763,11494,-6244,128745,548,19182,1712,1,16109,0.0010000000000000009
75003,12447,-8628,128204,6325,-2937,128482,367,19221,2244,1,16110,0.0010030000000000039
76000,15695,-2349,128762,2849,-1826,129307,367,19190,1503,1,16111,0.0009969999999999979
77001,9089,4703,128051,4025,1434,123820,445,19177,1823,0,16112,0.0010010000000000019
78000,8088,-743,127600,6237,-4611,131070,417,19199,1708,0,16113,0.0009989999999999999
79000,13055,-2044,130216,2104,1056,124524,393,19189,1610,0,16114,0.0010000000000000009
80000,13935,1556,127568,2634,579,124530,459,19189,1610,0,16115,0.0010000000000000009
81000,8738,2600,130121,3484,1470,126241,359,19176,1880,1,16116,0.0010000000000000009
82001,12830,-8081,129736,2295,-12569,133681,359,19203,1470,1,16117,0.001000999999999988
83000,6646,-12446,128766,-10203,-11706,137356,407,19185,1667,1,16118,0.0009989999999999999
84002,3361,-2178,129133,-72,4770,118205,496,19165,2031,0,16119,0.0010020000000000029
85000,12294,22691,133424,8267,20378,125663,284,19188,1163,0,16120,0.0009979999999999989
86000,10241,-10515,125420,-409,-15524,134095,411,19188,1683,0,16121,0.0010000000000000009
87000,4441,3736,130714,-26788,5396,118467,522,19189,1683,1,16122,0.0010000000000000009
88000,8542,-7722,129409,10414,-14240,137160,376,19199,2138,1,16123,0.0010000000000000009
89002,-5282,-9437,131355,16049,-8163,130312,376,19181,1540,1,16124,0.0010020000000000029
90000,121,-6900,131008,-41211,-7922,137901,454,19174,1859,0,16125,0.0009979999999999989
91000,-6282,10228,127374,-4091,17151,115759,572,19220,2343,0,16126,0.0010000000000000009
92000,11162,30242,130711,-3149,23236,118090,395,19220,1618,0,16127,0.0010000000000000009
93000,13158,-15032,124236,-6812,-17381,134906,455,19189,1618,0,16128,0.0010000000000000009
94000,-1938,-6940,126286,-482,-6831,126081,569,19188,1864,1,16129,0.0010000000000000009
95000,3531,-5416,130675,-11678,-6228,136322,569,19218,2330,1,16130,0.0010000000000000009
96000,601,4673,127607,-4985,4986,119955,387,19188,1585,1,16131,0.0010000000000000009
97000,5715,4224,129124,-14689,1560,133362,470,19177,1925,0,16132,0.000999999999999987
98000,-2528,2768,124086,7746,2915,123212,349,19177,1429,0,16133,0.0010000000000000009
99000,3072,10730,128377,-12322,11982,119110,405,19193,1429,0,16134,0.0010000000000000009
100002,12867,1099,125684,-20303,1589,126360,499,19185,1659,1,16135,0.0010020000000000029
101000,4987,12020,127074,22940,11371,117501,499,19200,2044,1,16136,0.0009979999999999989
102000,15346,-7655,126550,-1925,-9708,137015,335,19195,1372,1,16137,0.0010000000000000009
103000,-462,-5739,124338,-16316,-6484,124176,434,19180,1778,1,16138,0.0010000000000000009
104000,6842,-5917,125989,1287,-6315,133362,536,19198,2195,0,16139,0.0010000000000000009
105002,8291,16213,126811,4039,16892,115185,369,19198,2195,0,16140,0.0010020000000000029
106002,15207,13054,128261,197,13376,119873,422,19194,1511,0,16141,0.0010000000000000009
107002,12331,-13464,121804,958,-14919,133321,422,19182,1728,1,16142,0.0010000000000000009
108000,8947,3872,124864,7123,1613,119968,426,19207,1745,1,16143,0.0009979999999999989
109000,18514,-3914,127188,11584,-4062,126903,403,19183,1651,1,16144,0.0010000000000000009
110000,5073,4872,125368,4988,4081,123011,473,19173,1937,0,16145,0.0010000000000000009
111000,11477,-3015,126428,-9903,-3361,132539,386,19173,1937,0,16146,0.0010000000000000009
112000,18966,8535,126407,10916,7666,112982,399,19197,1581,0,16147,0.000999999999999987
113000,16309,6069,125376,17825,-8489,132385,399,19187,1634,0,16148,0.0010000000000000009
114000,12801,-15702,123972,-3541,-8906,125540,474,19171,1941,1,16149,0.0010000000000000009
115000,11422,-2547,130035,1744,-1919,131617,255,19197,1044,1,16150,0.0010000000000000009
116000,20133,-4290,130449,20229,-865,130637,413,19186,1692,1,16151,0.0010000000000000009
117000,6746,6878,126494,3142,3622,118888,505,19186,1692,0,16152,0.0010000000000000009
118000,7597,-1862,127648,822,-5967,134614,366,19198,2068,0,16153,0.0010000000000000009
119000,16691,414,128603,12354,7346,121505,366,19192,1499,0,16154,0.0010000000000000009
120000,14581,3503,129299,4078,1340,127576,424,19186,1737,0,16155,0.0010000000000000009
121000,7100,-7516,127519,-7786,-7442,124848,547,19218,2240,1,16156,0.0010000000000000009
122000,11932,-4487,130068,5250,-7385,133021,367,19189,1503,1,16157,0.0010000000000000009
123000,8303,-11983,128337,612,-13220,139762,450,19189,1503,1,16158,0.0010000000000000009
124000,2606,-1024,128790,-14066,866,120914,490,19177,1843,0,16159,0.0010000000000000009
125001,10657,19000,135359,11450,20698,120402,490,19209,2007,0,16160,0.0010010000000000019
126002,9229,2583,126326,826,-9047,134176,392,19192,1606,0,16161,0.0010010000000000019
127000,7819,-11460,127886,-28801,-5615,126656,457,19173,1872,1,16162,0.0009979999999999989
128000,6958,-2457,131034,15583,-5680,129103,328,19199,1343,1,16163,0.0010000000000000009
129000,2695,284,132210,14080,2401,127924,416,19199,1704,1,16164,0.0010000000000000009
130000,-5205,-5550,132264,-40188,-12947,135354,507,19182,1704,0,16165,0.0010000000000000009
131002,-4125,-5491,128209,-4935,2148,125784,330,19174,2077,0,16166,0.0010020000000000029
132000,9983,28029,129759,6814,24942,117574,330,19186,1352,0,16167,0.0009979999999999989
133001,8748,4889,127691,-12901,-1268,124078,426,19184,1745,0,16168,0.0010009999999999741
134000,-623,-11373,124874,-10939,-14129,132418,526,19182,2154,1,16169,0.0009989999999999999
135000,2512,-13337,130321,207,-9562,136438,323,19182,1323,1,16170,0.0010000000000000009
136000,4948,10729,130018,-6138,12073,118566,438,19191,1323,1,16171,0.0010000000000000009
137000,1321,4183,129071,-6733,-2371,133093,562,19181,1794,0,16172,0.0010000000000000009
138000,-4647,-1717,124640,-13444,-100,121482,562,19213,2302,0,16173,0.0010000000000000009
139000,9849,14405,129966,-7027,14314,119999,397,19187,1626,0,16174,0.0010000000000000009
140000,10551,-549,124835,7738,-2907,128121,449,19177,1839,1,16175,0.0010000000000000009
141000,3323,762,125960,-416,141,120886,376,19177,1540,1,16176,0.0010000000000000009
142000,10431,-2881,125464,-13146,-4883,133484,402,19201,1540,1,16177,0.0010000000000000009
143000,5941,5957,126161,1921,6204,122616,485,19175,1646,1,16178,0.0010000000000000009
144000,5044,-3838,125151,3241,-5691,133688,485,19168,1986,0,16179,0.0010000000000000009
145000,3530,3445,125840,-8657,7395,117847,398,19199,1630,0,16180,0.0010000000000000009
146000,18128,14186,127541,1667,13346,119687,402,19186,1646,0,16181,0.0010000000000000009
147000,15741,-2907,123175,15436,-4964,128670,484,19192,1982,1,16182,0.0010000000000000009
148000,9765,-3929,123329,290,-7007,125370,332,19192,1982,1,16183,0.0010000000000000009
149000,13070,-7314,127428,7079,-5583,128932,441,19195,1360,1,16184,0.0010000000000000009
150000,7823,9985,127463,5594,9742,120562,441,19184,1806,0,16185,0.0010000000000000009
151000,11003,-122,127037,-2163,-901,130780,536,19201,2195,0,16186,0.0010000000000000009
152000,16173,3541,124606,6726,2642,122734,374,19186,1532,0,16187,0.0010000000000000009
153000,17852,6760,125131,9290,6908,120692,430,19178,1761,0,16188,0.0010000000000000009
154000,13851,-6262,125188,3515,-7345,127108,568,19178,1761,1,16189,0.0010000000000000009
155000,13727,-10058,129327,8654,-9516,132277,378,19224,2326,1,16190,0.0010000000000000009
156000,16109,-5128,130359,12846,-4733,125983,378,19189,1548,1,16191,0.0010000000000000009
157000,9124,8030,127697,-2195,5806,123631,452,19171,1851,0,16192,0.0010000000000000009
158000,7007,-824,128025,-211,-2084,132066,379,19191,1552,0,16193,0.0010000000000000009
159000,15180,-2052,128369,8608,-1763,123889,402,19182,1646,0,16194,0.0010000000000000009
160000,13071,7196,128747,-422,6898,122317,476,19182,1646,1,16195,0.0010000000000000009
161000,8394,-1939,128853,3109,-7405,130917,289,19169,1950,1,16196,0.0010000000000000009
162001,11048,-12362,130091,7580,-10744,133971,289,19193,1184,1,16197,0.0010010000000000019
163000,9209,-9691,128316,-7686,-10657,133373,413,19183,1692,1,16198,0.0009989999999999999
164000,1168,4689,130316,-3992,14982,117525,512,19188,2097,0,16199,0.0009999999999999731
165001,13713,10929,131371,13306,2351,132920,351,19193,1438,0,16200,0.0010010000000000019
166000,4513,-7005,127005,-9969,-1617,125322,419,19193,1438,0,16201,0.0009989999999999999
167000,8036,5086,129269,-34072,-1581,124037,542,19181,1716,1,16202,0.0010000000000000009
168000,8509,-7615,130474,39421,-10018,134158,542,19213,2220,1,16203,0.0010000000000000009
169000,-4952,-9912,132133,-4564,-12075,133749,377,19189,1544,1,16204,0.0010000000000000009
170000,735,-6041,131162,-43226,206,128637,457,19176,1872,0,16205,0.0010000000000000009
171030,-8748,17432,129480,4722,19475,120184,483,19199,1978,0,16206,0.0010300000000000031
172000,15175,15250,128160,-1800,10108,122073,401,19199,1978,0,16207,0.0009699999999999986
173000,8984,743,126068,-10444,-6447,125905,468,19183,1642,0,16208,0.0010000000000000009
174000,-1728,-13355,128103,-592,-13311,135843,468,19171,1917,1,16209,0.0010000000000000009
175000,2533,-5527,130192,-8160,-2074,128746,460,19209,1884,1,16210,0.0010000000000000009
176000,3199,4375,130101,-4780,2218,127621,396,19188,1622,1,16211,0.0010000000000000009
177000,3610,7461,128180,-20281,7119,121915,489,19165,2003,0,16212,0.0010000000000000009
178000,515,6979,126139,6211,436,126920,282,19165,1155,0,16213,0.0010000000000000009
179000,3497,-4293,126189,-3232,-1872,127765,422,19184,1155,0,16214,0.0010000000000000009
180000,7291,9592,124605,-15038,10797,116310,514,19184,1728,1,16215,0.0010000000000000009
181000,6207,10421,127435,6690,8799,123159,514,19203,2105,1,16216,0.0010000000000000009
182000,12643,2175,126365,2599,-3569,129817,364,19189,1491,1,16217,0.0010000000000000009
183000,6710,-17759,122868,-9430,-17878,136732,448,19178,1835,1,16218,0.0010000000000000009
184002,3123,-416,126149,2325,4836,120918,559,19178,2289,0,16219,0.0010020000000000029
185002,7301,14915,127080,-2640,14525,119233,380,19203,2289,0,16220,0.0010000000000000009
186001,16489,7177,126924,2751,6338,124051,430,19187,1556,0,16221,0.0009989999999999999
187002,14797,-3290,123832,8801,-4940,129382,430,19176,1761,1,16222,0.0010010000000000019
188000,7805,-1148,121465,5465,-3160,123267,364,19202,1491,1,16223,0.0009979999999999989
189000,15224,3821,129190,7934,3779,121177,404,19185,1655,1,16224,0.0010000000000000009
190000,12325,-7083,124604,8495,-7072,134638,479,19185,1962,0,16225,0.0010000000000000009
191000,9002,7011,127936,-4742,8476,121041,309,19170,1962,0,16226,0.0010000000000000009
192000,16205,8753,126163,6297,6526,122211,405,19194,1266,0,16227,0.0010000000000000009
193000,17686,126,124110,9093,-517,125170,405,19184,1659,0,16228,0.0010000000000000009
194000,11977,-12362,125420,6342,-13462,130941,485,19182,1986,1,16229,0.0009999999999999731
195000,14045,-5727,129639,7039,-3985,129534,288,19186,1180,1,16230,0.0010000000000000009
196000,18457,3248,130348,9872,3209,125526,421,19184,1724,1,16231,0.0010000000000000009
197000,8317,-436,127840,2684,-2342,128062,522,19184,1724,0,16232,0.0010000000000000009
198006,8429,3295,126615,-2633,273,127261,376,19209,2138,0,16233,0.0010060000000000069
199002,13125,-550,129457,7837,-113,126410,376,19190,1540,0,16234,0.0009959999999999969
200002,14434,2267,126876,4828,1568,124991,428,19181,1753,1,16235,0.0010000000000000009
201000,7132,-2818,128332,871,-3996,124992,568,19217,2326,1,16236,0.0009979999999999989
202000,12264,-7910,131210,876,-7651,133483,388,19187,1589,1,16237,0.0010000000000000009
203000,7780,-8084,129253,-1811,-9119,132044,463,19187,1589,1,16238,0.0010000000000000009
204000,3586,-1540,130062,-5796,-2754,126317,440,19169,1896,0,16239,0.0010000000000000009
205000,8012,12466,132280,3268,12958,119542,440,19201,1802,0,16240,0.0010000000000000009
206000,9944,3563,128155,6073,4555,138300,395,19188,1618,0,16241,0.0010000000000000009
207002,8803,-10823,127677,-17345,-13778,119450,463,19174,1896,1,16242,0.0010020000000000029
208001,6997,9342,132561,-6982,-994,130133,292,19194,1196,1,16243,0.0009989999999999999
209000,3185,-9922,132841,24424,-10223,135587,419,19194,1196,1,16244,0.0009989999999999999
210000,-5651,-7397,131706,-31036,-13471,132909,514,19183,1716,0,16245,0.0010000000000000009
211000,-4232,-2091,130028,-18337,12859,125344,514,19201,2105,0,16246,0.0010000000000000009
212000,9765,29107,129160,7511,23902,114120,368,19196,1507,0,16247,0.0010000000000000009
213000,7495,3712,126524,-11202,-9606,129880,426,19179,1745,0,16248,0.0010000000000000009
214000,-394,-14057,125391,-15170,-13223,131126,541,19199,2216,1,16249,0.0010000000000000009
215000,3027,-5969,129826,6006,-2787,130773,350,19199,2216,1,16250,0.0010000000000000009
216001,6194,8043,131994,-9565,8744,123614,440,19190,1433,1,16251,0.0010010000000000019
217000,1094,1326,127302,-9610,-6360,132233,440,19168,1802,0,16252,0.0009989999999999999
218000,-5919,-1537,124956,-11504,4392,121617,564,19209,2310,0,16253,0.0010000000000000009
219003,9413,18638,129374,-5425,16306,118390,402,19187,1646,0,16254,0.0010030000000000039
220000,10549,-1565,123899,10242,-6681,128217,455,19188,1864,1,16255,0.0009969999999999979
221000,2466,3713,125192,-7134,3493,121222,324,19188,1327,1,16256,0.0010000000000000009
222001,11807,-2313,126277,-5112,-5071,130452,410,19208,1327,1,16257,0.0010009999999999741
223000,6253,3677,126910,6536,4162,124934,500,19181,1679,1,16258,0.0009990000000000276
224001,4707,-5489,126232,-1066,-9158,133859,500,19159,2048,0,16259,0.0010009999999999741
225000,4721,3685,125797,-7778,13247,115162,319,19195,1307,0,16260,0.0009989999999999999
226002,17865,17122,127456,1792,11906,121523,407,19181,1667,0,16261,0.0010020000000000029
227000,15358,-5262,122345,13814,-6592,128855,497,19181,2036,1,16262,0.0009979999999999989
228000,10031,-883,124270,2715,-6003,124510,349,19202,2036,1,16263,0.0010000000000000009
229010,13739,-6166,126911,7350,-3365,128637,443,19192,1429,1,16264,0.0010100000000000109
230002,8421,7325,127838,4609,7338,121546,443,19179,1814,0,16265,0.0009919999999999929
231000,10534,-1205,127293,-3228,-4693,133850,555,19213,2273,0,16266,0.0009979999999999989
232000,14450,4695,124879,8814,9945,118272,386,19189,1581,0,16267,0.0010000000000000009
233002,17617,10483,125685,5403,6202,122676,435,19178,1782,0,16268,0.0010020000000000029
234000,13102,-10875,123730,3958,-11121,129057,490,19178,1782,1,16269,0.0009979999999999989
235000,15347,-8449,129808,14780,-6266,130730,385,19216,2007,1,16270,0.0010000000000000009
236000,15486,-6619,129993,5292,-4684,132294,385,19185,1577,1,16271,0.0010000000000000009
237000,9125,9008,128321,-2655,6755,118478,466,19171,1909,0,16272,0.0010000000000000009
238000,7080,-2976,126887,5018,-7892,136854,367,19195,1503,0,16273,0.0010000000000000009
239000,15667,696,128814,7716,3459,120507,409,19183,1675,0,16274,0.0010000000000000009
240000,12515,9535,128733,159,7862,122495,486,19183,1675,1,16275,0.0010000000000000009
241000,9116,-5749,128523,2257,-7185,129661,264,19169,1991,1,16276,0.0010000000000000009
242000,10107,-8427,130067,5440,-9737,130276,264,19194,1081,1,16277,0.0010000000000000009
243000,9200,-10969,129188,-11274,-12377,140672,422,19181,1728,1,16278,0.0010000000000000009
244001,2553,4113,129134,-600,5097,115115,528,19203,2163,0,16279,0.0010010000000000019
245000,14718,11575,131953,10707,11068,132652,370,19192,1515,0,16280,0.0009989999999999999
246000,4827,-8101,125333,3084,-8439,129142,425,19192,1515,0,16281,0.0010000000000000009
247000,10457,7203,130200,-36985,5530,117731,556,19179,1741,1,16282,0.0010000000000000009
248000,8686,-7689,130435,19647,-10186,137124,556,19220,2277,1,16283,0.0010000000000000009
249000,-5470,-11123,131857,19336,-11806,131210,378,19185,1548,1,16284,0.0010000000000000009
250000,984,-5652,131279,-51070,-5876,135930,464,19174,1900,0,16285,0.0010000000000000009
251000,-8409,19601,129567,2631,18089,120410,414,19204,1696,0,16286,0.0010000000000000009
252000,14405,14860,128116,956,13327,123450,411,19204,1696,0,16287,0.0010000000000000009
253002,9495,-1833,125627,-18208,-1374,126684,476,19188,1683,0,16288,0.0010020000000000029
254000,-845,-11946,127208,6651,-13666,138297,476,19168,1950,1,16289,0.0009979999999999989
255000,1891,-6081,130468,-11332,1054,123858,401,19196,1642,1,16290,0.0010000000000000009
256000,3727,5926,130725,-6488,2487,129659,389,19188,1593,1,16291,0.0010000000000000009
257000,1862,3647,128173,-12451,3774,123957,500,19178,2048,0,16292,0.0010000000000000009
258000,261,8306,125669,-9328,-472,125778,322,19178,2048,0,16293,0.0010000000000000009
259000,4324,-2257,126252,6279,706,127123,430,19184,1319,0,16294,0.0010000000000000009
260001,6580,12044,124627,-10319,13240,112319,430,19180,1761,1,16295,0.0010009999999999741
261000,8080,9433,127684,8614,5403,128637,529,19213,2167,1,16296,0.0009990000000000276
262000,10681,-1639,126806,-2228,-9946,131004,371,19189,1520,1,16297,0.0010000000000000009
263003,8236,-15911,123982,-3927,-14650,133705,451,19179,1847,1,16298,0.0010029999999999761
264003,1361,-1377,126122,5841,8264,121794,575,19179,2355,0,16299,0.0010000000000000009
265000,7249,15333,128028,-11863,12458,117057,392,19217,2355,0,16300,0.0009970000000000256
266000,17023,8670,127467,4448,4052,126085,444,19190,1606,0,16301,0.0010000000000000009
267000,13737,-1158,123067,11092,-5018,127327,444,19166,1818,1,16302,0.0010000000000000009
268000,11651,-1810,121638,4064,-1991,121287,323,19198,1323,1,16303,0.0009999999999999454
269000,11877,2662,127027,6571,1136,126053,404,19184,1655,1,16304,0.0010000000000000009
270005,13893,-7304,126559,6556,-9115,133633,480,19184,1966,0,16305,0.0010050000000000336
271001,8192,7362,126180,-3314,13187,119785,272,19171,1966,0,16306,0.0009959999999999969
272000,15378,12793,127722,9923,6497,122227,415,19191,1114,0,16307,0.0009989999999999721
273000,17330,-4335,122904,8655,-6317,125828,415,19182,1700,0,16308,0.0010000000000000009
274004,12075,-8589,126506,3423,-9261,130037,502,19189,2056,1,16309,0.0010040000000000049
275000,16477,-5619,129758,10695,-4022,129469,323,19188,1323,1,16310,0.0009959999999999969
276000,16548,2375,129751,4597,3042,124201,416,19188,1704,1,16311,0.0010000000000000009
277000,8888,-542,128595,989,-1078,130495,531,19185,1704,0,16312,0.0010000000000000009
278000,8494,-1051,125255,4375,-2824,128137,382,19209,2175,0,16313,0.0010000000000000009
279000,14690,4821,129515,8669,5287,124953,382,19189,1565,0,16314,0.0010000000000000009
280000,13599,-56,126376,2527,-1186,123489,439,19179,1798,1,16315,0.0010000000000000009
281000,8752,288,128968,-1456,161,124711,554,19225,2269,1,16316,0.0010000000000000009
282000,11434,-9434,130641,4810,-13184,136542,379,19185,1552,1,16317,0.0010000000000000009
283000,7235,-9445,129111,-7801,-7750,133383,458,19185,1552,1,16318,0.0010000000000000009
284000,3075,-1065,129288,-3946,-2613,127660,385,19175,1876,0,16319,0.0010000000000000009
285000,8575,15567,132572,9385,18963,118291,385,19195,1577,0,16320,0.0010000000000000009
286000,11423,-49,127683,-4418,-5706,135281,405,19185,1659,0,16321,0.0010000000000000009
287000,9065,-8269,129158,-17643,-6114,123811,482,19161,1974,1,16322,0.0010000000000000009
288000,6159,6992,131590,5807,2481,125240,259,19192,1061,1,16323,0.0010000000000000009
289000,863,-7941,133574,12950,-8514,134953,418,19192,1061,1,16324,0.0010000000000000009
290000,-5616,-9731,130632,-35083,-11547,132849,525,19178,1712,0,16325,0.0010000000000000009
291000,-2883,-991,129805,-10864,983,130157,525,19201,2150,0,16326,0.0010000000000000009
292000,8772,30721,128942,5566,27513,112410,377,19192,1544,0,16327,0.0010000000000000009
293000,9128,-768,126526,-7951,-2385,129375,438,19178,1794,0,16328,0.0010000000000000009
294000,-666,-12878,125520,-14869,-14203,130178,557,19204,2281,1,16329,0.0010000000000000009
295000,3872,-6165,131224,-960,-5736,132144,361,19204,2281,1,16330,0.0010000000000000009
296000,4969,9996,131543,-785,9546,123648,432,19184,1479,1,16331,0.0010000000000000009
297000,-441,-571,127808,-9180,-2753,130561,432,19177,1769,0,16332,0.0010000000000000009
298002,-5344,59,124278,-16861,-3254,115194,461,19210,1888,0,16333,0.0010020000000000029
299000,9987,19267,130650,-4668,20524,124996,411,19189,1683,0,16334,0.0009979999999999989
300003,11608,-671,123430,6232,-1159,124522,470,19170,1925,1,16335,0.0010029999999999761
301002,2907,3049,127468,2180,2990,126135,299,19170,1925,1,16336,0.0009990000000000276
302000,10335,-3207,125461,-12340,-5404,129341,407,19197,1225,1,16337,0.0009979999999999989
303000,6573,5264,128037,1096,3785,124415,407,19180,1667,1,16338,0.0010000000000000009
304000,4104,-5416,125206,5079,-9301,133889,501,19165,2052,0,16339,0.0010000000000000009
305000,4292,4289,126589,-9842,17693,109955,290,19200,1188,0,16340,0.0010000000000000009
306000,18244,15839,127533,-586,3077,128674,404,19178,1655,0,16341,0.0010000000000000009
307000,15791,-5907,122953,10702,-4851,124362,510,19178,1655,1,16342,0.0010000000000000009
308000,11231,801,123665,4569,-6657,127283,363,19220,2089,1,16343,0.0010000000000000009
309000,12587,-6404,127277,4092,-922,127625,363,19188,1487,1,16344,0.0010000000000000009
310000,8939,8965,127278,2147,4367,122544,447,19177,1831,0,16345,0.0010000000000000009
311000,10132,-2318,126418,-202,-2677,134200,563,19212,2306,0,16346,0.0010000000000000009
312000,16134,8534,123645,14413,11081,112869,392,19189,1606,0,16347,0.0010000000000000009
313000,16140,6878,126618,6348,586,126725,444,19189,1818,0,16348,0.0010000000000000009
314000,15718,-11328,124842,1447,-11514,128590,395,19172,1818,1,16349,0.0010000000000000009
315000,14307,-7715,130168,16114,-6044,132132,390,19204,1618,1,16350,0.0010000000000000009
316000,15814,-3253,129912,-934,264,128579,390,19189,1597,1,16351,0.0010000000000000009
317000,9326,6384,127770,-782,3608,121356,474,19167,1941,0,16352,0.0010000000000000009
318000,7648,-2124,127305,8335,-8003,136099,296,19195,1212,0,16353,0.0010000000000000009
319000,16446,862,127804,5222,6335,119671,411,19195,1683,0,16354,0.0010000000000000009
320000,12500,9444,128806,1410,4354,122740,501,19185,1683,1,16355,0.0010000000000000009
321000,7683,-4709,128482,366,-8801,131288,305,19172,2052,1,16356,0.0010000000000000009
322000,9905,-8689,129977,4359,-8458,131944,305,19202,1249,1,16357,0.0010000000000000009
323000,8361,-12293,129527,-10890,-11878,138285,422,19181,1728,1,16358,0.0010000000000000009
324000,1883,6396,129895,-840,10702,114771,541,19203,2216,0,16359,0.0010000000000000009
325001,14689,10883,131386,11076,5734,134227,380,19203,1556,0,16360,0.0010009999999999741
326000,5910,-8318,125665,-4859,-4623,126599,433,19192,1556,0,16361,0.0009990000000000276
327002,9334,7823,129704,-35917,6198,118613,498,19170,1773,1,16362,0.0010019999999999474
328000,8849,-7477,130582,33207,-13287,137783,498,19212,2040,1,16363,0.0009979999999999989
329000,-6233,-10199,131562,3144,-10281,130932,393,19180,1610,1,16364,0.0010000000000000009
330001,1014,-5628,131278,-46121,-4427,134350,475,19173,1945,0,16365,0.0010010000000000296
331000,-8381,19128,129660,5603,21413,116498,409,19197,1675,0,16366,0.0009989999999999721
332000,13926,16858,128013,-2593,11255,122328,418,19197,1675,0,16367,0.0010000000000000009
333000,8550,-4507,126318,-15731,-6048,126104,488,19185,1712,0,16368,0.0010000000000000009
334000,711,-12267,128117,9655,-14677,133856,488,19161,1999,1,16369,0.0010000000000000009
335000,809,-6396,130653,-11773,-4424,132420,361,19203,1479,1,16370,0.0010000000000000009
336002,4066,8541,130603,-9854,7649,122614,411,19193,1683,1,16371,0.0010020000000000029
337000,2188,1268,127251,-9768,-726,129329,513,19188,2101,0,16372,0.0009979999999999989
338000,1680,8392,125620,-6581,4152,121427,373,19188,2101,0,16373,0.0010000000000000009
339000,5210,-3813,126252,6188,-4389,129838,438,19193,1528,0,16374,0.0010000000000000009
340001,5428,10834,125158,-13694,11156,117070,438,19181,1794,1,16375,0.0010010000000000296
341000,9014,12152,127001,-1095,11446,119775,549,19223,2249,1,16376,0.0009989999999999721
342000,9867,-1998,125031,15268,-5109,132298,368,19184,1507,1,16377,0.0010000000000000009
343000,6209,-13415,124912,-25238,-13754,132774,450,19174,1843,1,16378,0.0010000000000000009
344000,6620,-4595,126189,5535,-5057,126396,585,19174,1843,0,16379,0.0010000000000000009
345000,3283,17575,129355,17956,18301,119684,395,19216,2396,0,16380,0.0010000000000000009
346000,15643,4031,124928,-22604,4323,124572,395,19187,1618,0,16381,0.0010000000000000009
347000,13675,4480,125176,5403,3834,125202,454,19172,1859,1,16382,0.0010000000000000009
348000,16232,1745,121320,24277,-2357,124792,260,19197,1065,1,16383,0.0010000000000000009
349000,14335,55,126659,2621,-306,123579,411,19188,1683,1,16384,0.0010000000000000009
350001,8666,-7607,127866,-477,-12820,136773,494,19188,1683,0,16385,0.0010010000000000296
351000,10894,-1088,126214,3292,10919,121367,344,19188,2023,0,16386,0.0009989999999999721
352000,13564,19674,128097,7285,13753,119517,344,19189,1409,0,16387,0.0010000000000000009
353000,16434,-3278,124690,5860,-12496,129238,419,19180,1716,0,16388,0.0010000000000000009
354000,10947,-11961,123312,3666,-6187,126716,521,19203,2134,1,16389,0.0010000000000000009
355000,18966,-3605,131903,14590,-3367,132866,347,19185,1421,1,16390,0.0010000000000000009
356000,18569,1811,128650,9314,1978,121977,424,19185,1737,1,16391,0.0010000000000000009
357000,6485,3700,128808,-5527,-1210,128700,545,19180,1737,0,16392,0.0010000000000000009
358000,9573,-1790,126691,3088,-4844,130971,391,19213,2232,0,16393,0.0010000000000000009
359000,13741,1954,127263,10474,3575,126210,391,19191,1601,0,16394,0.0010000000000000009
360000,12237,1606,129167,938,-191,123394,454,19178,1859,1,16395,0.0010000000000000009
361000,6328,2544,128507,-9283,1035,122211,476,19211,1950,1,16396,0.0010000000000000009
362000,13086,-8170,130074,13786,-14974,141645,389,19211,1593,1,16397,0.0010000000000000009
363000,6926,-11955,129599,-6734,-7197,131752,470,19191,1593,1,16398,0.0010000000000000009
364001,3828,-2613,126422,-9553,2449,121568,371,19169,1925,0,16399,0.0010009999999999741
365000,8982,20538,134345,11942,17339,123843,371,19198,1520,0,16400,0.0009990000000000276
366000,11315,-5791,125888,-8141,-16281,134944,409,19186,1675,0,16401,0.0010000000000000009
367000,8874,-5464,129378,-21024,3155,124326,499,19182,2044,1,16402,0.0010000000000000009
368001,6216,2650,130972,17814,-3086,128786,308,19182,1261,1,16403,0.0010009999999999741
369001,229,-3853,131801,1375,-6980,132313,428,19191,1261,1,16404,0.0010000000000000009
370001,-1464,-13409,130035,-35729,-16219,138015,538,19177,1753,0,16405,0.0010000000000000009
371000,-2419,6613,130622,1632,16758,120418,538,19200,2203,0,16406,0.0009990000000000276
372000,8733,29775,128383,814,20284,117474,384,19188,1573,0,16407,0.0010000000000000009
373000,7256,-6061,127350,-12587,-10615,128550,444,19177,1818,0,16408,0.0010000000000000009
374000,-255,-11679,125500,-6871,-13508,132216,582,19216,2384,1,16409,0.0010000000000000009
375000,4551,-5990,130907,-207,-2003,130211,373,19216,2384,1,16410,0.0010000000000000009
376000,3219,12365,132463,-9301,11146,121625,452,19184,1528,1,16411,0.0010000000000000009
377000,721,-5692,126271,-6667,-10512,136531,452,19175,1851,0,16412,0.0010000000000000009
378000,-5344,6758,124373,-11927,8012,118074,388,19197,1589,0,16413,0.0010000000000000009
379000,10224,15452,129781,-7473,10895,121123,411,19193,1683,0,16414,0.0010000000000000009
380000,10075,-5465,122835,10621,-6166,127103,485,19169,1986,1,16415,0.0010000000000000009
381000,2385,6508,127463,-7175,5504,120897,256,19169,1986,1,16416,0.0010000000000000009
382000,11009,-1819,125469,-8088,-3857,129098,417,19192,1049,1,16417,0.0010000000000000009
383000,4593,5097,127851,5098,4267,125280,417,19184,1708,1,16418,0.0010000000000000009
384000,4848,-10918,125381,-1270,-12669,135999,509,19168,2085,0,16419,0.0010000000000000009
385000,6204,11571,127383,-5739,15551,112230,294,19194,1204,0,16420,0.0010000000000000009
386000,19044,11666,127375,4557,9302,124541,417,19183,1708,0,16421,0.0010000000000000009
387002,14134,-6111,122867,11866,-7107,126887,535,19183,1708,1,16422,0.0010019999999999474
388000,11812,-1414,123581,884,-5830,125832,378,19226,2191,1,16423,0.0009979999999999989
389000,11768,-1829,127332,10891,-1634,126142,378,19183,1548,1,16424,0.0010000000000000009
390000,8619,12049,128278,4479,11061,121501,450,19171,1843,0,16425,0.0010000000000000009
391000,11105,-7916,125914,-5405,-8688,136676,454,19205,1859,0,16426,0.0010000000000000009
392000,14448,13204,125169,12070,11384,114674,392,19187,1606,0,16427,0.0010000000000000009
393000,18038,4811,127331,6388,5767,129360,455,19187,1606,0,16428,0.0010000000000000009
394002,13700,-9909,124049,3071,-10825,126559,386,19175,1864,1,16429,0.0010020000000000029
395000,14887,-8833,130719,12654,-7850,135906,386,19205,1581,1,16430,0.0009979999999999989
396000,15643,-807,128680,6699,-2166,120799,407,19184,1667,1,16431,0.0010000000000000009
397000,8748,7037,129518,-820,6668,129249,480,19163,1966,0,16432,0.0010000000000000009
398000,9934,-6125,125570,1591,-6105,131404,290,19194,1188,0,16433,0.0010000000000000009
399000,15003,7144,127853,8900,10709,118757,416,19194,1188,0,16434,0.0010000000000000009
400000,13994,5346,128941,1809,-3666,128731,520,19183,1704,1,16435,0.0010000000000000009
401000,8040,-6679,127088,1912,-5202,127922,520,19197,2130,1,16436,0.0010000000000000009
402000,8213,-4247,130350,847,-7973,136690,340,19185,1393,1,16437,0.0010000000000000009
403000,8282,-14131,128146,-3813,-8977,127764,432,19178,1769,1,16438,0.0010000000000000009
404000,3364,8151,130262,-5327,13811,122139,540,19212,2212,0,16439,0.0010000000000000009
405000,16044,2685,130412,17321,-3120,133772,377,19212,1544,0,16440,0.0010000000000000009
406005,3228,4615,126872,-23973,7507,118149,439,19195,1544,0,16441,0.0010050000000000336
407002,15499,-688,129677,-20567,-5734,129267,430,19175,1798,1,16442,0.0009969999999999701
408000,3622,-4743,130530,44868,-11459,134105,430,19208,1761,1,16443,0.0009979999999999989
409000,-2900,-12129,130958,-28303,-12747,136417,401,19186,1642,1,16444,0.0010000000000000009
410000,-1723,-2074,130934,-31121,4038,124426,477,19173,1954,0,16445,0.0010000000000000009
411000,-5888,19578,129235,9661,18077,123987,348,19173,1425,0,16446,0.0010000000000000009
412003,15046,13954,127132,-6197,10993,117535,415,19195,1425,0,16447,0.0010030000000000316
413000,3734,-4199,127640,-9959,-7506,129246,504,19181,1700,0,16448,0.0009969999999999701
414000,2777,-18354,126546,2036,-20337,140184,504,19160,2064,1,16449,0.0010000000000000009
415005,-1350,-2820,129882,-7782,3707,122829,283,19198,1159,1,16450,0.0010049999999999781
416003,6081,7249,131416,-12081,5056,129062,419,19185,1716,1,16451,0.0009979999999999989
417000,902,4943,126848,-11834,3953,121894,520,19195,2130,0,16452,0.0009970000000000256
418000,96,3299,125111,291,-4420,130493,376,19195,2130,0,16453,0.0010000000000000009
419000,5220,-596,125712,-1737,3857,123465,438,19190,1540,0,16454,0.0010000000000000009
420001,4902,16433,125485,-10479,14586,113544,438,19175,1794,1,16455,0.0010009999999999741
421000,9139,5499,126744,3584,3750,128694,522,19216,2138,1,16456,0.0009990000000000276
422000,12248,-1634,125645,12169,-7313,129429,386,19186,1581,1,16457,0.0010000000000000009
423002,6592,-16125,124559,-11487,-14375,134034,463,19174,1896,1,16458,0.0010020000000000029
424000,1352,6162,128686,-10470,7831,117955,489,19174,1896,0,16459,0.0009979999999999989
425000,11606,5465,129121,7803,3741,128149,393,19205,2003,0,16460,0.0010000000000000009
426000,9051,6216,125718,11335,6492,124064,393,19184,1610,0,16461,0.0010000000000000009
427001,8926,4310,121903,-16366,1274,121034,458,19178,1876,1,16462,0.0010009999999999741
428000,18119,4382,121762,9103,2048,121172,264,19191,1081,1,16463,0.0009990000000000276
429000,18057,5398,127382,26608,1818,125199,426,19190,1745,1,16464,0.0010000000000000009
430000,15814,-10513,126834,-920,-11255,133751,514,19190,1745,0,16465,0.0010000000000000009
431000,2744,2163,127101,-6756,3515,121465,360,19192,2105,0,16466,0.0010000000000000009
432002,13454,4925,127891,7722,1765,129591,360,19185,1474,0,16467,0.0010020000000000029
433000,16113,-970,124602,7932,-37,123248,419,19181,1716,0,16468,0.0009979999999999989
434000,9798,-84,127486,8735,-816,125289,527,19201,2158,1,16469,0.0010000000000000009
435000,15894,-6938,125160,-191,-7213,130470,356,19188,1458,1,16470,0.0010000000000000009
436000,20550,2017,128183,11919,2958,121984,438,19188,1458,1,16471,0.0010000000000000009
437000,13257,3882,130215,13839,2549,131576,543,19179,1794,0,16472,0.0010000000000000009
438000,9071,1485,126031,-10858,-2042,123631,543,19211,2224,0,16473,0.0010000000000000009
439000,10534,2601,130741,8705,1287,128639,389,19183,1593,0,16474,0.0010000000000000009
440001,12484,-7556,127013,11209,-7971,120555,449,19173,1839,1,16475,0.0010009999999999741
441000,5933,-77,127708,-10374,-837,129989,399,19199,1634,1,16476,0.0009990000000000276
442000,10638,-3952,131511,4585,-6187,133476,399,19199,1634,1,16477,0.0010000000000000009
443000,10308,-1334,129046,-3283,-1543,127751,487,19188,1634,1,16478,0.0010000000000000009
444000,5076,-1855,129201,-2228,-3031,123480,487,19169,1995,0,16479,0.0010000000000000009
445000,9790,14359,133206,8706,1091,131855,315,19198,1290,0,16480,0.0010000000000000009
446001,11734,-18525,122898,-5820,-13151,129549,407,19185,1667,0,16481,0.0010009999999999741
447003,4109,11200,131904,-12435,14044,118938,500,19191,2048,1,16482,0.0010020000000000029
448000,10335,-770,128430,16,-12877,135617,336,19191,1376,1,16483,0.0009969999999999701
449001,-4629,-8281,130423,12690,-4995,129688,442,19190,1376,1,16484,0.0010010000000000296
450000,-1827,-12027,130588,-26704,-13328,138861,561,19181,1810,0,16485,0.0009989999999999721
451000,-1703,12548,128537,5928,31616,109943,561,19209,2298,0,16486,0.0010000000000000009
452000,7304,28908,129460,-856,7443,130569,384,19187,1573,0,16487,0.0010000000000000009
453000,9095,-18358,124995,-11739,-16714,127956,442,19176,1810,0,16488,0.0010000000000000009
454000,-1621,-4544,125058,-7620,-3314,128612,586,19176,2400,1,16489,0.0010000000000000009
455000,5933,-3451,131682,-1360,554,128081,376,19221,2400,1,16490,0.0010000000000000009
456000,3646,12628,129773,-9390,8238,122965,468,19181,1540,1,16491,0.0010000000000000009
457001,1835,-9755,127193,-12307,-13294,140066,468,19173,1917,0,16492,0.0010010000000000296
458000,-5182,11883,125444,-6088,20305,108985,391,19197,1601,0,16493,0.0009989999999999721
459000,10987,8637,129658,-4015,-5776,134814,410,19185,1679,0,16494,0.0010000000000000009
460000,9382,-8656,121873,8479,-116,121523,485,19185,1986,1,16495,0.0010000000000000009
461000,2123,10209,127613,-11507,4017,124708,285,19179,1986,1,16496,0.0010000000000000009
462000,12515,-554,123289,-241,3803,124434,434,19193,1167,1,16497,0.0010000000000000009
463000,2861,9755,129165,7201,879,127068,434,19174,1778,1,16498,0.0010000000000000009
464000,5460,-19271,123261,-9323,-15223,136963,526,19185,2154,0,16499,0.0010000000000000009
465000,6727,18381,129774,-4566,24707,105973,356,19188,1458,0,16500,0.0010000000000000009
466000,19424,4759,126261,8379,-4243,136186,415,19183,1700,0,16501,0.0010000000000000009
467000,15592,-6971,121834,7983,-4051,119519,507,19183,1700,1,16502,0.0010000000000000009
468000,10360,1279,123523,4089,-4152,129628,393,19211,2077,1,16503,0.0010000000000000009
469000,13109,-79,126188,6321,1898,121385,393,19188,1610,1,16504,0.0010000000000000009
470000,8100,9417,127351,3269,4002,124646,468,19174,1917,0,16505,0.0010000000000000009
471000,11238,-8196,126753,-3578,-5565,135457,394,19203,1614,0,16506,0.0010000000000000009
472000,13393,14185,125021,15958,13868,109901,394,19188,1614,0,16507,0.0010000000000000009
473000,16431,-515,126892,2333,-6365,133995,460,19188,1614,0,16508,0.0010000000000000009
474000,14625,-11757,124652,7830,-8309,123181,323,19169,1884,1,16509,0.0010000000000000009
475000,15083,-5394,130406,12285,-5782,134188,323,19203,1323,1,16510,0.0010000000000000009
476000,17308,884,128952,-1784,2282,125859,405,19184,1659,1,16511,0.0010000000000000009
477000,7125,3903,128423,3732,236,124245,494,19189,2023,0,16512,0.0010000000000000009
478000,12545,-8343,125232,6425,-11674,137703,351,19190,1438,0,16513,0.0010000000000000009
479000,13475,12077,128107,5461,12118,113271,414,19190,1438,0,16514,0.0010000000000000009
480001,13683,3024,129409,2868,169,132468,526,19180,1696,1,16515,0.0010009999999999741
481000,6421,-6711,126555,-799,-7111,126201,526,19198,2154,1,16516,0.0009990000000000276
482000,9034,-490,132175,214,-4012,131811,368,19186,1507,1,16517,0.0010000000000000009
483000,4863,-11545,128612,-4532,-9732,132028,450,19177,1843,1,16518,0.0010000000000000009
484000,8364,8201,130382,-4338,7406,122654,568,19214,2326,0,16519,0.0010000000000000009
485000,10653,-2996,130054,22399,-3009,135114,385,19214,2326,0,16520,0.0010000000000000009
486000,5596,8491,127940,-24773,7995,118924,442,19186,1577,0,16521,0.0010000000000000009
487000,17338,-4126,131331,-20946,-4379,126164,442,19179,1810,1,16522,0.0010000000000000009
488000,-2160,-4322,128795,39999,-9160,134303,393,19201,1610,1,16523,0.0010000000000000009
489000,796,-13974,129186,-16837,-14904,131466,404,19187,1655,1,16524,0.0010000000000000009
490000,-7199,8439,132174,-37132,7471,123681,488,19161,1999,0,16525,0.0010000000000000009
491000,3643,11564,127322,5262,10739,121746,289,19161,1999,0,16526,0.0010000000000000009
492000,11673,17734,128966,599,15686,123947,415,19191,1184,0,16527,0.0010000000000000009
493000,3747,-11759,126218,-10220,-22559,135378,415,19186,1700,0,16528,0.0010000000000000009
494000,355,-16313,126001,-7964,-1889,127936,508,19166,2081,1,16529,0.0010000000000000009
495002,2891,4154,133511,-9879,2515,128738,272,19196,1114,1,16530,0.0010020000000000029
496002,4061,4202,129675,4165,6836,123993,428,19182,1753,1,16531,0.0010000000000000009
497000,593,4885,126862,-20037,-1506,129666,543,19182,2224,0,16532,0.0009979999999999989
498000,-1214,-2862,122391,11471,858,125018,385,19199,2224,0,16533,0.0010000000000000009
499001,6165,17734,126390,-14439,18650,115084,441,19188,1577,0,16534,0.0010009999999999741
500000,14987,5217,126875,-4843,-766,124526,441,19182,1806,1,16535,0.0009990000000000276
501000,3184,346,126407,19475,-937,130278,429,19211,1757,1,16536,0.0010000000000000009
502000,8178,-14487,124225,-11807,-17063,136016,390,19190,1597,1,16537,0.0010000000000000009
503000,2831,-3674,126893,-3936,6401,116730,472,19190,1933,1,16538,0.0010000000000000009
504000,1611,12600,127083,743,7085,129386,411,19174,1933,0,16539,0.0010000000000000009
505000,13527,2182,126062,-5950,7531,117846,396,19202,1683,0,16540,0.0010000000000000009
506000,15896,15442,126175,2475,7413,122961,396,19184,1622,0,16541,0.0010000000000000009
507000,13739,-10075,122705,11366,-14739,131790,466,19193,1909,1,16542,0.0010000000000000009
508000,13295,712,121624,6498,3989,117118,308,19196,1261,1,16543,0.0010000000000000009
509000,11842,-148,128612,2846,-6835,138368,429,19181,1757,1,16544,0.0010000000000000009
510000,11429,-2794,124571,46,3174,120018,522,19181,1757,0,16545,0.0010000000000000009
511001,7621,13256,128835,4074,10723,124046,373,19199,2138,0,16546,0.0010009999999999186
512001,15168,406,124712,8831,-1413,126112,373,19189,1528,0,16547,0.0010000000000000009
513000,15262,-3759,124399,8047,-5097,123481,424,19179,1737,0,16548,0.0009990000000000832
514000,12840,-8955,127601,6158,-9570,134933,545,19218,2232,1,16549,0.0010000000000000009
515000,20179,-105,128037,7161,362,120773,367,19187,1503,1,16550,0.0010000000000000009
516000,13827,3891,128113,2482,3483,128615,446,19187,1503,1,16551,0.0010000000000000009
517000,10165,1723,129663,1603,-909,127785,435,19172,1827,0,16552,0.0010000000000000009
518000,10262,-2255,124525,5327,-6341,129272,435,19203,1782,0,16553,0.0010000000000000009
519000,13510,1359,128908,5936,1018,126949,396,19179,1622,0,16554,0.0010000000000000009
520000,12850,1710,127588,5031,1133,119964,460,19166,1884,1,16555,0.0010000000000000009
521001,7458,-4164,128964,-4628,-6970,133539,370,19203,1515,1,16556,0.0010009999999999186
522000,12028,-7633,129453,5482,-8053,132077,404,19203,1515,1,16557,0.0009990000000000832
523001,4817,986,131086,-8128,412,129314,500,19181,1655,1,16558,0.0010009999999999186
524000,2622,-7113,125492,-2663,-6111,126376,500,19163,2048,0,16559,0.0009990000000000832
525000,10845,17113,133599,8270,19283,121274,273,19201,1118,0,16560,0.0010000000000000009
526000,12604,-14469,122084,-3302,-19541,143371,413,19182,1692,0,16561,0.0010000000000000009
527000,5923,9965,131690,-24990,14614,108224,515,19200,2109,1,16562,0.0010000000000000009
528000,13063,5352,131222,15081,-3586,134613,356,19200,2109,1,16563,0.0010000000000000009
529000,-4461,-17449,128892,13712,-18530,137091,445,19189,1458,1,16564,0.0010000000000000009
530000,-2504,-9513,131106,-45596,-11020,134593,445,19183,1823,0,16565,0.0010000000000000009
531000,-3153,3809,127514,133,6073,126386,576,19224,2359,0,16566,0.0010000000000000009
532000,8527,40880,128552,2309,37553,105961,396,19186,1622,0,16567,0.0010000000000000009
533000,8288,-13163,127372,-11518,-15107,138511,454,19165,1859,0,16568,0.0010000000000000009
534000,-1937,-10982,123661,-9219,-11168,125111,513,19165,1859,1,16569,0.0010000000000000009
535000,9054,-7903,132435,64,-7762,131327,385,19216,2101,1,16570,0.0010000000000000009
536000,3627,12742,130769,-4168,11395,118348,385,19195,1577,1,16571,0.0009999999999998899
537000,1908,-6352,128078,-7200,-7884,142404,477,19172,1954,0,16572,0.0010000000000000009
538000,-5175,3445,123715,-14067,-2105,110845,328,19197,1343,0,16573,0.0010000000000000009
539000,8831,19649,126701,-8825,18761,128948,418,19182,1712,0,16574,0.0010000000000000009
540000,11660,-5969,123625,10076,2160,121072,503,19182,2060,1,16575,0.0010000000000000009
541000,227,10990,127335,-1530,2451,125155,327,19193,2060,1,16576,0.0010000000000000009
542000,12826,-9521,125200,-15594,-6178,132894,428,19190,1339,1,16577,0.0010000000000000009
543000,2027,6889,128463,8000,4250,123127,428,19183,1753,1,16578,0.0010000000000000009
544000,6364,-9587,124850,-11816,-9709,134343,545,19208,2232,0,16579,0.0010000000000000009
545000,5885,10687,127114,-6728,22651,107440,375,19192,1536,0,16580,0.0010000000000000009
546000,17911,13292,126941,8602,-4234,134817,426,19192,1745,0,16581,0.0010000000000000009
547000,16670,-10055,121942,8638,-4418,121205,422,19177,1745,1,16582,0.0010000000000000009
548001,12894,3679,124766,4610,-3187,128388,391,19207,1728,1,16583,0.0010010000000000296
549001,11740,-6487,126375,2368,-2284,128208,391,19182,1601,1,16584,0.0010000000000000009
550001,7374,9181,127782,763,5636,123271,468,19179,1917,0,16585,0.0010000000000000009
551002,11390,-4873,126222,3624,-3940,135473,403,19200,1651,0,16586,0.0010010000000000296
552002,14412,12926,123940,15942,18335,108233,405,19200,1659,0,16587,0.0010000000000000009
553000,16062,3444,126538,1485,-9956,132718,475,19188,1659,0,16588,0.0009979999999999434
554000,15308,-16420,126236,5395,-10805,127301,280,19176,1945,1,16589,0.0010000000000000009
555000,15127,-3577,129793,13396,-6071,133292,280,19194,1147,1,16590,0.0010000000000000009
556000,14999,-1137,128343,-4280,4517,124779,415,19179,1700,1,16591,0.0010000000000000009
557000,6804,9967,128821,873,3259,124035,507,19203,2077,0,16592,0.0010000000000000009
558000,13353,-10538,124092,9964,-11077,136986,372,19199,1524,0,16593,0.0010000000000000009
559000,14494,12283,127620,4149,13263,113652,430,19199,1524,0,16594,0.0010000000000000009
560001,13533,3088,129268,-403,-4742,131064,547,19180,1761,1,16595,0.0010010000000000296
561000,7066,-7402,128042,3573,-4907,125884,547,19210,2240,1,16596,0.0009989999999999721
562000,7129,-6398,129394,8246,-9173,134808,361,19189,1479,1,16597,0.0010000000000000009
563002,7080,-5052,131258,-18048,-3935,131757,442,19183,1810,1,16598,0.0010020000000000584
564001,5345,644,127470,8087,3946,121982,507,19211,2077,0,16599,0.0009989999999999721
565000,10684,8105,131448,9508,5996,132841,399,19211,2077,0,16600,0.0009989999999999721
566000,10451,2696,127029,-24856,3456,116817,462,19186,1634,0,16601,0.0010000000000000009
567001,8905,-2315,131264,-7874,-6521,133062,462,19170,1892,1,16602,0.0010010000000000296
568002,8215,-9126,130115,24182,-11499,134092,385,19198,1577,1,16603,0.0010010000000000296
569000,-4297,355,131941,-8670,-1700,125913,411,19181,1683,1,16604,0.0009979999999999434
570000,-3771,2360,131178,-41174,3498,132513,497,19166,2036,0,16605,0.0010000000000000009
571000,3151,8359,129514,4140,7598,122431,316,19166,2036,0,16606,0.0010000000000000009
572001,9391,10092,126655,15848,8541,127650,434,19188,1294,0,16607,0.0010010000000000296
573000,5446,-929,128162,-24704,-2681,121892,434,19181,1778,0,16608,0.0009989999999999721
574000,-2083,-13286,126782,-8957,-13830,134048,528,19175,2163,1,16609,0.0010000000000000009
575000,5292,-3772,132837,2017,-1908,132901,311,19190,1274,1,16610,0.0010000000000000009
576000,4991,9660,129456,-3847,8946,122581,425,19182,1741,1,16611,0.0010000000000000009
577000,-2611,3602,126901,-14953,1008,126957,553,19182,1741,0,16612,0.0010000000000000009
578000,1488,2472,122417,-9447,-1225,124489,399,19214,2265,0,16613,0.0010000000000000009
579001,11409,8087,127891,580,7466,122044,399,19187,1634,0,16614,0.0010010000000000296
580000,11073,9230,126915,7092,8685,121549,458,19173,1876,1,16615,0.0009989999999999721
581001,-1338,-2480,125507,-7551,-3776,126729,375,19205,1536,1,16616,0.0010010000000000296
582000,9230,-7178,125346,-10061,-8276,130268,390,19185,1597,1,16617,0.0009989999999999721
583000,5719,1067,127671,6903,778,124034,470,19185,1925,1,16618,0.0010000000000000009
584000,5107,6415,126477,353,6070,123389,407,19171,1925,0,16619,0.0010000000000000009
585007,10582,1579,125960,-8039,1910,121385,407,19193,1667,0,16620,0.0010069999999999801
586002,15481,8441,125290,8353,7772,125800,407,19188,1667,0,16621,0.0009950000000000792
587000,15907,-879,123193,4037,-1738,123300,488,19197,1999,1,16622,0.0009979999999999434
588000,13712,2176,123615,10628,-1374,126453,334,19189,1368,1,16623,0.0010000000000000009
589000,10939,-5785,125511,7886,-7439,132283,427,19189,1749,1,16624,0.0010000000000000009
590000,10469,-1793,126192,-2417,4965,121075,528,19172,1749,0,16625,0.0010000000000000009
591001,9051,7998,128069,4687,8265,127438,382,19209,2163,0,16626,0.0010010000000000296
592000,14405,3661,125020,-975,2963,121464,382,19189,1565,0,16627,0.0009989999999999721
593000,13598,2849,126794,5920,-2704,125147,435,19179,1782,1,16628,0.0010000000000000009
594000,13963,-11447,127064,14961,-12445,135865,549,19217,2249,1,16629,0.0010000000000000009
595000,17265,-8764,125316,6623,-3879,122197,374,19217,1532,1,16630,0.0010000000000000009
596000,13961,5629,128928,-2613,1380,128341,446,19188,1532,1,16631,0.0010000000000000009
597000,12131,1142,127596,6042,3060,125795,392,19172,1827,0,16632,0.0010000000000000009
598001,12970,9029,127650,5775,6024,127523,392,19194,1606,0,16633,0.0010010000000000296
599000,10560,-688,128477,-2330,-5713,131235,406,19189,1663,0,16634,0.0009989999999999721
600000,9864,-6550,126402,2064,-3959,121216,481,19172,1970,1,16635,0.0010000000000000009
601000,7573,-3625,129618,6683,-5871,136324,312,19197,1278,1,16636,0.0010000000000000009
602000,12033,-5256,128774,131,-3941,128762,407,19197,1278,1,16637,0.0010000000000000009
603000,7151,4168,131311,-11351,2148,127566,506,19184,1667,1,16638,0.0010000000000000009
604000,3611,-5450,127103,4312,-1435,123839,506,19183,2072,0,16639,0.0010000000000000009
605001,12346,17524,132058,6121,11402,128034,341,19194,1397,0,16640,0.0010010000000000296
606000,6854,-19307,123317,-12927,-21941,138268,420,19185,1720,0,16641,0.0009989999999999721
607000,5629,12178,132173,-23429,21156,109344,538,19211,2203,1,16642,0.0010000000000000009
608000,14129,2319,129883,30082,-11052,138689,367,19211,2203,1,16643,0.0010000000000000009
609000,-4586,-14578,128004,-4199,-13616,131490,449,19190,1503,1,16644,0.0010000000000000009
610000,-269,-8586,130193,-40262,-10468,136954,449,19171,1839,0,16645,0.0010000000000000009
611002,-6620,9714,127900,5685,21473,115991,526,19207,2154,0,16646,0.0010019999999999474
612002,9272,39761,129796,-5408,30044,114451,403,19188,1651,0,16647,0.0010000000000000009
613000,8832,-19650,126855,-4854,-25980,140147,467,19179,1913,0,16648,0.0009980000000000544
614000,-2662,-11903,124059,-4896,-7330,126573,439,19179,1913,1,16649,0.0010000000000000009
615002,7362,-7311,131493,-9319,-5216,133331,400,19209,1798,1,16650,0.0010019999999999474
616000,3039,13254,128220,-9268,17744,114574,400,19185,1638,1,16651,0.0009980000000000544
617002,6817,565,130453,-2093,-6570,139618,487,19165,1995,0,16652,0.0010019999999999474
618001,-3316,443,120066,-1899,2593,120516,276,19186,1130,0,16653,0.0009990000000000832
619000,4907,16747,127471,-22179,9873,119079,426,19186,1745,0,16654,0.0009989999999999721
620000,14232,-5650,123614,7133,-2976,127917,521,19186,1745,1,16655,0.0010000000000000009
621000,3115,9845,128137,14904,7536,120672,353,19205,2134,1,16656,0.0010000000000000009
622000,9568,-11796,123554,-16099,-13096,137493,353,19187,1446,1,16657,0.0010000000000000009
623000,201,5848,128514,-4707,6821,116580,438,19181,1794,1,16658,0.0010000000000000009
624000,7858,-3464,125887,8623,-4724,136870,550,19207,2253,0,16659,0.0010000000000000009
625000,10351,11542,127355,-2443,13591,112669,381,19191,1560,0,16660,0.0010000000000000009
626000,15584,8432,124896,-3895,4989,126221,435,19191,1560,0,16661,0.0010000000000000009
627000,13718,-13210,123194,6989,-14415,130507,380,19180,1782,1,16662,0.0010000000000000009
628000,13423,8556,124009,12010,5285,117977,380,19201,1556,1,16663,0.0010000000000000009
629000,13780,-7015,125652,6906,-8991,136041,405,19185,1659,1,16664,0.0010000000000000009
630000,5687,8809,125259,-561,8693,124596,476,19167,1950,0,16665,0.0010000000000000009
631000,11282,-3529,128400,-7373,-3372,131626,332,19205,1360,0,16666,0.0010000000000000009
632000,19092,10561,124617,21064,9715,113079,407,19205,1667,0,16667,0.0010000000000000009
633000,12066,1024,127353,7892,627,134730,494,19184,1667,1,16668,0.0010000000000000009
634000,13564,-14990,125200,-6722,-15258,125625,276,19173,2023,1,16669,0.0010000000000000009
635000,17270,-2410,129877,17168,-2903,135144,276,19190,1130,1,16670,0.0010000000000000009
636000,15686,-64,128139,10911,5476,121416,408,19182,1671,1,16671,0.0010000000000000009
637000,7176,8785,127949,-5961,-253,125467,510,19203,2089,0,16672,0.0010000000000000009
638000,13345,-6198,124858,2622,-8672,135117,374,19203,1532,0,16673,0.0010000000000000009
639004,18405,6787,127895,7152,11900,119131,434,19193,1532,0,16674,0.0010040000000000049
640000,11635,5736,129649,-3263,-8712,130264,574,19181,1778,1,16675,0.0009959999999999969
641000,3875,-9642,127094,2398,-4241,123297,574,19225,2351,1,16676,0.0010000000000000009
642000,10433,-1465,130480,8034,-7476,140569,375,19184,1536,1,16677,0.0010000000000000009
643001,4200,-12525,129781,-11443,-9175,131463,451,19175,1847,0,16678,0.0010009999999999186
644000,6661,4246,127633,-3892,16887,112496,421,19175,1724,0,16679,0.0009990000000000832
645000,13534,18608,132832,16545,4664,136402,398,19201,1724,0,16680,0.0010000000000000009
646000,6782,-12415,123325,-24518,-11752,122239,473,19189,1630,0,16681,0.0010000000000000009
647000,8977,393,131110,-11297,-2983,133998,473,19170,1937,1,16682,0.0010000000000000009
648000,7407,-8344,128005,33708,-6452,131011,280,19192,1147,1,16683,0.0010000000000000009
649000,-4688,12734,129712,-33401,7485,120723,416,19181,1704,1,16684,0.0010000000000000009
650000,2069,-12397,129090,-23991,-15785,142747,508,19185,2081,0,16685,0.0010000000000000009
651000,-1669,9071,128538,16865,21300,114139,361,19185,2081,0,16686,0.0010000000000000009
652000,11031,19766,129571,-5535,9232,127101,431,19194,1479,0,16687,0.0010000000000000009
653000,2202,-4736,127966,-17305,-5973,121784,431,19183,1765,0,16688,0.0010000000000000009
654000,1877,-11750,126899,-3167,-17184,140565,555,19197,2273,1,16689,0.0010000000000000009
655000,5775,-10009,129971,-3482,1396,128328,355,19189,1454,1,16690,0.0009999999999998899
656001,3411,20966,130770,-10282,14154,117247,438,19179,1794,1,16691,0.0010010000000000296
657000,-828,-8221,124710,-9194,-12242,137668,524,19179,1794,0,16692,0.0009989999999999721
658000,916,12324,124379,-11304,15965,113928,401,19206,2146,0,16693,0.0010000000000000009
659000,13460,9938,127896,-1500,2198,130959,401,19178,1642,0,16694,0.0010000000000000009
660000,6308,962,123610,10059,5812,119255,464,19176,1900,1,16695,0.0010000000000000009
661000,2005,-1140,126968,-17103,-5635,130898,348,19200,1425,1,16696,0.0010000000000000009
662000,9768,-6043,124794,2450,-2016,128552,409,19180,1675,1,16697,0.0010000000000000009
663000,4663,8286,128636,10635,5871,124502,487,19180,1675,1,16698,0.0010000000000000009
664001,5153,-7658,124652,-11977,-5513,130512,342,19169,1995,0,16699,0.0010010000000000296
665000,8245,14993,127054,-7531,15690,111701,342,19195,1401,0,16700,0.0009989999999999721
666000,19593,3179,124219,12047,-503,132848,405,19187,1659,0,16701,0.0010000000000000009
667002,12432,1408,124042,7856,823,119109,507,19202,2077,1,16702,0.0010020000000000584
668000,14078,-6532,122588,1504,-10408,131503,358,19187,1466,1,16703,0.0009979999999999434
669000,11043,-442,126144,6854,1368,123684,441,19187,1466,1,16704,0.0010000000000000009
670000,10211,9328,127578,4471,6579,124204,548,19179,1806,0,16705,0.0010000000000000009
671000,11102,-4283,126367,-3335,-2067,132194,548,19218,2244,0,16706,0.0010000000000000009
672000,15178,7030,124712,13254,7067,115498,383,19193,1569,0,16707,0.0010000000000000009
673000,15735,-1051,126090,7632,-2007,129167,439,19172,1798,1,16708,0.0010000000000000009
674000,14316,-4982,126096,4527,-4891,125087,494,19211,2023,1,16709,0.0010000000000000009
675000,15945,-9643,128568,9935,-10897,134478,397,19211,1626,1,16710,0.0010000000000000009
676000,14178,2986,127618,185,3130,125633,464,19185,1626,1,16711,0.0010000000000000009
677000,7674,6496,129414,4680,4703,132385,339,19175,1900,0,16712,0.0010000000000000009
678000,14071,-2832,125432,5782,-6017,126049,339,19202,1388,0,16713,0.0010000000000000009
679000,14516,3183,126799,1087,1845,124385,406,19195,1663,0,16714,0.0010000000000000009
680000,12270,1893,128875,5294,1613,126230,492,19172,2015,1,16715,0.0010000000000000009
681000,7332,-2204,129210,1051,-2442,131065,284,19172,1163,1,16716,0.0010000000000000009
682000,6084,-12261,129117,1698,-12348,139707,426,19198,1163,1,16717,0.0010000000000000009
683000,5801,-7529,129789,-11965,-3957,122136,525,19182,1745,0,16718,0.0010000000000000009
684000,4475,12401,130367,1708,21278,119511,525,19201,2150,0,16719,0.0010000000000000009
685000,15667,14353,130477,8843,-8459,136910,369,19190,1511,0,16720,0.0010000000000000009
686000,5037,-13176,124087,-3018,-3299,120441,425,19178,1741,0,16721,0.0010000000000000009
687000,10201,7169,132859,-12986,2328,129320,560,19178,2294,1,16722,0.0010000000000000009
688000,10796,-7473,128902,34165,-14185,134475,384,19221,2294,1,16723,0.0010000000000000009
689000,-5388,-7155,130711,-36661,-6324,134460,463,19184,1573,1,16724,0.0010000000000000009
690001,2736,-3924,130201,-17910,619,128714,463,19174,1896,0,16725,0.0010010000000000296
691000,-7935,19306,128087,8263,28522,112930,395,19199,1618,0,16726,0.0009989999999999721
692001,16415,19117,130520,-11263,1095,129245,409,19185,1675,0,16727,0.0010010000000000296
693000,2474,-15302,125255,1105,-14636,127445,478,19171,1958,1,16728,0.0009989999999999721
694000,-452,-2545,130310,-11329,-6142,134826,394,19171,1958,1,16729,0.0010000000000000009
695000,6657,-6792,130132,-7125,-3559,127904,403,19202,1614,1,16730,0.0010000000000000009
696000,-99,7658,130140,-12612,7051,123871,403,19188,1651,1,16731,0.0010000000000000009
697000,6729,821,128119,-10116,-528,130528,498,19176,2040,0,16732,0.0010000000000000009
698000,-2096,11040,123062,9349,10981,118579,336,19192,1376,0,16733,0.0010000000000000009
699000,7567,4246,125294,-26204,-571,129457,426,19184,1745,0,16734,0.0010000000000000009
700000,11195,4672,125496,4546,9461,114831,535,19184,1745,1,16735,0.0010000000000000009
701000,5210,10770,129044,13932,5179,129751,371,19212,2191,1,16736,0.0010000000000000009
702000,12351,-11291,125855,-6684,-14005,132242,371,19187,1520,1,16737,0.0010000000000000009
703000,-2521,-6609,126557,-7447,-6677,127728,451,19169,1847,0,16738,0.0010000000000000009
704000,9101,1638,126247,-1360,7121,126325,564,19212,2310,0,16739,0.0010000000000000009
705000,11585,21983,126608,5732,22526,110134,386,19188,1581,0,16740,0.0010000000000000009
706000,16314,-808,124433,-5096,-7588,136130,442,19188,1581,0,16741,0.0010000000000000009
707000,9118,-11000,121990,6681,-7685,122684,331,19176,1810,1,16742,0.0010000000000000009
708000,15415,6977,124839,10721,6246,124365,331,19197,1356,1,16743,0.0010000000000000009
709000,16390,-2529,125257,4886,-2851,129082,421,19186,1724,1,16744,0.0010000000000000009
710000,4589,3122,125012,-82,2160,122877,494,19170,2023,0,16745,0.0010000000000000009
711000,14248,-1529,127708,-3639,668,132108,282,19191,1155,0,16746,0.0010000000000000009
712000,16814,12264,126121,22481,13427,113061,411,19191,1155,0,16747,0.0010000000000000009
713000,14918,-4785,126003,7359,-10656,133159,502,19184,1683,1,16748,0.0010000000000000009
714000,10764,-13708,125707,-4447,-10107,127186,502,19198,2056,1,16749,0.0010000000000000009
715000,17262,2472,129580,9574,715,129164,333,19180,1364,1,16750,0.0010000000000000009
716000,14781,-1675,126949,9082,-1833,131377,424,19182,1737,1,16751,0.0010000000000000009
717002,4371,4338,127902,-1851,1869,119383,535,19224,2191,0,16752,0.0010019999999999474
718000,15330,-519,125934,-928,-2425,133074,382,19224,2191,0,16753,0.0009980000000000544
719000,17264,4802,125879,9278,4711,122510,436,19186,1565,0,16754,0.0010000000000000009
720000,14056,210,128005,9437,-2246,126693,436,19178,1786,1,16755,0.0010000000000000009
721000,4172,-5894,129277,-8687,-5623,126033,488,19215,1999,1,16756,0.0010000000000000009
722000,11942,-4819,130466,5090,-7033,133731,388,19185,1589,1,16757,0.0010000000000000009
723001,2147,-10530,130567,1527,-11308,138210,478,19171,1958,0,16758,0.0010010000000000296
724003,3954,830,125991,-14580,1489,120530,392,19171,1606,0,16759,0.0010019999999999474
725000,13055,21832,131551,9878,19157,135117,402,19185,1606,0,16760,0.0009970000000000256
726000,7564,-11205,123173,-3408,-13715,124780,479,19177,1646,0,16761,0.0010000000000000009
727000,8523,201,130848,-24832,-156,127852,479,19167,1962,1,16762,0.0010000000000000009
728000,8357,2702,129781,19817,-1907,132235,264,19195,1081,1,16763,0.0010000000000000009
729000,550,818,130328,5486,-4904,130306,427,19181,1749,1,16764,0.0010000000000000009
730001,-982,-13278,128375,-37903,-13235,138226,535,19181,2191,0,16765,0.0010010000000000296
731002,-1385,10768,131967,-2315,27861,111922,381,19195,2191,0,16766,0.0010009999999999186
732000,12227,23943,128685,7718,5342,127464,434,19185,1560,0,16767,0.0009980000000000544
733000,2903,-7240,128628,-14255,-10486,125830,434,19179,1778,1,16768,0.0010000000000000009
734000,1710,-11397,126346,-4563,-14079,138011,560,19209,2294,1,16769,0.0010000000000000009
735002,5745,-5444,130912,-224,7170,124138,371,19195,1520,1,16770,0.0010019999999999474
736000,4171,16377,130190,-10477,4018,124938,454,19171,1859,1,16771,0.0009980000000000544
737001,-2564,-9931,124932,-9475,-9143,134251,443,19171,1859,0,16772,0.0010010000000000296
738002,1771,12981,123771,-11620,21198,113186,409,19201,1814,0,16773,0.0010009999999999186
739000,12107,12242,127592,-2411,70,130665,409,19180,1675,0,16774,0.0009980000000000544
740000,7552,-835,122165,8649,589,120189,468,19171,1917,1,16775,0.0010000000000000009
741000,4130,-439,128978,-10496,-3451,130688,252,19197,1032,1,16776,0.0010000000000000009
742000,10683,-3513,126645,-539,2355,125129,418,19183,1712,1,16777,0.0010000000000000009
743000,4836,6221,128957,7489,-1023,129414,513,19183,1712,0,16778,0.0010000000000000009
744000,3867,-9445,124077,-10979,-5982,128924,278,19166,2101,0,16779,0.0010000000000000009
745000,10723,17834,125848,-5413,21845,110354,278,19195,1139,0,16780,0.0010000000000000009
746001,17321,6358,124980,13675,-2965,131846,412,19185,1687,0,16781,0.0010009999999999186
747000,10907,-3259,123402,4342,-4055,122380,513,19216,2101,1,16782,0.0009990000000000832
748000,15313,-6488,123868,3437,-9606,132651,364,19189,1491,1,16783,0.0010000000000000009
749020,11054,851,126472,3463,7226,121656,449,19189,1491,1,16784,0.0010200000000000209
750000,10762,6562,126316,3150,1415,127531,558,19176,1839,0,16785,0.0009799999999999809
751002,10184,-10660,126922,2320,-312,131184,558,19211,2285,0,16786,0.0010019999999999474
752000,17639,11403,125148,12408,10764,116071,390,19183,1597,0,16787,0.0009980000000000544
753000,13087,1081,124364,6202,-4085,127286,442,19175,1810,1,16788,0.0010000000000000009
754000,14139,-6632,125955,334,-7274,127207,392,19207,1606,1,16789,0.0010000000000000009
755000,16873,-9464,127792,15335,-10677,134996,392,19207,1606,1,16790,0.0010000000000000009
756000,12926,3480,128225,-1148,4542,122604,478,19185,1606,1,16791,0.0010000000000000009
757000,6648,4965,128858,1941,107,126475,478,19170,1958,0,16792,0.0010000000000000009
758000,13905,-2647,125292,4738,-3048,132781,288,19192,1180,0,16793,0.0010000000000000009
759001,15400,5140,127060,1570,6529,120743,409,19180,1675,0,16794,0.0010009999999999186
760000,11786,6148,128914,2671,2867,124341,499,19189,2044,1,16795,0.0009990000000000832
761000,7567,-7125,129110,3282,-8469,130823,317,19189,2044,1,16796,0.0010000000000000009
762000,7976,-10910,131135,3845,-12723,134496,438,19192,1298,1,16797,0.0010000000000000009
763000,5611,-10234,128085,-8496,-10395,133033,438,19176,1794,0,16798,0.0010000000000000009
764000,4141,14042,131756,-1403,16748,115542,548,19203,2244,0,16799,0.0010000000000000009
765000,15938,6220,127139,10507,-1260,136775,376,19191,1540,0,16800,0.0010000000000000009
766000,2893,-3919,126074,-14344,-1735,122378,432,19180,1769,0,16801,0.0010000000000000009
767000,13875,6484,132452,-26339,3715,122951,489,19180,2003,1,16802,0.0010000000000000009
768000,8102,-9616,129632,41111,-13866,137543,400,19214,2003,1,16803,0.0010000000000000009
769000,-4089,-6639,129956,-17663,-8995,130837,478,19185,1638,1,16804,0.0010000000000000009
770000,2114,-4486,129052,-36526,-3541,132390,478,19169,1958,0,16805,0.0010000000000000009
771000,-6658,24710,129174,10759,25376,115084,396,19193,1622,0,16806,0.0010000000000000009
772000,17342,8957,129874,-8420,7291,129275,411,19185,1683,0,16807,0.0010000000000000009
773000,945,-8050,126083,-7930,-9440,126928,492,19185,2015,1,16808,0.0010000000000000009
774000,524,-7011,129328,2108,-8244,138634,334,19168,2015,1,16809,0.0009999999999998899
775000,6018,-4135,130751,-12430,-3915,120969,415,19197,1368,1,16810,0.0010000000000000009
776000,132,8497,129340,-6053,6549,130516,415,19182,1700,1,16811,0.0010000000000000009
777000,3817,2054,127415,-16233,5270,122519,516,19198,2113,0,16812,0.0010000000000000009
778000,219,10763,122695,6430,4309,124871,369,19188,1511,0,16813,0.0010000000000000009
779000,6794,-1103,124384,-7540,1289,127229,428,19188,1753,0,16814,0.0010000000000000009
780000,9357,11673,125259,-11679,14204,111619,555,19191,1753,1,16815,0.0010000000000000009
781000,7438,8124,129313,9975,-2385,135674,377,19225,2273,1,16816,0.0010000000000000009
782000,13714,-9517,127741,-11594,-13187,130172,377,19187,1544,1,16817,0.0010000000000000009
783000,271,-12331,126197,1438,-11372,131150,461,19177,1888,0,16818,0.0010000000000000009
784000,3199,6461,127854,-5123,15925,118758,571,19209,2339,0,16819,0.0010000000000000009
785000,13657,19804,126204,-456,12864,118799,388,19190,1589,0,16820,0.0010000000000000009
786000,13939,2571,124597,5960,-4115,131545,452,19190,1589,1,16821,0.0010000000000000009
787000,12065,-5741,122418,5261,-4344,122113,255,19181,1851,1,16822,0.0010000000000000009
788009,15954,-99,124132,6942,1487,123498,255,19193,1044,1,16823,0.0010090000000000376
789002,13657,1689,127494,4084,-1503,129929,422,19184,1728,1,16824,0.0009930000000000216
790000,8427,-5634,123982,4471,-3219,128181,505,19185,2068,0,16825,0.0009979999999999434
791000,12071,8594,128402,-727,14017,120578,349,19189,1429,0,16826,0.0010000000000000009
792000,17056,8697,126523,13782,1165,123428,413,19189,1429,0,16827,0.0010000000000000009
793000,15221,-7809,124071,6161,-10472,128453,522,19183,1692,1,16828,0.0010000000000000009
794000,12365,-7976,127464,1699,-6991,129877,522,19199,2138,1,16829,0.0010000000000000009
795002,15788,-3081,127291,11286,1113,127897,366,19188,1499,1,16830,0.0010020000000000584
796002,14508,3658,127498,3632,3765,126910,449,19199,1839,1,16831,0.0010000000000000009
797000,6104,-2210,127805,-550,-3497,129499,537,19201,2199,0,16832,0.0009979999999999434
798003,16312,3134,125486,4247,3512,124872,390,19201,2199,0,16833,0.0010030000000000872
799000,15352,484,126288,4623,-1156,128386,449,19188,1597,0,16834,0.0009969999999999146
800000,12806,869,127731,5426,281,120278,449,19172,1839,1,16835,0.0010000000000000009
801001,6719,-2007,129828,452,-4208,132465,397,19210,1626,1,16836,0.0010010000000000296
802000,10636,-9705,130828,-1243,-10642,136102,395,19185,1618,1,16837,0.0009989999999999721
803002,2959,-2440,130748,-920,-2400,128512,479,19159,1962,0,16838,0.0010020000000000584
804000,3249,-4628,127102,-4479,-2197,128137,312,19159,1962,0,16839,0.0009979999999999434
805000,13088,21677,130661,4390,19599,118518,408,19181,1278,0,16840,0.0010000000000000009
806000,9024,-11858,123133,-7212,-20121,138253,408,19181,1671,0,16841,0.0010000000000000009
807000,6327,2569,129616,-17165,7348,116850,497,19188,2036,1,16842,0.0010000000000000009
808002,8378,3028,130941,16539,-6371,133193,314,19187,1286,1,16843,0.0010020000000000584
809000,-1999,-6454,127977,-8726,-6299,133733,431,19178,1765,1,16844,0.0009979999999999434
810000,-2541,-10240,129572,-31644,-13938,135001,550,19178,2253,0,16845,0.0010000000000000009
811002,-185,8966,130213,3737,17129,121070,390,19211,2253,0,16846,0.0010020000000000584
812000,12206,27988,129768,3028,22662,115953,390,19189,1597,0,16847,0.0009979999999999434
813000,4661,-13277,126794,-11558,-16288,132596,445,19176,1823,1,16848,0.0010000000000000009
814000,928,-6578,126033,-14025,-6744,129090,582,19221,2384,1,16849,0.0010000000000000009
815000,6486,-3389,130764,5419,-3261,131826,373,19192,1528,1,16850,0.0010000000000000009
816000,2428,12559,130145,-13173,10531,120670,461,19192,1888,1,16851,0.0010000000000000009
817000,-2758,-9502,126006,-8977,-13329,137904,391,19176,1888,0,16852,0.0010000000000000009
818000,2182,13222,124731,-9127,13251,117725,415,19196,1601,0,16853,0.0010000000000000009
819000,13490,16455,127636,-3605,13927,122130,415,19182,1700,0,16854,0.0010000000000000009
820000,7583,-5331,122279,8206,-6038,121096,484,19176,1982,1,16855,0.0010000000000000009
821000,6295,4628,129597,-8384,6064,129535,287,19191,1175,1,16856,0.0010000000000000009
822000,8895,-5145,126284,-3222,-5532,126924,429,19191,1757,1,16857,0.0010000000000000009
823000,4894,6609,128754,7551,5803,129518,529,19182,1757,0,16858,0.0010000000000000009
824000,3825,-10297,124183,-4874,-1714,126765,359,19187,2167,0,16859,0.0010000000000000009
825001,10863,17092,126328,-8208,21206,112066,359,19188,1470,0,16860,0.0010010000000000296
826000,17614,8445,124296,5245,-7157,132257,420,19181,1720,1,16861,0.0009989999999999721
827000,11077,-4759,123156,11665,-2100,121723,501,19217,2052,1,16862,0.0010000000000000009
828000,16706,-4138,124854,2555,-7834,130989,377,19184,1544,1,16863,0.0010000000000000009
829001,11028,-1836,126546,5612,7110,121779,457,19184,1544,1,16864,0.0010010000000000296
830000,9574,8270,125348,1655,497,128867,408,19181,1872,0,16865,0.0009989999999999721
831000,12324,-7946,127194,4829,-414,126456,408,19202,1671,0,16866,0.0010000000000000009
832001,17830,11843,125761,8514,13170,115618,398,19184,1630,0,16867,0.0010010000000000296
833000,15493,17,125884,3765,-9307,131383,458,19159,1876,1,16868,0.0009989999999999721
834000,12911,-8682,124757,7137,-6692,127070,325,19199,1331,1,16869,0.0010000000000000009
835000,17223,-6351,128681,15186,-7705,134941,396,19199,1331,1,16870,0.0010000000000000009
836000,10848,732,127605,-2763,5227,120842,491,19190,1622,1,16871,0.0010000000000000009
837000,6830,5322,129343,269,-3016,130282,491,19181,2011,0,16872,0.0010000000000000009
838002,13713,-5082,125058,6889,-2128,130477,322,19190,1319,0,16873,0.0010019999999999474
839000,16080,8352,127310,-1004,11782,117319,416,19174,1704,0,16874,0.0009980000000000544
840000,11055,4288,128469,2586,-3108,128243,518,19204,2122,1,16875,0.0010000000000000009
841002,7409,-13377,129570,7655,-8021,132020,343,19204,2122,1,16876,0.0010019999999999474
842002,9199,-8107,130613,-2892,-12224,138997,433,19189,1405,1,16877,0.0010000000000000009
843000,2151,-10595,127786,-5598,-3233,123409,433,19170,1773,0,16878,0.0009980000000000544
844001,7210,16098,131202,-1037,16874,122653,564,19214,2310,0,16879,0.0010010000000000296
845000,12206,-691,126699,17890,-7385,135505,389,19189,1593,0,16880,0.0009989999999999721
846000,2891,6678,128393,-34239,6163,115878,444,19175,1818,0,16881,0.0010000000000000009
847000,14994,-541,131348,-5734,-6110,131958,392,19175,1818,1,16882,0.0010000000000000009
848000,2772,-7438,128142,39727,-11364,134967,396,19205,1606,1,16883,0.0010000000000000009
849000,-275,-11308,128779,-43967,-10936,135336,396,19186,1622,1,16884,0.0010000000000000009
850002,-2812,1830,129098,-16444,7484,123694,488,19168,1999,0,16885,0.0010019999999999474
851002,-163,21749,130034,11491,20578,122879,331,19194,1356,0,16886,0.0010000000000000009
852002,14569,7343,129232,-13283,3319,121280,419,19182,1716,0,16887,0.0010000000000000009
853003,1204,-6448,126794,-4439,-9995,128558,499,19182,1716,1,16888,0.0010010000000000296
854000,2297,-13982,127953,-965,-15512,139414,257,19165,2044,1,16889,0.0009970000000000256
855000,2586,1667,128537,-11820,3937,121924,257,19195,1053,1,16890,0.0010000000000000009
856000,3376,8178,130509,-12270,5633,130158,419,19183,1716,1,16891,0.0010000000000000009
857002,-1262,4701,125477,-11373,5108,121922,538,19199,2203,0,16892,0.0010019999999999474
858000,6006,4481,124357,1061,674,129416,391,19188,1601,0,16893,0.0009980000000000544
859000,6464,-327,124112,-5017,1591,125710,442,19188,1810,0,16894,0.0010000000000000009
860000,7464,16106,125026,-11226,14791,111095,489,19175,1810,1,16895,0.0010000000000000009
861000,11598,3334,127651,12344,3182,131241,382,19213,2003,1,16896,0.0010000000000000009
862000,10502,-8909,127071,8499,-11197,131156,382,19182,1565,1,16897,0.0010000000000000009
863000,2480,-12375,124563,-23824,-11411,132674,453,19181,1855,0,16898,0.0010000000000000009
864000,4949,12713,129044,1290,13842,118843,467,19205,1913,0,16899,0.0010000000000000009
865000,10217,9519,124198,19864,6629,125107,398,19205,1630,0,16900,0.0010000000000000009
866000,10260,5398,123983,-20774,5358,122801,465,19185,1630,1,16901,0.0010000000000000009
867002,12031,3002,124178,-1983,2268,127513,279,19179,1905,1,16902,0.0010019999999999474
868002,22886,1797,123838,31910,1727,120034,279,19191,1143,1,16903,0.0010000000000000009
869002,14233,-2027,125620,1509,-2916,132387,426,19184,1745,1,16904,0.0010000000000000009
870000,6340,-11319,127066,-6741,-12206,129985,517,19199,2117,0,16905,0.0009980000000000544
871000,11966,5474,128358,3614,7709,120866,369,19199,1511,0,16906,0.0010000000000000009
872000,18948,9738,130226,15609,5062,125464,423,19191,1511,0,16907,0.0010000000000000009
873003,13160,-1641,124026,7240,-10309,124150,540,19181,1732,1,16908,0.0010029999999999761
874002,9734,-10567,124497,-3698,-9102,132554,540,19207,2212,1,16909,0.0009989999999999721
875001,20089,-2125,127106,11232,5486,125163,358,19190,1466,1,16910,0.0009989999999999721
876000,14590,7360,128244,6711,147,127236,438,19177,1794,0,16911,0.0009990000000000832
877000,6146,-1862,128002,-10017,-926,127454,447,19215,1831,0,16912,0.0010000000000000009
878000,13624,560,127685,9357,-930,128098,400,19215,1831,0,16913,0.0010000000000000009
879000,16039,-2359,127112,7175,-2307,129641,461,19191,1638,0,16914,0.0010000000000000009
880000,10470,-1331,126912,-1912,274,119350,461,19176,1888,1,16915,0.0010000000000000009
881000,7416,124,130219,-178,-1519,129420,371,19199,1520,1,16916,0.0010000000000000009
882000,12242,-6854,130907,3346,-10595,138535,403,19182,1651,1,16917,0.0010000000000000009
883000,4128,-9818,128719,-2598,-11476,131133,490,19169,2007,0,16918,0.0010000000000000009
884000,4136,9656,130979,-1853,20302,117452,272,19169,2007,0,16919,0.0010000000000000009
885000,12546,13155,127194,3330,-2649,133148,415,19187,1114,0,16920,0.0010000000000000009
886000,6869,-11227,126535,-14090,-3564,124963,415,19186,1700,0,16921,0.0010000000000000009
887000,9798,-1115,132334,-2731,-4995,129624,516,19200,2113,1,16922,0.0010000000000000009
888000,5627,-3620,128243,13818,-3659,129584,363,19186,1487,1,16923,0.0010000000000000009
889000,-4084,-1349,130965,-33535,-8403,134562,446,19178,1827,1,16924,0.0010000000000000009
890000,307,-10550,127302,-7774,-2111,130793,566,19178,1827,0,16925,0.0010000000000000009
891000,2968,26000,131662,5548,28050,115514,402,19218,2318,0,16926,0.0010000000000000009
892000,11462,7018,128562,-7437,-2892,128470,402,19181,1646,0,16927,0.0010000000000000009
893000,1517,-11488,124934,-12839,-12317,126994,459,19187,1880,1,16928,0.0009999999999998899
894000,3887,-9620,127688,-3906,-7807,135897,595,19205,2437,1,16929,0.0010000000000000009
895000,1990,7556,129961,-5108,12411,118965,399,19185,1634,1,16930,0.0010000000000000009
896000,3461,8561,129897,-13337,-1878,132274,472,19185,1634,1,16931,0.0010000000000000009
897001,-3278,-9094,125328,-8234,-6579,127040,379,19172,1933,0,16932,0.0010010000000000296
898000,6044,17726,125470,-5667,16411,117575,379,19196,1552,0,16933,0.0009989999999999721
899000,13691,658,125277,-1782,-3290,129723,424,19192,1737,0,16934,0.0010000000000000009
900004,5028,2837,123919,5236,4197,119318,502,19188,2056,1,16935,0.0010040000000000049
901000,9397,-2706,127906,-11550,-1373,131755,321,19193,1315,1,16936,0.0009959999999999969
902000,7158,8812,127652,5548,9384,119471,422,19193,1728,1,16937,0.0010000000000000009
903000,4410,-4745,126531,2105,-11017,136953,522,19174,1728,0,16938,0.0010000000000000009
904000,3906,-5375,123928,-11393,37,122511,369,19195,2138,0,16939,0.0010000000000000009
905002,12362,18945,126169,-321,15402,116219,369,19192,1511,0,16940,0.0010020000000000584
906000,18567,1787,124251,11307,-472,129251,429,19181,1757,1,16941,0.0009979999999999434
907000,8566,-2656,123543,2157,-4227,122979,435,19210,1782,1,16942,0.0010000000000000009
908000,16028,-5659,125455,2465,-2395,132956,385,19210,1577,1,16943,0.0010000000000000009
909002,11167,8595,126116,6122,8889,119914,454,19183,1577,1,16944,0.0010020000000000584
910002,10821,-587,126478,3546,-2809,131017,391,19174,1859,0,16945,0.0010000000000000009
911000,14049,-3149,126250,1243,968,125593,391,19200,1601,0,16946,0.0009979999999999434
912000,17262,9377,128101,14103,10151,119475,405,19190,1659,0,16947,0.0010000000000000009
913000,16492,-4573,123989,5582,-6610,128670,478,19171,1958,1,16948,0.0010000000000000009
914000,10108,-5543,125606,2730,-6893,127301,268,19171,1098,1,16949,0.0010000000000000009
915000,16544,-5968,128136,10240,-7060,128801,402,19196,1098,1,16950,0.0010000000000000009
916002,11767,6129,128293,839,5859,121852,499,19183,1646,0,16951,0.0010020000000000584
917000,8014,-3597,128863,3426,-6253,136854,499,19209,2044,0,16952,0.0009979999999999434
918000,15381,-4781,125986,5965,-4047,117754,369,19185,1511,0,16953,0.0010000000000000009
919000,14179,10977,128212,-1224,7028,126754,429,19176,1757,0,16954,0.0010000000000000009
920000,11637,-2588,127984,4211,-6548,128721,543,19205,2224,1,16955,0.0010000000000000009
921000,6950,-6114,128712,3188,-6718,128625,362,19205,2224,1,16956,0.0010000000000000009
922000,12859,-9518,131613,-1692,-13430,139436,424,19186,1483,1,16957,0.0010000000000000009
923000,1573,-4455,128626,-990,4574,118735,424,19175,1737,0,16958,0.0010000000000000009
924000,9743,9524,130565,10742,1882,134777,585,19216,2396,0,16959,0.0010000000000000009
925000,6797,1434,127409,-210,6090,123657,393,19192,1610,0,16960,0.0010000000000000009
926000,6703,8397,128763,-38507,-1665,122731,458,19171,1876,1,16961,0.0010000000000000009
927000,12858,-4520,131014,25563,-5444,133971,371,19171,1876,1,16962,0.0010000000000000009
928000,-1282,-9169,127810,10061,-15224,134136,403,19197,1520,1,16963,0.0010000000000000009
929000,3809,-9997,129306,-45353,-3730,130738,403,19185,1651,1,16964,0.0010000000000000009
930000,-6951,8712,128954,1920,13912,121367,494,19168,2023,0,16965,0.0010000000000000009
931000,7896,14369,130895,989,15074,120889,275,19193,1126,0,16966,0.0010000000000000009
932000,9203,10064,129293,-14862,3253,124572,427,19183,1749,0,16967,0.0010000000000000009
933000,2247,-12287,127816,4930,-22862,137655,526,19183,1749,1,16968,0.0010000000000000009
934000,-306,-14005,125217,-15470,-4142,128770,306,19186,2154,1,16969,0.0010000000000000009
935000,5606,6928,132019,-3509,5122,125799,306,19193,1253,1,16970,0.0010000000000000009
936000,2045,6594,127865,-6974,3660,126285,424,19187,1737,1,16971,0.0010000000000000009
937000,-2418,4705,126771,-18998,-1274,128075,552,19221,2261,0,16972,0.0010000000000000009
938000,3571,-1393,122748,6,4732,124653,395,19189,1618,0,16973,0.0010000000000000009
939000,11256,18553,126050,1040,17542,116503,454,19189,1618,0,16974,0.0010000000000000009
940000,8284,3961,123036,-4806,329,123840,405,19166,1859,1,16975,0.0010000000000000009
941002,12265,-2712,128620,-1310,-3045,127642,405,19203,1659,1,16976,0.0010020000000000584
942000,13307,-10467,126696,11791,-15505,138550,393,19185,1610,1,16977,0.0009979999999999434
943000,1399,-3775,128220,-6685,1090,120617,471,19171,1929,0,16978,0.0010000000000000009
944000,-2923,10310,127759,-24907,4965,126565,393,19205,1610,0,16979,0.0010000000000000009
945000,11306,4611,125247,13759,6297,124934,406,19205,1610,0,16980,0.0010000000000000009
946000,13050,16818,123715,10331,12824,118471,485,19189,1663,1,16981,0.0010000000000000009
947000,12489,-3879,121754,-10140,-6789,124048,485,19188,1986,1,16982,0.0010000000000000009
948000,23455,-2265,122959,19837,1165,121920,324,19189,1327,1,16983,0.0010000000000000009
949000,15098,-5034,128307,9815,-7012,137393,423,19175,1732,1,16984,0.0010000000000000009
950000,11546,-924,126792,-11216,1549,122721,522,19193,2138,0,16985,0.0010000000000000009
951001,5326,2074,129834,14951,591,130154,375,19193,1536,0,16986,0.0010010000000000296
952003,13948,-1900,125729,2107,-287,126617,431,19185,1536,0,16987,0.0010019999999999474
953000,16232,1104,124271,978,2677,118261,566,19191,1765,1,16988,0.0009970000000000256
954000,12723,1115,124354,14147,-698,131722,566,19220,2318,1,16989,0.0010000000000000009
955002,21222,1121,125514,6106,1387,121180,380,19191,1556,1,16990,0.0010019999999999474
956000,11512,2062,128745,828,1312,128332,448,19178,1835,0,16991,0.0009980000000000544
957000,8721,-8023,128400,11923,-10360,134746,381,19178,1560,0,16992,0.0010000000000000009
958000,11455,-2041,126995,-2026,1055,124588,407,19202,1560,0,16993,0.0010000000000000009
959000,14822,6432,130813,-7178,5738,127338,477,19186,1667,0,16994,0.0010000000000000009
960000,10003,-2406,127337,15192,-3662,124959,477,19164,1954,1,16995,0.0010000000000000009
961000,5076,-5582,130612,-5607,-4701,128097,306,19197,1253,1,16996,0.0010000000000000009
962000,13003,-4893,131543,-617,-5035,138225,402,19185,1646,1,16997,0.0010000000000000009
963000,6242,-13418,124428,7027,-14054,119611,496,19185,2031,0,16998,0.0010000000000000009
964000,8281,27778,134645,-2912,29246,123177,343,19191,2031,0,16999,0.0010000000000000009
965000,12378,-3744,125168,-2556,-7568,135254,423,19194,1405,0,17000,0.0010000000000000009
966000,6506,-5106,129150,-10159,-4827,121611,423,19171,1732,1,17001,0.0010000000000000009
967000,6354,-5837,130898,-4015,-17789,139312,540,19203,2212,1,17002,0.0010000000000000009
968000,2322,-6536,128557,13607,4985,121744,365,19187,1495,1,17003,0.0010000000000000009
969000,-811,2092,131538,-28618,-9635,140697,442,19174,1810,1,17004,0.0010000000000000009
970000,-18,-5087,128010,-11639,17225,115399,524,19174,1810,0,17005,0.0010000000000000009
971000,5812,29117,130523,3565,16533,122907,403,19208,2146,0,17006,0.0010000000000000009
972001,10654,-7033,128242,-12480,-14693,131499,403,19193,1651,0,17007,0.0010010000000000296
973000,1160,-8010,124330,-9461,-5437,125392,466,19167,1909,1,17008,0.0009989999999999721
974000,2879,-5309,130682,-3846,-4281,135025,490,19203,2007,1,17009,0.0010000000000000009
975000,1652,11308,129193,-4508,11393,118815,387,19179,1585,1,17010,0.0010000000000000009
976000,3334,-2992,128897,-13369,-16674,142049,478,19179,1585,0,17011,0.0010000000000000009
977000,-5312,-4155,125553,-12469,12355,115387,307,19177,1958,0,17012,0.0010000000000000009
978000,9628,21915,127410,-2085,8524,124473,307,19194,1257,0,17013,0.0010000000000000009
979000,13136,-4471,123804,2794,-2383,127365,425,19182,1741,0,17014,0.0010000000000000009
980000,4394,6771,126059,-4070,2176,122102,518,19196,2122,1,17015,0.0010000000000000009
981000,10317,-8011,125774,-6201,-4208,130342,348,19188,1425,1,17016,0.0010000000000000009
982000,7182,13155,129447,3434,11962,119567,434,19188,1425,1,17017,0.0010000000000000009
983000,5911,-10290,125146,-2460,-17649,139920,548,19177,1778,0,17018,0.0010000000000000009
984002,2661,1449,124038,-11805,14367,112218,548,19197,2244,0,17019,0.0010019999999999474
985000,13436,18133,126009,8245,7500,127181,381,19190,1560,0,17020,0.0009980000000000544
986003,16581,-4690,123830,12119,-4685,125485,434,19179,1778,1,17021,0.0010029999999999761
987000,7664,14,124511,-642,-6746,125221,369,19206,1511,1,17022,0.0009970000000000256
988000,15039,-7997,125903,7683,-2210,128066,399,19206,1511,1,17023,0.0010000000000000009
989000,10643,13420,126907,4480,12562,118347,474,19187,1634,1,17024,0.0010000000000000009
990000,10566,-5418,125943,148,-7920,134962,474,19169,1941,0,17025,0.0010000000000000009
991000,14150,3539,126439,6837,9554,116246,335,19191,1372,0,17026,0.0010000000000000009
992001,17803,7032,128115,8171,3085,127203,407,19185,1667,0,17027,0.0010009999999999186
993000,17678,-10574,124006,5028,-10811,128155,489,19170,2003,1,17028,0.0009990000000000832
994000,10567,-5126,126904,9925,-7070,129735,273,19170,1118,1,17029,0.0010000000000000009
995000,16300,-5047,127380,7633,-3181,130488,418,19188,1118,1,17030,0.0010000000000000009
996000,10739,6979,128825,262,4699,120539,516,19184,1712,0,17031,0.0010000000000000009
997000,8600,-6023,128305,3115,-7963,137022,516,19204,2113,0,17032,0.0010000000000000009
998000,14628,3536,126714,4374,11370,120045,371,19192,1520,0,17033,0.0010000000000000009
999000,13877,11131,128879,-3664,7071,126090,432,19180,1769,0,17034,0.0010000000000000009
1000000,11963,-7853,126378,8363,-7950,129405,566,19180,2318,1,17035,0.0010000000000000009
1001000,8053,-7161,130551,3901,-4994,128539,377,19231,2318,1,17036,0.0009999999999998899
1002000,13342,-11888,131369,-3965,-13051,140871,455,19189,1544,1,17037,0.001000000000000112
1003000,952,661,130262,-2125,2538,117321,455,19175,1864,0,17038,0.0009999999999998899
1004000,9522,6443,128572,-372,5325,133293,468,19205,1917,0,17039,0.001000000000000112
1005000,5472,6181,127686,10654,4951,124923,392,19192,1606,0,17040,0.0009999999999998899
1006000,10134,2761,129002,-36991,-161,121596,466,19192,1909,1,17041,0.001000000000000112
1007000,10514,-348,132494,12275,-1277,130556,316,19179,1909,1,17042,0.0009999999999998899
1008000,220,-12983,127464,24722,-16791,135208,416,19196,1294,1,17043,0.001000000000000112
1009002,2070,-9032,130226,-43592,-7831,133101,416,19182,1704,1,17044,0.0010019999999999474
1010002,-5313,5790,127781,-9413,5124,126825,508,19173,2081,0,17045,0.0009999999999998899
1011002,8713,16698,130647,7745,19405,114062,340,19190,1393,0,17046,0.001000000000000112
1012002,10299,14745,130182,-11748,13471,131808,425,19179,1741,0,17047,0.0009999999999998899
1013000,1181,-21664,125075,1496,-24071,135382,544,19179,1741,1,17048,0.0009980000000000544
1014000,1585,-6370,128347,-16655,-769,126662,344,19196,2228,1,17049,0.001000000000000112
1015000,4962,2235,130257,-1339,5144,128297,344,19192,1409,1,17050,0.0009999999999998899
1016000,-1180,11858,129567,-5847,5518,123846,438,19169,1794,0,17051,0.001000000000000112
1017000,302,-135,125854,-22413,-3689,130378,563,19216,2306,0,17052,0.0009999999999998899
1018000,2391,5006,123870,8726,14411,118080,395,19187,1618,0,17053,0.001000000000000112
1019000,11682,14193,126468,-19683,4169,120382,455,19187,1618,0,17054,0.0009999999999998899
1020000,11480,-1294,125119,11083,144,124397,376,19171,1864,1,17055,0.001000000000000112
1021000,7118,-3207,130548,6006,-13823,135980,376,19205,1540,1,17056,0.0009999999999998899
1022000,10195,-13937,125378,-19784,-7413,127932,409,19182,1675,1,17057,0.001000000000000112
1023000,-623,10073,128038,7594,12382,120213,487,19169,1995,0,17058,0.0009999999999998899
1024000,3479,6456,124892,-5427,890,127990,387,19188,1585,0,17059,0.001000000000000112
1025000,13829,12671,123249,-2099,17451,113149,399,19188,1585,0,17060,0.0009999999999998899
1026001,14173,7061,126880,14917,-7594,133559,497,19187,1634,1,17061,0.0010010000000000296
1027000,13546,-13554,121244,2886,-9583,122110,497,19204,2036,1,17062,0.0009989999999999721
1028000,13372,825,126641,10563,760,126535,349,19189,1429,1,17063,0.001000000000000112
1029000,11065,-2770,127344,-134,-1030,132417,440,19176,1802,1,17064,0.0009999999999998899
1030002,12124,5570,124685,-1870,10437,117692,535,19214,2191,0,17065,0.0010019999999999474
1031000,12339,7703,130094,10061,4066,128083,374,19214,1532,0,17066,0.0009980000000000544
1032002,20779,-84,125100,4062,-4529,121996,431,19199,1532,0,17067,0.0010019999999999474
1033000,14736,-9134,124117,8086,-11303,130545,431,19181,1765,1,17068,0.0009980000000000544
1034000,10975,-5150,126809,10080,-2921,129304,539,19220,2208,1,17069,0.001000000000000112
1035000,17803,3559,125763,6855,4369,122355,384,19189,1573,1,17070,0.0009999999999998899
1036001,10235,6514,130135,101,3717,127970,458,19173,1876,0,17071,0.0010010000000000296
1037000,8899,636,127776,2543,-2439,128416,377,19173,1876,0,17072,0.0009989999999999721
1038000,13475,-6950,127619,3057,-3381,129777,399,19198,1544,0,17073,0.001000000000000112
1039000,14581,-3136,128730,4388,-1351,125402,399,19190,1634,0,17074,0.0009999999999998899
1040000,10291,1008,127518,4382,-83,124464,472,19186,1933,1,17075,0.001000000000000112
1041000,9539,-7052,129383,-170,-7362,134290,277,19193,1135,1,17076,0.0009999999999998899
1042000,10824,-3185,130580,-2917,-497,130644,426,19183,1745,1,17077,0.001000000000000112
1043000,5902,-1584,128694,-556,-4497,128867,518,19183,2122,0,17078,0.0009999999999998899
1044000,1689,6505,128271,1120,13088,119062,362,19204,2122,0,17079,0.001000000000000112
1045000,12727,4780,129516,4409,-8327,139975,422,19192,1483,0,17080,0.0009999999999998899
1046000,4664,-18091,123451,-12675,-6986,123430,422,19183,1728,1,17081,0.001000000000000112
1047000,9992,22016,135887,-14992,17214,118903,556,19229,2277,1,17082,0.0009999999999998899
1048000,9215,-15328,127399,28904,-16686,140438,380,19184,1556,1,17083,0.001000000000000112
1049000,-6534,-4902,130755,-33517,-6738,128657,460,19184,1884,1,17084,0.0009999999999998899
1050001,1521,-10819,128445,-18021,-7863,138060,431,19173,1884,0,17085,0.0010010000000000296
1051000,2025,27580,131822,11629,32665,105394,400,19201,1765,0,17086,0.0009989999999999721
1052000,15096,11576,129998,-6556,3402,132809,400,19186,1638,0,17087,0.001000000000000112
1053000,-1461,-19276,123880,-11443,-18714,129312,473,19174,1937,1,17088,0.0009999999999998899
1054000,689,-564,128447,-10330,-1504,129405,412,19211,1687,1,17089,0.001000000000000112
1055000,4499,-2112,131242,-2304,-3202,130214,400,19185,1638,1,17090,0.0009999999999998899
1056001,1652,12914,129937,-8333,10353,120386,493,19185,1638,0,17091,0.0010010000000000296
1057001,-2225,-13530,124830,-11745,-16069,122885,287,19165,2019,0,17092,0.0009999999999998899
1058001,1920,19701,125054,-10365,21631,117305,287,19187,1175,0,17093,0.001000000000000112
1059000,15918,-1222,126265,-2547,-3475,132891,421,19185,1724,0,17094,0.0009989999999999721
1060000,3678,4638,123213,11693,5335,113687,528,19208,2163,1,17095,0.001000000000000112
1061000,11735,1983,128959,-14839,2147,136446,361,19187,1479,1,17096,0.0009999999999998899
1062000,9179,-3863,125517,3332,6273,120276,444,19187,1479,1,17097,0.001000000000000112
1063000,4817,2147,127279,7218,-12004,136604,563,19177,1818,0,17098,0.0009999999999998899
1064000,4019,-7018,123262,-9965,12113,114091,563,19207,2306,0,17099,0.001000000000000112
1065000,10250,25295,126872,-5395,10998,123562,381,19192,1560,0,17100,0.0009999999999998899
1066000,17389,-5110,123283,13278,-17325,132720,439,19176,1798,1,17101,0.001000000000000112
1067003,9317,1876,125029,2293,5747,117081,358,19196,1466,1,17102,0.0010029999999998651
1068000,15898,-4213,126739,7847,-10267,133407,417,19196,1466,1,17103,0.0009970000000001367
1069000,9164,2989,126052,3485,10292,116402,486,19181,1708,1,17104,0.0009999999999998899
1070000,12699,4196,127240,-2838,-8333,138441,486,19168,1991,0,17105,0.001000000000000112
1071000,16117,-3522,126042,12198,11273,113195,274,19193,1122,0,17106,0.0009999999999998899
1072001,17065,18367,127964,2502,3212,125171,411,19188,1683,0,17107,0.0010010000000000296
1073001,16604,-19411,124591,4888,-17085,132758,504,19186,2064,1,17108,0.0009999999999998899
1074000,11274,-1747,126087,15263,-620,125679,320,19186,2064,1,17109,0.0009989999999999721
1075000,17282,-5793,127951,5789,-4353,134009,419,19186,1311,1,17110,0.001000000000000112
1076003,9213,10650,128394,-789,11610,113814,419,19181,1716,0,17111,0.0010030000000000872
1077000,7715,-4012,127719,3414,-14909,142027,521,19215,2134,0,17112,0.0009969999999999146
1078000,14810,-3583,126623,8565,9123,116499,381,19190,1560,0,17113,0.0009999999999998899
1079000,14507,13493,129372,1869,5648,125490,439,19171,1798,0,17114,0.001000000000000112
1080000,12196,-10210,127932,-72,-9148,129346,531,19171,1798,1,17115,0.0009999999999998899
1081000,10121,-2866,130983,7663,-4195,128142,387,19210,2175,1,17116,0.001000000000000112
1082000,7941,-13147,131137,-6086,-12077,138347,387,19191,1585,1,17117,0.0009999999999998899
1083002,8121,101,128361,-10977,3226,120784,460,19173,1884,0,17118,0.0010020000000001694
1084002,3656,8596,132502,20949,7680,131216,389,19194,1593,0,17119,0.0009999999999998899
1085000,9560,3990,126352,-11433,-2590,126896,398,19188,1630,0,17120,0.0009980000000000544
1086000,11513,3013,129836,-23964,1695,122035,482,19188,1974,1,17121,0.0009999999999998899
1087000,2840,-7155,130065,18963,-16022,139702,261,19167,1974,1,17122,0.001000000000000112
1088000,5361,-13285,125403,6129,-4581,130057,423,19191,1069,1,17123,0.0009999999999998899
1089000,-5045,-112,129708,-42960,1498,130641,423,19187,1732,1,17124,0.001000000000000112
1090000,492,4153,126587,-2724,9084,124860,521,19193,2134,0,17125,0.0009999999999998899
1091000,7191,14332,128550,10214,14587,122814,369,19182,1511,0,17126,0.001000000000000112
1092000,8696,1938,129004,-15257,-1448,127260,430,19182,1761,0,17127,0.0009999999999998899
1093000,3021,-7647,125775,-10554,-10237,126028,557,19183,1761,1,17128,0.001000000000000112
1094000,718,-9563,128881,-2430,-9619,137184,366,19201,2281,1,17129,0.0009999999999998899
1095000,6717,5179,128606,-3838,5338,123287,366,19191,1499,1,17130,0.001000000000000112
1096000,-2751,8226,127189,-9045,4477,127810,444,19177,1818,0,17131,0.0009999999999998899
1097000,-3425,873,125954,-19487,803,125194,466,19205,1909,0,17132,0.001000000000000112
1098002,8587,8234,126540,-2424,10062,121615,401,19205,1642,0,17133,0.0010019999999999474
1099000,13700,4461,126325,3472,2914,127060,466,19184,1642,0,17134,0.0009980000000000544
1100000,4910,3738,124367,1428,2258,117692,316,19172,1909,1,17135,0.0009999999999998899
1101000,8571,-12050,126521,-12640,-11295,135773,316,19198,1294,1,17136,0.001000000000000112
1102000,12175,1178,127948,7863,2837,125895,411,19186,1683,1,17137,0.0009999999999998899
1103000,2782,2731,125342,4038,-67,127483,496,19166,2031,0,17138,0.001000000000000112
1104000,3483,6462,124370,-17286,6967,121350,307,19195,1257,0,17139,0.0009999999999998899
1105003,11920,9340,124490,1093,6256,129165,407,19195,1257,0,17140,0.0010030000000000872
1106002,17984,1532,125018,12169,1006,120220,511,19181,1667,1,17141,0.0009989999999999721
1107000,10433,1851,124924,6308,442,126121,511,19216,2093,1,17142,0.0009980000000000544
1108000,11464,-10369,125035,2807,-9292,129857,364,19189,1491,1,17143,0.0009999999999998899
1109000,11811,-620,126209,-1756,5895,123823,446,19178,1827,1,17144,0.001000000000000112
1110002,9778,6236,127322,9401,5493,126879,557,19220,2281,0,17145,0.0010019999999999474
1111000,15871,8848,127853,1172,3495,117709,384,19220,2281,0,17146,0.0009980000000000544
1112001,17128,1404,126013,5377,-5370,130388,440,19189,1573,0,17147,0.0010010000000000296
1113001,16971,-10587,126236,11897,-10698,128424,440,19177,1802,1,17148,0.0009999999999998899
1114000,10339,-1172,125326,10485,-4035,126710,433,19208,1773,1,17149,0.0009989999999999721
1115002,14350,-1380,128072,-3440,2060,128337,390,19186,1597,1,17150,0.0010020000000001694
1116000,12344,3938,128580,6005,2961,124630,469,19172,1921,0,17151,0.0009979999999998324
1117000,8571,2540,129610,6534,81,131083,305,19172,1921,0,17152,0.001000000000000112
1118000,14139,-3530,127680,3297,-5737,124423,406,19196,1249,0,17153,0.0009999999999998899
1119000,12269,-2210,127378,2587,661,124645,406,19187,1663,0,17154,0.001000000000000112
1120000,12459,-957,129367,1881,-3510,130861,497,19189,2036,1,17155,0.0009999999999998899
1121002,10456,-6670,130118,2377,-4472,127862,297,19190,1216,1,17156,0.0010020000000001694
1122000,10485,3123,133198,-8574,-428,131798,427,19181,1749,1,17157,0.0009979999999998324
1123000,3875,-11681,125675,-44,-11768,128742,532,19181,1749,0,17158,0.001000000000000112
1124000,3643,9646,130017,4651,19834,120079,371,19195,2179,0,17159,0.0009999999999998899
1125000,15696,3628,127867,4447,-14231,141778,371,19186,1520,0,17160,0.001000000000000112
1126000,3484,-6317,128041,-22452,10658,109077,425,19187,1741,1,17161,0.0009999999999998899
1127000,10675,16107,134304,-2076,-3329,134831,528,19219,2163,1,17162,0.001000000000000112
1128000,4300,-24945,127699,26660,-21440,138886,391,19184,1601,1,17163,0.0009999999999998899
1129000,-6353,-2390,131152,-45074,-2485,130177,472,19184,1601,1,17164,0.001000000000000112
1130000,2721,-3910,128943,-6568,3911,128477,389,19171,1933,0,17165,0.0009999999999998899
1131000,1914,34239,130960,4151,37492,104697,407,19193,1593,0,17166,0.001000000000000112
1132003,19961,1672,129662,-13374,-16084,141810,407,19185,1667,0,17167,0.0010029999999998651
1133000,-1771,-20184,122176,2608,-11918,124310,482,19171,1974,1,17168,0.0009970000000001367
1134000,1118,-5306,129343,-11614,-6326,136130,367,19211,1503,1,17169,0.0009999999999998899
1135001,3583,-242,128124,-7625,6250,120538,409,19211,1675,1,17170,0.0010010000000000296
1136002,1118,14843,131010,-5354,4783,129270,508,19170,1675,0,17171,0.0010010000000000296
1137000,-257,-12846,123995,-4743,-9100,135084,360,19172,2081,0,17172,0.0009980000000000544
1138000,-2033,19524,125211,-13253,21632,108025,360,19193,1474,0,17173,0.0009999999999998899
1139000,16296,-1721,126417,-14222,-5420,133907,423,19193,1732,0,17174,0.001000000000000112
1140000,6633,10582,125525,25166,12894,113814,540,19220,2212,1,17175,0.0009999999999998899
1141000,11742,-5644,128663,-9249,-11444,138603,380,19220,1556,1,17176,0.001000000000000112
1142000,5998,-4716,125999,-14410,148,120942,460,19188,1556,1,17177,0.0009999999999998899
1143000,2793,3080,126868,9706,-2589,130770,584,19173,1884,0,17178,0.001000000000000112
1144000,9075,-715,124312,-3002,3826,124934,584,19218,2392,0,17179,0.0009999999999998899
1145000,8957,22771,126512,-3849,16564,111780,385,19194,1577,0,17180,0.001000000000000112
1146003,14348,-10965,124660,4637,-14093,137795,445,19175,1823,1,17181,0.0010029999999998651
1147000,10594,3419,124689,8496,4877,115387,284,19201,1163,1,17182,0.0009970000000001367
1148000,16171,-5944,127132,10093,-6659,135288,418,19201,1163,1,17183,0.0009999999999998899
1149001,8299,1797,125000,716,3157,121656,498,19184,1712,1,17184,0.0010010000000000296
1150000,8974,3350,127335,-3624,2555,126708,498,19167,2040,0,17185,0.0009989999999999721
1151000,20989,1663,126719,8921,4405,127005,320,19192,1311,0,17186,0.001000000000000112
1152000,15969,11617,125494,17871,9640,128868,409,19184,1675,0,17187,0.0009999999999998899
1153000,15935,-14771,125148,-4550,-15961,128740,508,19199,2081,1,17188,0.001000000000000112
1154000,10605,-4526,126083,4192,-4195,129013,344,19199,2081,1,17189,0.0009999999999998899
1155000,17874,-3937,130206,20753,-5385,132363,432,19191,1409,1,17190,0.001000000000000112
1156000,9073,10130,127292,-1568,9375,116238,432,19177,1769,0,17191,0.0009999999999998899
1157000,6509,-512,128788,-5116,-7341,137380,544,19213,2228,0,17192,0.001000000000000112
1158001,16897,-4341,127519,9758,5577,120207,386,19189,1581,0,17193,0.0010010000000000296
1159000,14625,11225,130710,4164,3192,124706,440,19178,1802,0,17194,0.0009989999999999721
1160000,10554,-5982,127204,-909,-10956,129272,442,19178,1802,1,17195,0.0009999999999998899
1161002,9146,-7551,131099,7095,-5666,128097,392,19212,1810,1,17196,0.0010019999999999474
1162004,12963,-8516,130575,-4049,-11023,142171,392,19179,1606,1,17197,0.0010020000000001694
1163000,4893,-6803,130172,-11330,-861,121032,479,19168,1962,0,17198,0.0009959999999999969
1164000,4101,16006,131478,12108,22236,119497,397,19198,1626,0,17199,0.0009999999999998899
1165000,11750,8678,127475,1445,-10847,136846,401,19185,1642,0,17200,0.001000000000000112
1166000,3246,-13307,127217,-29751,-3072,122048,483,19185,1642,1,17201,0.0009999999999998899
1167000,9139,-2292,131198,14247,-9339,134502,290,19176,1978,1,17202,0.001000000000000112
1168000,4672,-2898,127654,16628,5335,122561,290,19191,1188,1,17203,0.0009999999999998899
1169000,-3975,5495,132824,-44958,-8754,135499,436,19192,1786,1,17204,0.001000000000000112
1170000,-467,-15455,126179,-2714,-3276,129358,538,19197,2203,0,17205,0.0009999999999998899
1171000,5696,24163,131888,7493,28184,115385,379,19190,1552,0,17206,0.001000000000000112
1172000,11604,9951,129060,-14851,-2964,126623,435,19190,1552,0,17207,0.0009999999999998899
1173000,310,-9506,125242,-12237,-13427,128936,568,19178,1782,1,17208,0.001000000000000112
1174000,2437,-16536,128167,1602,-15148,141953,568,19222,2326,1,17209,0.0009999999999998899
1175000,2834,7269,128526,-5753,17206,114189,381,19188,1560,1,17210,0.001000000000000112
1176001,2429,13883,130950,-7520,-2138,132496,462,19173,1892,0,17211,0.0010009999999998076
1177000,-3897,-8516,123982,-15145,-4439,125140,411,19203,1683,0,17212,0.0009990000000001942
1178000,7517,16098,127982,-7435,16881,118620,410,19203,1679,0,17213,0.0009999999999998899
1179000,14237,-2996,126635,7398,-1185,129936,474,19189,1679,0,17214,0.001000000000000112
1180000,3001,4761,123399,176,3199,118033,257,19172,1941,1,17215,0.0009999999999998899
1181000,10272,-11788,126422,-14438,-12890,137228,257,19190,1053,1,17216,0.001000000000000112
1182000,7994,5032,126600,3356,10318,119850,418,19188,1712,1,17217,0.0009999999999998899
1183001,6023,2826,125598,4206,-5062,133407,514,19176,2105,0,17218,0.0010010000000000296
1184000,2017,-3,123756,-10305,5774,118174,317,19176,1298,0,17219,0.0009989999999999721
1185000,14298,15431,124929,929,10657,120731,416,19194,1298,0,17220,0.001000000000000112
1186003,16277,-2376,123729,16528,-4179,129248,528,19181,1704,1,17221,0.0010029999999998651
1187000,9154,611,124988,-640,-2099,121896,528,19217,2163,1,17222,0.0009970000000001367
1188000,13553,-12128,125668,4843,-9098,132419,380,19187,1556,1,17223,0.0009999999999998899
1189001,7735,10063,126865,4659,10633,118665,453,19178,1855,1,17224,0.0010010000000000296
1190000,12743,1281,128248,2544,-3178,131626,499,19178,2044,0,17225,0.0009989999999999721
1191000,17052,-448,125857,7411,2991,122112,395,19207,2044,0,17226,0.0009999999999998899
1192001,18059,7027,126304,9487,4242,121855,455,19190,1618,0,17227,0.0010010000000000296
1193000,16481,-6851,124838,3483,-7608,128321,455,19172,1864,1,17228,0.0009989999999999721
1194000,10833,-5068,126941,7759,-6270,129805,384,19204,1573,1,17229,0.001000000000000112
1195000,14972,-7437,127649,11398,-7333,134415,390,19188,1597,1,17230,0.0009999999999998899
1196000,10014,9366,128926,-1175,9041,118128,474,19167,1941,0,17231,0.001000000000000112
1197001,8518,588,128635,2629,-1896,130454,275,19167,1941,0,17232,0.0010010000000000296
1198000,15977,-5877,127998,5195,-2888,128993,416,19192,1126,0,17233,0.0009989999999999721
1199003,13567,4788,127998,-118,4739,122939,416,19187,1704,0,17234,0.0010030000000000872
1200001,10459,2438,129949,3767,1419,130557,512,19181,2097,1,17235,0.0009979999999998324
1201000,9260,-9411,129771,6513,-9455,133597,328,19189,1343,1,17236,0.0009989999999999721
1202000,8083,-9185,131127,-6010,-8599,135288,426,19182,1745,1,17237,0.001000000000000112
1203000,6628,-4198,129126,-5803,-3269,114598,548,19182,1745,0,17238,0.0009999999999998899
1204000,6835,22583,131439,3335,11118,130017,386,19209,2244,0,17239,0.001000000000000112
1205000,13283,-7435,127282,10176,-14144,133442,386,19193,1581,0,17240,0.0009999999999998899
1206000,1208,-1465,128742,-23573,7972,116650,442,19176,1810,1,17241,0.001000000000000112
1207000,10091,2573,132081,-12078,-13159,138994,447,19209,1831,1,17242,0.0009999999999998899
1208006,-101,-13246,128642,8290,-8616,128848,393,19185,1610,1,17243,0.0010060000000000624
1209001,-486,-4827,131054,-43215,-5654,135899,474,19185,1610,1,17244,0.0009950000000000792
1210000,-838,999,127673,2946,18454,116055,375,19173,1941,0,17245,0.0009989999999999721
1211000,5600,26689,130037,-4613,19761,119735,375,19195,1536,0,17246,0.0009999999999998899
1212001,16347,-3132,127624,-12349,-14889,132356,422,19188,1728,0,17247,0.0010010000000000296
1213000,-2711,-9288,125354,4274,-4974,127694,500,19161,2048,1,17248,0.0009989999999999721
1214000,3058,-3846,129926,-12156,-7517,136301,306,19197,1253,1,17249,0.001000000000000112
1215001,2102,-418,126819,-3251,3478,120914,408,19197,1253,1,17250,0.0010010000000000296
1216000,565,6775,130040,-16278,1322,130777,522,19178,1671,0,17251,0.0009989999999999721
1217000,5282,3156,127200,2598,4971,121169,522,19193,2138,0,17252,0.0009999999999998899
1218006,-1244,8324,125341,-1585,2381,126025,381,19184,1560,0,17253,0.0010060000000000624
1219000,11032,-2483,125089,-21651,1895,123809,441,19173,1806,1,17254,0.0009939999999999394
1220000,5406,13202,126181,12553,14264,115638,531,19218,2175,1,17255,0.001000000000000112
1221000,13516,1691,128801,1993,-8405,136975,375,19218,1536,1,17256,0.0009999999999998899
1222000,9335,-12749,123983,-8516,-12667,127705,463,19190,1536,1,17257,0.001000000000000112
1223000,1146,-9166,125301,-1026,-3916,130855,463,19170,1896,0,17258,0.0009999999999998899
1224000,8186,11899,125826,-227,20910,113343,515,19216,2109,0,17259,0.001000000000000112
1225000,10436,18378,126181,6961,9410,123824,396,19184,1622,0,17260,0.0009999999999998899
1226000,15338,-8343,123341,-46,-14847,132983,457,19170,1872,1,17261,0.001000000000000112
1227000,6525,-4717,123262,7573,-1178,119252,258,19170,1057,1,17262,0.0009999999999998899
1228000,16122,3669,128684,11202,1663,126992,419,19196,1057,1,17263,0.001000000000000112
1229000,11778,-1774,125205,6420,-3070,126567,514,19185,1716,1,17264,0.0009999999999998899
1230000,7164,498,126908,-7221,3105,128639,514,19197,2105,0,17265,0.001000000000000112
1231001,20138,6117,127007,7647,7554,119593,363,19191,1487,0,17266,0.0010010000000000296
1232000,17290,9581,125402,12367,4366,122770,419,19180,1716,0,17267,0.0009989999999999721
1233000,15189,-14828,125607,2635,-18126,133182,526,19180,2154,1,17268,0.0009999999999998899
1234000,7819,-6275,126712,6146,-2209,125255,366,19208,2154,1,17269,0.001000000000000112
1235002,18707,1519,130176,7740,-2246,131602,443,19187,1499,1,17270,0.0010019999999999474
1236000,8328,435,127881,7662,-844,123521,443,19184,1814,0,17271,0.0009980000000000544
1237001,7001,4031,128060,-6925,2246,127886,503,19204,2060,0,17272,0.0010010000000000296
1238000,14807,-924,129306,5791,1664,126026,398,19189,1630,0,17273,0.0009989999999999721
1239000,14291,3333,127497,9963,1290,124444,454,19169,1859,0,17274,0.0009999999999998899
1240000,13101,-4674,129330,4222,-4102,127777,386,19169,1859,1,17275,0.001000000000000112
1241001,10476,-3699,130829,-5107,-3607,126391,393,19205,1581,1,17276,0.0010010000000000296
1242000,11398,-9552,130279,3542,-11380,140340,393,19186,1610,1,17277,0.0009989999999999721
1243000,2770,-3844,131122,-4211,-3087,127850,485,19172,1986,0,17278,0.0009999999999998899
1244000,5067,5906,129334,-6358,9976,118881,293,19193,1200,0,17279,0.001000000000000112
1245003,12366,12194,129506,12508,7949,131154,414,19185,1696,0,17280,0.0010029999999998651
1246000,5767,-10755,125651,-9609,-11046,127817,501,19185,1696,1,17281,0.0009970000000001367
1247000,9222,6831,131405,-19429,6075,126296,340,19201,2052,1,17282,0.0009999999999998899
1248000,5411,-3701,131650,26962,-3347,135904,340,19191,1393,1,17283,0.001000000000000112
1249000,-4831,-6673,130759,-22009,-8244,132329,433,19179,1773,1,17284,0.0009999999999998899
1250000,-5135,-10761,127874,-29009,-9609,126716,559,19215,2289,0,17285,0.001000000000000112
1251000,7213,22847,131941,7879,24529,115055,396,19185,1622,0,17286,0.0009999999999998899
1252000,12452,14606,126443,-678,-4256,125899,451,19185,1622,0,17287,0.001000000000000112
1253000,2179,-13402,126106,-15420,-13482,132764,590,19172,1847,1,17288,0.0009999999999998899
1254000,3101,-11058,126474,-8966,-5538,130904,590,19228,2416,1,17289,0.001000000000000112
1255000,5360,5371,129174,5328,9458,124673,372,19190,1524,1,17290,0.0009999999999998899
1256003,1876,6161,129532,-9287,-3463,130683,462,19175,1892,0,17291,0.0010030000000000872
1257000,-4210,-5725,124975,-9593,1529,123423,410,19193,1679,0,17292,0.0009969999999999146
1258000,3712,11637,127262,-6611,17101,118352,418,19193,1679,0,17293,0.001000000000000112
1259000,13443,5514,126010,8411,-3865,127063,490,19185,1712,1,17294,0.0009999999999998899
1260000,4553,-1481,121864,-3385,2981,121778,490,19184,2007,1,17295,0.001000000000000112
1261000,11667,739,128994,-9278,-2481,129292,308,19188,1261,1,17296,0.0009999999999998899
1262000,8085,-512,125237,3310,982,126634,426,19183,1745,1,17297,0.001000000000000112
1263000,4798,-1087,127031,2292,-7355,133336,529,19195,2167,0,17298,0.0009999999999998899
1264000,979,-2681,123629,-6562,7616,118252,369,19195,2167,0,17299,0.001000000000000112
1265000,15265,18277,126588,-1478,14989,118033,425,19190,1511,0,17300,0.0009999999999998899
1266000,14372,1874,124162,16008,-5637,129124,425,19186,1741,1,17301,0.001000000000000112
1267000,10035,-5772,124763,1453,-7933,124489,478,19210,1958,1,17302,0.0009999999999998899
1268004,14425,-6070,126601,6267,-4190,127268,380,19187,1556,1,17303,0.0010040000000000049
1269003,6616,5299,128614,6478,4593,123572,455,19172,1864,0,17304,0.0009989999999999721
1270001,11811,592,126950,-3387,-946,131280,385,19172,1577,0,17305,0.0009980000000000544
1271000,16719,-77,127331,7046,1401,122758,402,19202,1577,0,17306,0.0009989999999999721
1272000,18002,8976,122955,8903,7982,118926,469,19190,1646,0,17307,0.001000000000000112
1273000,13575,-4275,125946,4170,-9570,128675,469,19172,1921,1,17308,0.0009999999999998899
1274000,12792,-10048,126084,8842,-8377,131477,300,19197,1229,1,17309,0.001000000000000112
1275000,16740,-5739,130192,10625,-3325,131601,405,19184,1659,1,17310,0.0009999999999998899
1276000,8349,6510,127649,-1664,6152,120850,487,19184,1995,0,17311,0.001000000000000112
1277000,8115,1024,128901,536,-5201,130063,358,19191,1995,0,17312,0.0009999999999998899
1278000,14080,-4822,128211,9373,215,127354,423,19191,1466,0,17313,0.001000000000000112
1279000,14373,6491,128070,2328,4974,120940,423,19185,1732,0,17314,0.0009999999999998899
1280000,9299,3788,129052,897,-1766,126002,540,19205,2212,1,17315,0.001000000000000112
1281000,12225,-10949,131092,5161,-13763,133666,358,19189,1466,1,17316,0.0009999999999998899
1282000,8266,-9778,129997,-8461,-11821,138400,438,19189,1794,1,17317,0.001000000000000112
1283002,3735,-4392,130709,-2522,964,120069,564,19176,1794,0,17318,0.0010019999999999474
1284000,10437,20086,132441,4461,16303,126582,386,19216,2310,0,17319,0.0009980000000000544
1285000,8696,-9053,124968,10183,-12101,133710,386,19188,1581,0,17320,0.0009999999999998899
1286000,5045,5275,129721,-34800,6395,117863,450,19178,1843,1,17321,0.001000000000000112
1287002,11428,-5765,129902,8172,-10457,134848,387,19201,1585,1,17322,0.0010019999999999474
1288000,-2789,-10391,129357,26193,-9467,132479,402,19182,1646,1,17323,0.0009980000000000544
1289000,1591,-5784,130401,-48074,-5661,134298,486,19182,1646,0,17324,0.0009999999999998899
1290000,-7079,8301,128062,-3974,12271,120322,304,19167,1991,0,17325,0.001000000000000112
1291000,9762,22635,130414,1276,22622,121045,304,19193,1245,0,17326,0.0009999999999998899
1292000,13458,-3559,124672,-10589,-7125,129146,422,19177,1728,0,17327,0.001000000000000112
1293000,-2004,-8985,126353,-271,-8036,127190,519,19170,2126,1,17328,0.0009999999999998899
1294001,4964,-3565,130255,-14194,-3767,130001,280,19193,1147,1,17329,0.0010010000000000296
1295000,-297,-6,128138,3342,-1002,126771,421,19193,1147,1,17330,0.0009989999999999721
1296000,2635,5199,130538,-21602,3487,124767,534,19186,1724,0,17331,0.001000000000000112
1297000,1205,5559,125171,-3596,4291,123831,534,19212,2187,0,17332,0.0009999999999998899
1298002,186,1159,126372,5573,-226,127711,389,19186,1593,0,17333,0.0010019999999999474
1299000,10793,2601,124333,-26939,9744,114807,448,19180,1835,1,17334,0.0009980000000000544
1300000,5401,12736,127157,11114,10403,124752,468,19212,1917,1,17335,0.001000000000000112
1301003,15961,-1231,127720,6978,-10791,132870,389,19212,1917,1,17336,0.0010029999999998651
1302000,6713,-15804,123815,-8212,-12388,131682,467,19183,1593,1,17337,0.0009970000000001367
1303000,3077,-5912,125033,-1940,7301,124818,467,19174,1913,0,17338,0.0009999999999998899
1304000,6154,17260,125801,2901,18961,112828,425,19196,1741,0,17339,0.001000000000000112
1305001,11516,13442,125219,-861,1124,130143,398,19191,1630,0,17340,0.0010009999999998076
1306000,16113,-9254,122952,6534,-10522,128024,477,19186,1954,1,17341,0.0009990000000001942
1307000,6867,273,123969,8925,3678,118926,302,19186,1954,1,17342,0.0009999999999998899
1308000,17342,2325,129387,7463,-3669,129621,426,19192,1237,1,17343,0.001000000000000112
1309000,8741,-3836,125157,8107,-3285,126599,426,19180,1745,0,17344,0.0009999999999998899
1310000,9463,676,128059,-10618,4541,128392,515,19203,2109,0,17345,0.0009999999999998899
1311000,18531,7594,126356,14318,9403,116763,366,19188,1499,0,17346,0.001000000000000112
1312000,17708,8319,124950,8309,-2930,127511,425,19181,1741,0,17347,0.0009999999999998899
1313000,15381,-14827,124886,4645,-16031,132078,553,19181,2265,1,17348,0.001000000000000112
1314000,8682,-4821,127008,7675,2880,124244,368,19210,2265,1,17349,0.0009999999999998899
1315000,20657,1473,130865,7255,-3127,133772,442,19193,1507,1,17350,0.001000000000000112
1316002,6944,-139,126707,4703,105,121446,442,19177,1810,0,17351,0.0010019999999999474
1317000,8627,2103,128866,-1758,-3385,131840,409,19203,1675,0,17352,0.0009980000000000544
1318000,13805,-1868,128548,6186,3270,122939,395,19185,1618,0,17353,0.0009999999999998899
1319000,15068,5530,128578,10889,-94,124589,465,19185,1905,0,17354,0.001000000000000112
1320000,9514,-5449,128297,-3650,-3758,127178,372,19174,1905,1,17355,0.0009999999999998899
1321000,11915,-2993,131051,-4747,-6498,129226,417,19199,1524,1,17356,0.001000000000000112
1322000,8805,-11532,129216,5399,-11187,140749,417,19178,1708,1,17357,0.0009999999999998899
1323000,3907,-3884,129840,-9993,-2936,124780,495,19170,2027,0,17358,0.001000000000000112
1324000,6440,13214,132010,3010,19007,116978,288,19191,1180,0,17359,0.0009999999999998899
1325000,11593,9062,129047,7662,-5098,134295,415,19191,1700,0,17360,0.001000000000000112
1326001,6541,-13648,126330,-18781,-7842,124990,528,19183,1700,1,17361,0.0010010000000000296
1327000,7364,3086,132674,-4135,1077,125709,365,19201,2163,1,17362,0.0009989999999999721
1328000,4518,-4443,131115,23571,-3772,133068,365,19186,1495,1,17363,0.0009999999999998899
1329000,-6478,-6646,131346,-34624,-11994,134042,441,19177,1806,0,17364,0.001000000000000112
1330000,-3016,-7087,128361,-15116,1899,128961,562,19220,2302,0,17365,0.0009999999999998899
1331001,7703,25025,130915,8540,24589,115397,395,19187,1618,0,17366,0.0010010000000000296
1332000,12384,8774,126582,-9123,1591,125657,457,19187,1618,0,17367,0.0009989999999999721
1333000,349,-13198,125619,-14490,-15026,130557,559,19182,1872,1,17368,0.001000000000000112
1334000,2076,-9983,127927,-1333,-7680,134020,559,19216,2289,1,17369,0.0009999999999998899
1335000,5049,7704,129349,-2532,8696,122981,392,19183,1606,1,17370,0.001000000000000112
1336000,174,3847,128902,-10774,1396,131598,470,19170,1925,0,17371,0.0009999999999998899
1337000,-2588,-5651,124314,-12103,-4144,128091,343,19187,1405,0,17372,0.001000000000000112
1338000,5251,17578,128556,-5477,21073,115731,417,19187,1405,0,17373,0.0009999999999998899
1339000,14176,1005,124454,-1194,-1709,128379,495,19185,1708,1,17374,0.001000000000000112
1340000,4995,-862,123642,7418,555,121931,495,19199,2027,1,17375,0.0009999999999998899
1341000,11237,-1298,127285,-12686,-3533,129576,339,19192,1388,1,17376,0.001000000000000112
1342000,8101,1843,125152,-843,2495,126083,433,19168,1773,1,17377,0.0009999999999998899
1343000,2961,-3979,126440,5949,-7243,133701,535,19198,2191,0,17378,0.001000000000000112
1344000,3267,-6,124120,-10214,2681,111677,370,19198,2191,0,17379,0.0009999999999998899
1345002,15209,18134,127265,257,17491,125938,426,19191,1515,0,17380,0.0010020000000001694
1346002,15984,-1918,123431,13866,-7278,126432,426,19181,1745,1,17381,0.0009999999999998899
1347002,9513,-4691,123947,2914,-3870,127359,412,19208,1687,1,17382,0.001000000000000112
1348002,13869,-9136,126872,4419,180,127283,398,19184,1630,1,17383,0.0009999999999998899
1349000,6962,6982,126315,4025,6338,122164,470,19183,1925,0,17384,0.0009980000000000544
1350000,10767,253,127835,94,-2129,133244,384,19183,1925,0,17385,0.0009999999999998899
1351000,17406,-998,124908,14193,8432,116564,403,19197,1573,0,17386,0.001000000000000112
1352000,17694,11408,124737,8362,2368,124375,403,19182,1651,0,17387,0.0009999999999998899
