t_us,ax,ay,az,ax1,ay1,az1,shunt_raw,bus_raw,curr_raw,pg_rpm,seq,dt
0,6542,2892,128793,-10392,1007,134375,131,19443,430,1,33213,
1012,5417,-5852,126367,1410,-5118,125992,131,19437,537,0,33214,0.0010119999999999999
2001,5615,5955,128226,-296,2905,123745,100,19448,410,0,33215,0.0009889999999999999
2999,3118,4808,130142,-9205,2785,132468,110,19451,451,0,33216,0.0009980000000000002
3999,4705,2139,126397,-1950,-1219,123878,110,19443,451,0,33217,0.001
5001,2262,-194,126891,-3482,745,128073,135,19443,451,1,33218,0.0010019999999999994
6001,5693,7663,128861,-6249,3656,124439,93,19433,553,1,33219,0.001
6999,9370,3705,126446,2114,929,125473,93,19446,381,1,33220,0.0009980000000000006
7999,5129,5147,128904,-3748,3108,127117,110,19448,451,1,33221,0.0009999999999999992
8999,6335,420,126898,1591,-4103,129524,104,19451,426,1,33222,0.0010000000000000009
9999,5124,2288,128000,-1375,294,126518,119,19439,487,1,33223,0.0009999999999999992
10999,2036,-395,127312,-10407,-2550,126790,161,19439,487,0,33224,0.0010000000000000009
11999,7157,6437,129154,-1979,3299,125173,116,19447,659,0,33225,0.0009999999999999992
13001,11166,1407,128083,4010,-1436,129879,116,19448,475,0,33226,0.0010019999999999994
13999,5695,3956,127682,-5381,99,124496,116,19449,475,0,33227,0.0009980000000000006
14999,2943,-850,126193,-2293,-2747,128082,125,19439,512,0,33228,0.0010000000000000009
15999,4309,3363,128349,-5646,5,127386,165,19441,676,1,33229,0.0009999999999999992
16999,6438,2917,126725,-1749,-580,127891,102,19441,418,1,33230,0.0010000000000000009
17999,10234,5832,128547,1262,4835,124274,97,19448,418,1,33231,0.0009999999999999974
18999,11775,-102,126537,108,-4962,127975,110,19450,397,1,33232,0.0010000000000000009
19999,3673,2160,127869,707,-1996,125830,110,19442,451,0,33233,0.0010000000000000009
20999,5277,-3343,127646,-1112,-1515,129983,111,19451,455,0,33234,0.0010000000000000009
21999,11069,5051,128710,-5388,2180,127496,117,19449,479,0,33235,0.0009999999999999974
22999,2948,8682,129886,-33,4807,125454,108,19449,442,0,33236,0.0010000000000000009
23999,9229,-1054,127271,4134,-1994,127136,106,19449,442,0,33237,0.0010000000000000009
24999,9007,-4570,125879,-2740,-9266,130428,137,19446,434,0,33238,0.0010000000000000009
25999,6389,4129,129233,477,2930,123693,137,19431,561,1,33239,0.0009999999999999974
27000,5968,2332,128113,-2688,1755,127029,140,19444,573,1,33240,0.0010010000000000019
27999,10790,2432,128176,40,-2343,130634,105,19453,430,1,33241,0.0009989999999999999
28999,5221,5369,129404,832,1784,125007,103,19453,422,1,33242,0.0009999999999999974
29999,7775,-5669,126008,-514,-6549,128866,122,19449,422,0,33243,0.0010000000000000009
31000,4142,1006,127882,-1926,-3665,128470,98,19442,500,0,33244,0.0010010000000000019
31999,10976,5948,129966,1309,4775,124877,98,19451,401,0,33245,0.0009989999999999999
32999,8130,3313,127584,-4191,1448,127425,104,19451,426,0,33246,0.0010000000000000009
33999,6503,4071,127615,833,210,126956,100,19445,410,0,33247,0.0010000000000000009
34999,6601,1910,128093,547,-680,125849,121,19453,496,1,33248,0.000999999999999994
35999,10736,-6114,128047,658,-7129,131594,102,19453,496,1,33249,0.0010000000000000009
36999,7485,-704,128367,344,-3384,129015,110,19450,418,1,33250,0.0010000000000000009
38000,9991,8434,129753,-738,6364,124220,110,19452,451,1,33251,0.0010010000000000019
38999,6773,5381,128124,-1458,2831,126748,101,19453,414,1,33252,0.0009989999999999999
40000,1987,-188,126506,-3340,-3243,128346,106,19442,434,0,33253,0.0010010000000000019
41001,5577,3428,127495,-4486,804,125506,122,19449,500,0,33254,0.001000999999999995
41999,9013,2393,128011,-1454,-771,127273,107,19449,500,0,33255,0.0009979999999999989
42999,3890,2566,128407,104,-182,126500,107,19449,438,0,33256,0.0010000000000000009
44000,9022,-136,127297,-5044,-2882,128836,107,19450,438,0,33257,0.0010010000000000019
45002,4794,1743,127640,-973,-1550,126955,119,19439,487,1,33258,0.0010020000000000029
46001,2894,4471,128127,-2857,1585,126143,116,19452,475,1,33259,0.0009989999999999999
46999,7728,4303,127629,-4478,1836,124730,99,19451,405,1,33260,0.0009979999999999989
47999,5348,4595,128621,-5712,1891,128296,100,19451,405,1,33261,0.0010000000000000009
48999,4160,76,126695,461,-2676,126748,105,19456,410,1,33262,0.0010000000000000009
49999,4543,949,126796,-2104,-1474,126752,105,19446,430,0,33263,0.000999999999999994
50999,9391,8362,128935,-2831,4950,122909,113,19457,463,0,33264,0.0010000000000000009
51999,3681,6449,126846,5367,-379,128714,110,19450,451,0,33265,0.0010000000000000009
52999,12887,5023,128911,-14509,4604,121743,105,19450,430,0,33266,0.0010000000000000009
53999,4739,-1641,129131,2111,-9826,134499,109,19450,430,0,33267,0.0010000000000000009
54999,1509,-5068,127573,7213,-6998,128889,145,19446,446,1,33268,0.0010000000000000009
55999,-980,-319,127756,-17391,167,125277,145,19437,594,1,33269,0.0010000000000000009
56999,6920,13045,128444,4686,13626,123385,100,19445,410,1,33270,0.000999999999999994
57999,5823,14957,127036,-5318,9094,121672,107,19453,438,1,33271,0.0010000000000000009
59001,7413,3464,127123,-4180,-3010,127134,107,19447,438,1,33272,0.0010020000000000029
60001,4433,-9412,125725,2900,-12516,132046,136,19447,557,0,33273,0.0010000000000000009
60999,3539,-1011,127864,-7352,-1232,125369,101,19439,557,0,33274,0.0009979999999999989
62000,5396,8641,131398,-4283,7066,125741,110,19448,414,0,33275,0.0010010000000000019
62999,4362,4729,127585,-201,422,128195,110,19449,451,0,33276,0.0009989999999999999
63999,3555,2341,126063,-7635,-1558,126728,106,19445,434,0,33277,0.0010000000000000009
65001,6672,4107,127957,-3918,3388,122972,131,19440,537,1,33278,0.0010020000000000029
66001,5230,1729,126968,4561,-805,128721,89,19440,365,1,33279,0.000999999999999987
66999,9605,4382,128438,-3087,2540,125545,111,19449,365,1,33280,0.0009980000000000128
67999,6095,3198,129176,-6759,-347,128679,105,19447,455,1,33281,0.000999999999999987
68999,3508,676,126427,5285,-963,128251,105,19449,430,1,33282,0.0010000000000000009
69999,2750,2840,127645,-6328,-801,125153,117,19438,479,1,33283,0.0010000000000000009
70999,6079,2449,127903,-10151,992,125550,163,19445,668,0,33284,0.0010000000000000009
72002,8267,5546,128116,1104,1808,126693,116,19445,475,0,33285,0.0010030000000000039
72999,10170,2391,128746,1567,-341,128603,110,19446,475,0,33286,0.0009969999999999979
73999,6285,-229,126816,-4230,-4040,126743,126,19444,451,0,33287,0.0010000000000000009
74999,58,-318,126913,-1543,-2782,127806,126,19438,516,1,33288,0.0010000000000000009
75999,5035,2215,127278,-6146,-316,127320,166,19441,680,1,33289,0.0010000000000000009
76999,11021,6797,128771,-4389,4952,124762,101,19446,414,1,33290,0.0010000000000000009
78001,7733,5807,128525,3091,2932,125902,98,19446,401,1,33291,0.0010020000000000029
78999,10339,-2566,126056,2430,-5804,127787,109,19449,401,1,33292,0.0009979999999999989
79999,3773,-2840,127333,-2878,-5903,128758,112,19441,446,0,33293,0.0010000000000000009
80999,7121,2484,129517,-752,1214,128292,112,19445,459,0,33294,0.0010000000000000009
81999,10309,4649,127715,-2912,2622,127273,118,19444,483,0,33295,0.0010000000000000009
82999,6321,7808,129270,-1065,4442,125893,108,19446,442,0,33296,0.000999999999999987
83999,8115,-158,127310,1132,-2305,125168,105,19447,430,0,33297,0.0010000000000000009
84999,8652,-6158,125809,-992,-8797,130653,137,19447,430,0,33298,0.0010000000000000009
85999,5342,2682,128541,293,101,125985,142,19433,561,1,33299,0.0010000000000000009
86999,5230,6175,129260,-2479,3994,125486,142,19448,582,1,33300,0.0010000000000000009
88000,11834,1046,127463,-1208,-1785,131100,105,19447,430,1,33301,0.0010010000000000019
88999,7850,4206,128402,1446,1879,124171,102,19449,418,1,33302,0.0009989999999999999
89999,8134,-1303,127961,41,-4524,127253,124,19446,508,0,33303,0.0010000000000000009
90999,5266,-2748,126897,863,-7389,130451,100,19446,508,0,33304,0.0010000000000000009
91999,7699,3899,128592,-423,1397,126905,103,19449,410,0,33305,0.0010000000000000009
92999,6940,9157,129223,-5003,5323,125287,103,19450,422,0,33306,0.0010000000000000009
93999,8077,4383,127524,-1023,2323,126481,101,19450,414,0,33307,0.0010000000000000009
94999,4483,-279,127452,4103,-1749,131525,123,19455,504,1,33308,0.0010000000000000009
95999,14067,-4957,127879,27,-8561,128340,99,19453,405,1,33309,0.0010000000000000009
96999,8418,-746,128330,-1309,-4277,126285,111,19453,405,1,33310,0.0010000000000000009
97999,6648,9055,129364,1716,3954,126728,100,19449,455,1,33311,0.000999999999999987
98999,5997,5279,128325,-2917,590,126953,100,19452,410,1,33312,0.0010000000000000009
99999,3481,-1951,126898,-4964,-3600,128506,108,19444,442,0,33313,0.0010000000000000009
100999,3452,2456,127141,-4392,1101,124818,123,19453,504,0,33314,0.0010000000000000009
101999,8329,4715,128148,428,1245,127134,108,19447,442,0,33315,0.0010000000000000009
102999,7845,1265,128678,-4817,-921,127225,106,19447,442,0,33316,0.0010000000000000009
104000,6449,1246,127333,-1003,-1999,128329,120,19447,434,0,33317,0.0010010000000000019
104999,5370,1998,127695,-2736,-460,128176,120,19444,491,1,33318,0.0009989999999999999
105999,4189,5237,127545,-3493,1483,124657,113,19453,463,1,33319,0.0010000000000000009
106999,5156,2153,127648,-4156,-818,127056,101,19450,414,1,33320,0.0010000000000000009
107999,7229,2553,127021,-415,319,125541,97,19453,397,1,33321,0.0010000000000000009
108999,5959,3168,127196,-3177,513,127041,108,19453,442,1,33322,0.0010000000000000009
109999,2771,4135,127581,-7010,2495,125770,117,19446,442,0,33323,0.0010000000000000009
110999,9219,9151,128513,8676,5449,124610,109,19454,479,0,33324,0.0010000000000000009
111999,2687,1513,127013,-9681,-1389,128687,109,19445,446,0,33325,0.0010000000000000009
112999,13960,1371,128850,-13384,-2399,124251,104,19450,426,0,33326,0.000999999999999987
113999,2547,-1840,128788,19589,-3842,132055,108,19445,442,0,33327,0.0010000000000000009
114999,4091,-2353,126413,-10590,-6329,128900,145,19445,594,1,33328,0.0010000000000000009
115999,-4348,6369,128499,-23234,7290,121261,99,19445,594,1,33329,0.0010000000000000009
116999,8777,14754,128962,12148,10365,126343,106,19448,405,1,33330,0.0010000000000000009
117999,3472,3285,124789,-1381,1072,125356,106,19447,434,1,33331,0.0010000000000000009
118999,7200,4441,128708,-13504,-989,124049,107,19447,438,1,33332,0.0010000000000000009
119999,5008,-7414,126785,4826,-9468,132726,134,19438,549,0,33333,0.0010000000000000009
120999,6354,5621,126585,578,3009,122917,102,19438,418,0,33334,0.0010000000000000009
121999,2730,8428,131140,-11701,3808,128609,109,19445,418,0,33335,0.0010000000000000009
122999,6699,2986,126916,-2053,946,124791,108,19449,446,0,33336,0.0010000000000000009
123999,1112,-306,126042,-153,-4018,129927,108,19445,442,0,33337,0.0010000000000000009
124999,6499,4848,128812,-7058,2946,123479,136,19434,557,1,33338,0.0010000000000000009
125999,8352,1642,127443,1297,-390,126622,94,19448,385,1,33339,0.0010000000000000009
126999,7830,6618,128122,-1984,4549,126725,111,19446,455,1,33340,0.0010000000000000009
127999,7412,3163,128293,-4112,16,127246,104,19446,455,1,33341,0.0010000000000000009
128999,4841,1136,126743,2134,-616,127604,119,19445,426,1,33342,0.0010000000000000009
129999,219,-1025,127243,-6189,-4567,128047,119,19438,487,0,33343,0.0010000000000000009
130999,7550,4797,128782,-9096,2774,123400,164,19449,672,0,33344,0.0010000000000000009
132001,7452,2088,127987,2839,-1168,130349,114,19444,467,0,33345,0.0010020000000000029
132999,5496,3866,128012,-787,1237,125742,112,19448,459,0,33346,0.0009979999999999989
133999,7234,-612,125858,-6505,-3433,126978,127,19448,459,0,33347,0.0010000000000000009
134999,2784,4200,128160,633,1223,126525,169,19437,520,1,33348,0.0009999999999999731
135999,3350,1189,126977,-4594,-2154,127520,169,19442,692,1,33349,0.0010000000000000009
136999,13541,4528,129421,-4587,2520,126650,102,19453,418,1,33350,0.0010000000000000009
137999,7582,2439,127883,2467,154,126090,99,19446,405,1,33351,0.0010000000000000009
138999,5821,100,127158,4499,-2928,126944,109,19445,446,0,33352,0.0010000000000000009
140000,5848,-4456,126591,-5912,-6608,130085,104,19445,446,0,33353,0.0010010000000000019
140999,8027,6931,129531,-2537,3249,126026,119,19448,426,0,33354,0.0009989999999999999
141999,5284,5810,128459,-1815,2758,125136,119,19444,487,0,33355,0.0010000000000000009
142999,11496,2471,127728,-565,1503,127671,109,19450,446,0,33356,0.0010000000000000009
144002,5753,-1444,126611,3495,-3329,129267,108,19442,442,0,33357,0.0010030000000000039
144999,8395,-2221,127198,-2006,1216,124405,140,19428,573,1,33358,0.0009969999999999979
145999,7121,759,127586,-3244,-645,128748,138,19428,573,1,33359,0.0010000000000000009
146999,8492,9095,130020,776,1349,128077,102,19443,565,1,33360,0.0010000000000000009
147999,8621,422,127750,-577,1530,125583,102,19456,418,1,33361,0.0010000000000000009
148999,8625,-4189,125894,-1252,-8160,129975,102,19449,418,1,33362,0.0010000000000000009
149999,4659,3760,128551,141,-1631,126609,126,19442,516,0,33363,0.0010000000000000009
150999,10532,1426,128074,-1665,3190,126056,102,19450,418,0,33364,0.0010000000000000009
151999,7740,1358,127095,-4024,-925,129815,102,19450,418,0,33365,0.0010000000000000009
152999,6896,9959,129473,1926,3837,124380,101,19450,418,0,33366,0.0010000000000000009
153999,7618,600,127438,297,-269,126197,121,19447,414,1,33367,0.0010000000000000009
154999,5335,-5620,126813,-482,-9346,131703,121,19455,496,1,33368,0.0010000000000000009
155999,11157,-126,128455,2479,-2796,128591,99,19448,405,1,33369,0.0010000000000000009
156999,9714,4014,129351,-2259,5371,125018,112,19453,459,1,33370,0.0010000000000000009
157999,4201,6018,128483,368,2428,126297,99,19453,405,1,33371,0.0010000000000000009
158999,5229,2865,127294,-3923,-2376,128352,105,19450,405,1,33372,0.0010000000000000009
159999,6781,1024,127288,-5097,430,125612,114,19443,430,0,33373,0.0010000000000000009
160999,5760,3235,128243,734,-24,126515,114,19451,467,0,33374,0.0010000000000000009
161999,7268,2581,127774,1198,-258,127100,107,19449,438,0,33375,0.0010000000000000009
163001,9114,1541,128704,-7328,-2261,128329,107,19452,438,0,33376,0.0010019999999999751
163999,3938,-840,127457,252,-2397,128046,120,19452,491,0,33377,0.0009980000000000266
164999,3367,5726,128223,-1661,2231,126148,112,19440,491,1,33378,0.0009999999999999731
165999,8954,2771,127340,-6943,927,126467,105,19452,459,1,33379,0.0010000000000000009
166999,3089,5378,128325,-4072,2043,124691,105,19448,430,1,33380,0.0010000000000000009
167999,6309,444,126880,-318,-2373,128778,100,19449,410,1,33381,0.0010000000000000009
168999,3927,2230,127537,-3097,-223,126269,108,19440,442,0,33382,0.0010000000000000009
170002,6363,553,126716,-6325,-2114,128127,111,19451,455,0,33383,0.0010030000000000039
170999,5721,13464,128307,9505,11080,120776,109,19451,455,0,33384,0.0009969999999999979
171999,7695,753,126298,-12239,-3130,131318,104,19447,446,0,33385,0.0010000000000000009
172999,11308,4258,129629,-8476,2432,121616,104,19450,426,0,33386,0.0010000000000000009
173999,744,-3305,128143,14825,-6840,132917,112,19443,459,0,33387,0.0010000000000000009
174999,3402,-6403,125182,-12221,-9349,131129,145,19437,594,1,33388,0.0010000000000000009
175999,-558,6884,128948,-15597,4757,122458,101,19448,414,1,33389,0.0010000000000000009
176999,7874,12624,127254,8720,10546,126501,101,19448,414,1,33390,0.0010000000000000009
177999,7453,12095,126133,-6415,9635,119226,106,19451,414,1,33391,0.0010000000000000009
179000,6530,-1935,127855,-5501,-4933,129238,106,19449,434,1,33392,0.0010010000000000019
179999,3414,-7207,125943,3335,-10392,130393,137,19439,561,0,33393,0.0009989999999999999
180999,4708,4281,128870,-5853,834,125122,105,19448,430,0,33394,0.0010000000000000009
181999,4519,8541,130420,-7761,5895,127905,109,19446,446,0,33395,0.0010000000000000009
182999,3530,3449,126742,1351,763,125610,110,19446,446,0,33396,0.0010000000000000009
183999,3165,-490,126039,-7280,-3554,129498,134,19444,451,1,33397,0.0010000000000000009
185000,5655,8040,128812,-6297,5570,121611,134,19435,549,1,33398,0.0010010000000000019
185999,10197,2725,127483,5153,-145,126750,94,19449,385,1,33399,0.0009989999999999999
186999,5512,3364,128482,-3293,516,128593,113,19446,463,1,33400,0.0010000000000000009
188001,6138,1757,127762,-6851,-358,129879,109,19446,446,1,33401,0.0010020000000000029
189000,4809,2321,127253,3086,-631,125013,121,19446,446,1,33402,0.0009989999999999999
189999,1226,505,127012,-3225,-1862,126850,165,19440,496,0,33403,0.0009989999999999999
190999,7509,5207,129022,-11582,2585,125335,165,19446,676,0,33404,0.0010000000000000009
191999,10469,3169,128016,1288,-202,128670,113,19444,463,0,33405,0.0010000000000000009
193001,5885,2937,128314,3202,-1382,126729,109,19446,446,0,33406,0.0010019999999999751
193999,3941,-2286,126143,-4328,-4464,127760,126,19441,516,0,33407,0.0009980000000000266
195000,2802,2042,127552,-4074,-647,127570,170,19441,516,1,33408,0.0010009999999999741
195999,5457,6050,127314,-4911,3085,125536,105,19441,696,1,33409,0.0009989999999999999
197002,12630,5909,128172,3022,3812,125207,105,19445,430,1,33410,0.0010030000000000039
198001,10827,1560,127306,-480,-3985,127818,100,19447,410,1,33411,0.0009989999999999999
198999,2687,-872,127527,600,-4625,126987,107,19444,438,0,33412,0.0009979999999999989
199999,5273,-3461,127683,-1951,-2804,130706,104,19447,426,0,33413,0.0010000000000000009
201001,10546,5407,129413,-3324,2917,126849,115,19447,471,0,33414,0.0010020000000000029
201999,2859,10144,129815,453,6608,124602,110,19445,471,0,33415,0.0009979999999999989
202999,10672,-1459,126780,-200,-3099,127353,107,19449,451,0,33416,0.0010000000000000009
203999,7407,-2005,126424,-115,-7359,128964,107,19441,438,0,33417,0.0010000000000000009
204999,6823,1400,128384,348,1335,124826,142,19426,582,1,33418,0.0010000000000000009
206000,5412,1727,128040,-3519,1537,127092,131,19443,537,1,33419,0.0010010000000000019
206999,9953,3278,128598,58,-2363,131329,101,19443,414,1,33420,0.0009989999999999999
207999,7435,4438,128626,960,2580,124152,99,19451,414,1,33421,0.0010000000000000009
208999,7233,-3646,126040,-612,-4936,128317,126,19445,405,0,33422,0.0010000000000000009
210000,5639,689,128098,-1949,-4746,128392,126,19443,516,0,33423,0.0010010000000000019
210999,9436,3185,130003,1483,3217,125912,103,19452,422,0,33424,0.0009989999999999999
211999,8347,2138,127199,-4109,358,129187,104,19451,426,0,33425,0.0010000000000000009
212999,5105,7682,128256,1510,3485,124239,100,19451,410,0,33426,0.0010000000000000009
213999,8895,1622,127939,-1552,-1310,126873,123,19449,410,1,33427,0.0010000000000000009
214999,10205,-6187,127741,1653,-7036,131195,99,19455,504,1,33428,0.0010000000000000009
215999,7838,-1122,128402,3132,-4091,129412,99,19449,405,1,33429,0.0010000000000000009
216999,8551,5596,129252,-2520,4016,125040,108,19447,442,1,33430,0.0010000000000000009
217999,5743,5395,128207,-3258,2896,125880,100,19456,410,1,33431,0.0010000000000000009
218999,3163,2082,127185,-1305,-911,128364,111,19445,455,1,33432,0.0010000000000000009
219999,6834,4571,127613,-5043,2159,124437,121,19445,455,0,33433,0.0010000000000000009
220999,8526,1387,127919,-1378,-1834,127359,107,19446,496,0,33434,0.0010000000000000009
221999,5017,140,127716,1934,-2855,127887,107,19448,438,0,33435,0.0010000000000000009
222999,8004,-177,127423,-5414,-3146,128766,105,19447,430,0,33436,0.0010000000000000009
223999,4910,4061,128354,-2279,1289,126234,122,19439,500,1,33437,0.0010000000000000009
224999,2913,5956,128356,-2198,3035,125895,109,19454,446,1,33438,0.0009999999999999731
225999,7876,2662,127443,-4508,751,126200,102,19454,446,1,33439,0.0010000000000000009
226999,4946,1743,127652,-5244,-1424,126066,98,19450,418,1,33440,0.0010000000000000009
228002,5817,507,126744,1020,-2156,127101,98,19453,401,1,33441,0.0010030000000000039
228999,3371,3922,127321,-2508,1030,126589,107,19445,438,0,33442,0.0009969999999999979
229999,10380,7101,128514,-8317,5090,125969,111,19450,455,0,33443,0.0010000000000000009
230999,834,5796,126458,13132,3390,125630,110,19448,451,0,33444,0.0010000000000000009
231999,10343,2164,127459,-16816,-534,125773,107,19448,451,0,33445,0.0010000000000000009
232999,9603,-4190,128670,-4619,-6691,128307,111,19449,438,0,33446,0.0010000000000000009
233999,2515,1675,128942,18509,-859,129862,111,19444,455,0,33447,0.0010000000000000009
234999,347,-3006,125733,-19433,-7305,123913,149,19443,610,1,33448,0.0010000000000000009
235999,4785,15837,130129,-15356,12137,123029,101,19448,414,1,33449,0.0010000000000000009
236999,5502,6744,125767,14344,6154,128833,103,19450,422,1,33450,0.0010000000000000009
237999,7530,6386,126406,-10081,2583,119421,103,19450,422,1,33451,0.0010000000000000009
239001,5981,-4685,127599,-6537,-10475,134835,136,19450,422,0,33452,0.0010020000000000029
239999,6721,-2049,126478,4166,-1131,124172,136,19442,557,0,33453,0.0009979999999999989
240999,2331,8464,131487,-4213,6331,126442,106,19448,434,0,33454,0.0010000000000000009
241999,4990,1739,127896,-11597,-1743,129310,111,19452,455,0,33455,0.0010000000000000009
242999,1764,3884,126132,265,-887,126163,110,19442,451,0,33456,0.0010000000000000009
243999,6629,1398,127930,-7202,2335,125299,137,19442,451,1,33457,0.0010000000000000009
244999,4447,4858,127467,1259,961,126544,95,19438,561,1,33458,0.0010000000000000009
245999,10798,3230,127470,289,2538,125972,95,19449,389,1,33459,0.0010000000000000009
246999,5301,5709,129169,-6180,791,127978,108,19449,442,1,33460,0.0010000000000000009
247999,4674,-1528,125994,3042,-2414,128603,107,19452,438,1,33461,0.0010000000000000009
248999,2767,5006,128571,-5605,-808,126509,124,19437,508,1,33462,0.0010000000000000009
249999,5759,-965,127239,-9929,-153,125378,168,19437,688,0,33463,0.0010000000000000009
250999,6960,8156,129300,2060,2072,127213,114,19447,688,0,33464,0.0009999999999999731
252001,10640,-1256,127640,1283,-1307,128342,110,19446,467,0,33465,0.0010020000000000029
252999,6695,4115,127305,-7029,-1370,125202,110,19442,451,0,33466,0.0009979999999999989
253999,917,-1149,126676,1058,-2077,128452,129,19436,528,0,33467,0.0010000000000000009
254999,5283,3925,127621,-5962,-358,126924,171,19442,700,1,33468,0.0010000000000000009
255999,8540,3199,128094,-4836,1672,126943,107,19442,438,1,33469,0.0010000000000000009
257000,8028,6605,128865,2476,3207,124685,100,19447,438,1,33470,0.0010010000000000296
258000,11098,-3019,125998,2370,-5314,128242,108,19450,410,1,33471,0.0010000000000000009
258999,4385,425,127711,-2013,-3982,127471,108,19441,442,0,33472,0.0009989999999999721
259999,5866,322,128789,-587,586,128054,100,19446,410,0,33473,0.0010000000000000009
260999,10004,4357,128124,-5063,1479,127787,117,19446,479,0,33474,0.0010000000000000009
261999,5796,8346,129686,-617,4957,125804,109,19448,446,0,33475,0.0010000000000000009
262999,7795,-660,126911,4770,-2745,126507,108,19448,446,0,33476,0.0010000000000000009
263999,9790,-5876,125710,-2796,-8666,130147,143,19446,442,0,33477,0.0010000000000000009
264999,6166,3586,128751,-653,739,124893,143,19427,586,1,33478,0.0010000000000000009
265999,6137,5593,129328,-417,4500,125945,133,19445,545,1,33479,0.0010000000000000009
266999,10812,-580,127492,-1006,-3845,131740,102,19450,418,1,33480,0.0010000000000000009
267999,6207,4248,129172,-278,992,125271,101,19449,414,1,33481,0.0010000000000000009
269000,7073,-2265,127168,1138,-4464,127273,125,19449,414,0,33482,0.0010009999999999741
269999,5819,68,126843,-964,-4535,129097,101,19445,512,0,33483,0.0009990000000000276
270999,9470,5825,129054,4,3376,125505,101,19445,414,0,33484,0.0010000000000000009
272000,8307,5999,128815,-3037,3333,126509,105,19446,430,0,33485,0.0010009999999999741
272999,6083,1690,127365,583,-911,127799,102,19448,418,0,33486,0.0009990000000000276
273999,5023,1235,128285,604,-1226,126279,122,19453,500,1,33487,0.0010000000000000009
275000,12943,-3509,128423,-287,-6016,130725,103,19453,500,1,33488,0.0010009999999999741
275999,8121,-637,128176,594,-3199,129278,107,19449,422,1,33489,0.0009990000000000276
276999,7262,8167,129085,812,5977,124135,107,19447,438,1,33490,0.0010000000000000009
277999,8076,4045,127826,-2665,1876,126620,100,19452,410,1,33491,0.0010000000000000009
278999,3225,-1332,126675,-4514,-3987,128565,114,19442,467,0,33492,0.0010000000000000009
279999,3305,3788,127709,-2050,1389,125994,116,19447,475,0,33493,0.0010000000000000009
280999,9853,2550,127761,-2602,-655,127348,109,19447,475,0,33494,0.0010000000000000009
281999,4527,2991,129007,-1688,233,126899,103,19449,446,0,33495,0.0010000000000000009
282999,7759,-284,126874,-3285,-2759,128559,103,19445,422,0,33496,0.0010000000000000009
283999,5567,2470,127676,-266,-1473,126279,116,19442,475,1,33497,0.0010000000000000009
284999,4797,4973,127570,-3645,990,126004,104,19452,426,1,33498,0.0010000000000000009
285999,5434,4831,127530,-3753,2448,125208,104,19450,426,1,33499,0.0010000000000000009
286999,6519,3933,128075,-4065,-462,127856,101,19450,426,1,33500,0.0010000000000000009
287999,3974,654,127020,-1240,-1915,126772,110,19455,414,1,33501,0.0010000000000000009
289000,2682,1702,127054,-4374,-1800,127178,110,19448,451,0,33502,0.0010009999999999741
289999,10959,7478,128587,6566,8757,121773,111,19451,455,0,33503,0.0009990000000000276
290999,3669,5505,126478,-8197,-742,130034,108,19450,442,0,33504,0.0010000000000000009
291999,13581,4301,129031,-12103,4105,121218,104,19451,426,0,33505,0.0010000000000000009
292999,3961,217,129545,13547,-5856,132286,113,19451,463,0,33506,0.0010000000000000009
293999,1899,-5873,127175,-7003,-9309,131642,153,19449,463,1,33507,0.0010000000000000009
294999,-3859,1078,128261,-19077,738,123287,103,19441,627,1,33508,0.0010000000000000009
295999,7563,12412,128505,6454,11415,125696,103,19453,422,1,33509,0.0010000000000000009
296999,4771,13716,126272,-2664,9846,120671,104,19447,426,1,33510,0.0010000000000000009
297999,6739,5426,127924,-8724,-1200,126059,105,19447,430,1,33511,0.0010000000000000009
298999,4469,-8724,126079,3461,-11372,132592,133,19447,545,0,33512,0.0009999999999999454
299999,4845,328,127030,-3829,-1206,124842,105,19441,545,0,33513,0.0010000000000000009
300999,4697,9134,131256,-7142,5681,127695,111,19447,430,0,33514,0.0010000000000000009
301999,6448,2989,127750,746,411,126683,111,19453,455,0,33515,0.0010000000000000009
302999,2013,450,125425,-6087,-2864,128760,113,19445,463,0,33516,0.0010000000000000009
303999,6776,6319,128770,-7018,5141,122237,138,19441,565,1,33517,0.0010000000000000009
304999,8021,2398,127384,4789,204,127323,96,19441,393,1,33518,0.0010000000000000009
305999,7738,3378,128097,-1776,1065,127591,106,19451,393,1,33519,0.0010000000000000009
306999,7312,3514,129322,-8209,103,127300,105,19448,434,1,33520,0.0010000000000000009
307999,4290,6,126626,4145,-1530,128846,105,19445,430,1,33521,0.0010000000000000009
308999,1207,3153,127713,-3400,-615,125948,121,19438,496,0,33522,0.0010000000000000009
309999,6893,2250,127796,-11716,521,124838,170,19449,696,0,33523,0.0010000000000000009
310999,8320,6210,128042,-644,2822,126711,117,19446,479,0,33524,0.0010000000000000009
311999,7004,1943,128523,3619,-669,128645,113,19446,479,0,33525,0.0010000000000000009
312999,7173,-1196,126420,-5291,-4313,126927,125,19444,463,0,33526,0.0010000000000000009
313999,340,571,127460,-2680,-2207,127878,125,19438,512,1,33527,0.0010000000000000009
314999,4058,3012,127383,-5202,-43,126769,169,19444,692,1,33528,0.0010000000000000009
315999,13188,5067,128797,-2906,3993,125838,100,19447,410,1,33529,0.0010000000000000009
317000,7066,5955,128573,1358,3129,124877,100,19449,410,1,33530,0.0010010000000000296
317999,8112,-2619,126155,3463,-5232,127838,111,19449,410,1,33531,0.0009989999999999721
318999,5711,-3648,127316,-3988,-6332,129400,105,19445,455,0,33532,0.0010000000000000009
319999,7553,3054,129817,-1112,110,127967,105,19450,430,0,33533,0.0010000000000000009
321001,7542,6413,128263,-1349,3569,126654,116,19445,475,0,33534,0.0010020000000000029
321999,9123,3220,127575,-1412,1552,127372,108,19449,442,0,33535,0.0009979999999999989
322999,7159,1245,127345,1588,-1061,124232,108,19447,442,0,33536,0.0010000000000000009
323999,8146,-4874,126180,-350,-8096,130220,145,19447,442,0,33537,0.0010000000000000009
324999,6921,2101,128208,-3150,201,126038,126,19429,594,1,33538,0.0010000000000000009
325999,6138,6861,130049,43,4356,125679,126,19448,516,1,33539,0.0010000000000000009
326999,11124,-138,127497,-1175,-3538,131622,104,19446,426,1,33540,0.0010000000000000009
327999,6716,-465,126478,1079,-914,129483,102,19450,418,1,33541,0.0010000000000000009
328999,6921,3594,128547,506,-418,125847,125,19450,512,0,33542,0.0010000000000000009
330001,9901,-1394,127132,-1177,-6578,127274,100,19450,410,0,33543,0.0010020000000000029
330999,7953,2732,127856,971,1647,130280,105,19447,410,0,33544,0.0009979999999999989
331999,6157,8985,129055,-2252,4550,123744,105,19450,430,0,33545,0.0010000000000000009
333002,6759,2119,127723,-2275,-235,126151,101,19448,414,1,33546,0.0010029999999999761
334001,5259,-3457,127089,-222,-8130,131561,125,19457,512,1,33547,0.0009990000000000276
335000,11211,491,128167,3632,-2687,127917,102,19454,418,1,33548,0.0009989999999999721
335999,9183,728,128490,-2371,3110,125630,109,19454,446,1,33549,0.0009990000000000276
336999,5013,7218,128639,1129,2865,125973,96,19451,446,1,33550,0.0010000000000000009
337999,6784,4220,128035,-1511,-8,128380,109,19449,393,1,33551,0.0010000000000000009
339000,5752,241,127586,-6864,-745,126341,109,19442,446,0,33552,0.0010009999999999741
339999,4171,1924,128017,-140,-1301,126903,119,19448,487,0,33553,0.0009990000000000276
340999,7558,1495,127454,2381,-1056,127593,109,19446,446,0,33554,0.0010000000000000009
341999,7975,2868,128720,-6283,-377,126900,107,19446,438,0,33555,0.0010000000000000009
342999,6091,915,127526,-1501,-844,127433,121,19448,438,0,33556,0.0010000000000000009
343999,4545,6487,128075,-859,2720,126348,106,19438,496,1,33557,0.0010000000000000009
344999,8262,1651,126901,-4809,-2043,127810,106,19454,434,1,33558,0.0010000000000000009
346001,3270,2471,127638,-3186,17,124768,101,19451,414,1,33559,0.0010020000000000029
346999,6955,2492,127406,-1282,-612,127794,99,19452,405,1,33560,0.0009979999999999989
347999,5005,2179,126538,-2118,612,126330,109,19452,446,1,33561,0.0010000000000000009
348999,3980,8199,129125,-8486,5248,125073,111,19445,446,0,33562,0.0010000000000000009
349999,8402,4218,126957,7252,827,127003,108,19453,455,0,33563,0.0010000000000000009
350999,2862,4460,127484,-5526,1314,125334,108,19449,442,0,33564,0.0010000000000000009
352000,13663,-1672,128613,-16527,-5403,127843,103,19450,422,0,33565,0.0010009999999999741
352999,2875,1755,128771,18157,484,127725,112,19445,459,0,33566,0.0009990000000000276
353999,3553,-844,127126,-7320,-5357,132007,150,19444,614,1,33567,0.0010000000000000009
354999,-2000,5000,128110,-23375,4266,121277,101,19444,614,1,33568,0.0010000000000000009
355999,5864,12864,128651,9701,9546,125849,105,19448,414,1,33569,0.0010000000000000009
356999,6248,2424,124885,281,-303,127989,105,19451,430,1,33570,0.0010000000000000009
357999,6050,5320,128312,-11967,1949,120702,107,19445,438,1,33571,0.0009999999999999454
358999,4994,-4935,127664,1943,-8179,134259,135,19441,553,0,33572,0.0010000000000000009
359999,6210,5398,126301,1263,1658,122282,103,19453,422,0,33573,0.0010000000000000009
360999,2824,8052,130942,-9274,4677,128667,110,19453,422,0,33574,0.0010000000000000009
361999,5842,1495,126920,-3996,-1386,126850,110,19447,451,0,33575,0.0010000000000000009
362999,2306,424,126273,-124,-2369,127021,110,19447,451,0,33576,0.0010000000000000009
363999,5840,5762,129022,-6671,3271,125838,138,19440,565,1,33577,0.0010000000000000009
364999,9990,2906,126700,1229,455,124304,99,19446,405,1,33578,0.0010000000000000009
365999,6211,5134,128160,-2251,2547,127950,109,19444,446,1,33579,0.0010000000000000009
366999,7139,2105,127745,-4271,6,127132,103,19444,446,1,33580,0.0010000000000000009
367999,4657,1779,126887,1909,-1213,127050,120,19450,422,1,33581,0.0010000000000000009
368999,1357,-270,127387,-5297,-2702,128963,120,19438,491,0,33582,0.0010000000000000009
369999,6875,5677,128817,-9645,2600,122406,168,19449,688,0,33583,0.0010000000000000009
371000,8852,1886,128013,2195,10,130063,116,19442,475,0,33584,0.0010010000000000296
372001,4945,3568,128007,942,195,126331,114,19441,467,0,33585,0.0010009999999999741
373002,6383,-1282,125962,-6616,-3653,126108,130,19441,467,0,33586,0.0010010000000000296
373999,2969,4412,128272,-1453,852,127518,171,19437,532,1,33587,0.0009969999999999701
375002,3635,3087,126903,-4173,-676,126830,171,19445,700,1,33588,0.0010030000000000316
375999,12987,4131,128431,-3432,1222,125499,106,19446,434,1,33589,0.0009969999999999701
376999,9047,2011,127677,2111,1334,127971,104,19451,426,1,33590,0.0010000000000000009
377999,4612,547,127370,3845,-3410,125267,111,19442,455,0,33591,0.0010000000000000009
378999,5430,-3598,127315,-5647,-3760,130760,105,19442,455,0,33592,0.0010000000000000009
379999,9485,6238,129414,-2266,2532,126986,115,19442,430,0,33593,0.0010000000000000009
381001,3426,7490,129321,-1891,6486,125120,107,19446,471,0,33594,0.0010020000000000029
381999,11278,-196,127493,-762,-3280,127850,107,19449,438,0,33595,0.0009979999999999989
382999,6731,-1873,126728,3423,-8538,129230,105,19445,430,0,33596,0.0010000000000000009
383999,7381,-79,127953,923,1725,124584,144,19428,590,1,33597,0.0010000000000000009
384999,6388,1515,127952,-4338,110,128040,125,19428,512,1,33598,0.0010000000000000009
385999,9723,6345,129265,165,-274,128893,102,19446,512,1,33599,0.0010000000000000009
386999,6626,3307,128795,392,2273,125243,102,19445,418,1,33600,0.0010000000000000009
387999,8840,-7149,125321,-289,-8667,130129,102,19446,418,1,33601,0.0010000000000000009
388999,4141,3949,128595,-602,-1221,126723,126,19441,516,0,33602,0.0010000000000000009
389999,11298,2032,129276,-759,2816,126248,101,19446,414,0,33603,0.0010000000000000009
390999,7709,2041,127013,-4188,494,128514,103,19446,422,0,33604,0.0010000000000000009
391999,6950,7992,128765,1872,2397,125536,102,19448,422,0,33605,0.0010000000000000009
392999,7209,1227,127622,-46,-637,125998,126,19447,418,1,33606,0.0010000000000000009
393999,7192,-7392,126884,106,-9070,132162,126,19455,516,1,33607,0.0010000000000000009
394999,9810,987,128722,1890,-1869,128235,102,19453,418,1,33608,0.0010000000000000009
395999,9887,6011,129461,-1386,5108,125116,106,19447,434,1,33609,0.0010000000000000009
396999,4395,5603,128558,-450,2688,126419,97,19447,397,1,33610,0.0010000000000000009
397999,3899,716,127021,-3991,-3204,128590,109,19453,397,1,33611,0.0010000000000000009
399001,6464,2728,127245,-4465,951,125362,118,19441,446,0,33612,0.0010020000000000029
399999,7331,2686,128063,-217,-499,126739,118,19448,483,0,33613,0.0009979999999999989
401002,6196,2956,127888,241,459,126612,111,19449,455,0,33614,0.0010029999999999761
402001,9387,552,127950,-5939,-2957,129001,109,19448,446,0,33615,0.0009990000000000276
402999,4024,484,127605,61,-2015,127184,122,19440,500,1,33616,0.0009979999999999989
403999,3509,5164,128385,-3329,2094,126580,105,19440,500,1,33617,0.0010000000000000009
404999,7871,2537,127744,-5264,1249,126009,105,19452,430,1,33618,0.0010000000000000009
405999,3620,4991,128425,-5087,1774,125098,105,19451,430,1,33619,0.0010000000000000009
406999,5228,351,126734,-843,-2376,128715,101,19446,414,1,33620,0.0010000000000000009
407999,3905,2449,127097,-2141,-292,125844,112,19445,459,0,33621,0.0010000000000000009
408999,8065,3720,127500,-3408,1510,125802,112,19452,459,0,33622,0.0010000000000000009
409999,4348,10030,127147,6966,7734,124409,110,19452,459,0,33623,0.0010000000000000009
410999,11611,1014,127005,-15649,-1826,127640,102,19447,451,0,33624,0.0010000000000000009
411999,6449,4392,130571,901,2503,123991,102,19448,418,0,33625,0.0010000000000000009
413000,2045,-7011,127277,9775,-10121,134220,109,19442,446,0,33626,0.0010009999999999741
413999,-145,-1830,126669,-16856,-5751,127656,149,19439,610,1,33627,0.0009990000000000276
414999,4862,10033,129160,-8255,6831,124521,101,19449,414,1,33628,0.0010000000000000009
415999,7612,15481,126698,7375,13521,121962,106,19449,414,1,33629,0.0010000000000000009
416999,7938,7907,127276,-10715,6168,122433,109,19452,434,1,33630,0.0010000000000000009
417999,5474,-8183,126174,1644,-9829,131518,109,19444,446,1,33631,0.0009999999999999454
418999,4059,-4311,126324,-70,-9109,128775,135,19440,553,0,33632,0.0010000000000000009
419999,4936,7296,131118,-9095,4526,125553,105,19448,430,0,33633,0.0010000000000000009
420999,5440,5706,128391,-2145,3985,127935,107,19447,438,0,33634,0.0010000000000000009
421999,2412,3170,126228,-2209,537,127520,109,19447,438,0,33635,0.0010000000000000009
422999,5773,1839,127179,-9060,-2085,123137,138,19445,446,1,33636,0.0010000000000000009
423999,4853,5002,127449,-429,3918,128027,138,19434,565,1,33637,0.0010000000000000009
424999,9847,2287,127549,2700,-1758,125692,101,19449,414,1,33638,0.0010000000000000009
426002,5378,4572,129191,-8345,26,128082,112,19448,459,1,33639,0.0010030000000000316
427002,5988,74,126903,-637,-1192,129220,105,19446,430,1,33640,0.0010000000000000009
427999,3868,3229,127431,2082,-618,124932,121,19446,496,1,33641,0.0009969999999999701
428999,3280,325,127310,-7537,-592,126978,157,19441,496,0,33642,0.0010000000000000009
429999,8570,6024,129074,-600,2640,125738,112,19445,643,0,33643,0.0010000000000000009
430999,10589,2899,128638,2735,198,128932,112,19443,459,0,33644,0.0010000000000000009
431999,5709,1497,127730,-3465,-2581,126694,111,19445,455,0,33645,0.0010000000000000009
433001,2151,-1329,126690,-1855,-3497,127530,129,19434,528,0,33646,0.0010020000000000029
433999,4025,1924,127450,-5874,-917,127868,173,19434,709,1,33647,0.0009979999999999989
434999,8410,7240,127653,-3104,4311,124756,102,19448,709,1,33648,0.0010000000000000009
435999,10286,5970,128600,1931,3111,125571,97,19450,418,1,33649,0.0010000000000000009
436999,10823,227,126998,1222,-4412,127862,97,19449,397,1,33650,0.0010000000000000009
437999,3098,-2343,127480,-621,-5765,128131,109,19440,446,0,33651,0.0010000000000000009
438999,5638,-1058,128716,-1195,-490,129114,99,19449,405,0,33652,0.0010000000000000009
439999,10716,5375,128192,-3441,3043,126829,117,19449,479,0,33653,0.0010000000000000009
440999,4978,9822,129720,402,5723,125290,108,19448,479,0,33654,0.0010000000000000009
441999,9546,-1428,126585,541,-2746,126198,108,19449,442,0,33655,0.0010000000000000009
442999,7632,-4180,126251,-887,-8391,129837,108,19444,442,0,33656,0.0010000000000000009
443999,6292,1569,128840,-585,-202,125898,144,19430,590,1,33657,0.0010000000000000009
444999,4111,3638,128700,-2651,2334,126426,116,19443,475,1,33658,0.0010000000000000009
445999,10279,1964,127868,-1058,-1379,130721,102,19454,418,1,33659,0.0010000000000000009
446999,7702,6472,128657,1294,2872,123673,102,19454,418,1,33660,0.0010000000000000009
447999,7484,-2647,126576,676,-4457,127648,130,19445,418,0,33661,0.0010000000000000009
448999,6142,-1124,127609,-2283,-5546,128819,130,19449,532,0,33662,0.0010000000000000009
450000,9468,3643,129502,2271,1864,126721,103,19449,422,0,33663,0.0010009999999999741
451001,7093,3668,128388,-3449,1290,128140,102,19449,418,0,33664,0.0010010000000000296
452001,4517,4553,127457,-2742,1564,125717,100,19448,410,0,33665,0.0010000000000000009
453002,7003,2694,128182,363,188,126057,122,19448,410,1,33666,0.0010009999999999741
454005,12154,-4628,127530,3153,-6502,130645,106,19459,500,1,33667,0.0010030000000000316
455001,8659,-1652,127767,-847,-4088,128694,106,19451,434,1,33668,0.0009959999999999969
455999,8827,8352,129771,-303,6062,124472,110,19449,451,1,33669,0.0009979999999999989
457001,8303,4934,128270,-1027,2637,126776,100,19453,410,1,33670,0.0010020000000000029
457999,1499,-860,127270,-3520,-3642,128973,111,19443,455,0,33671,0.0009979999999999989
459001,3889,1233,127466,-5188,-1475,126997,111,19443,455,0,33672,0.0010020000000000029
459999,7768,2307,127580,-1030,-1212,126564,105,19448,455,0,33673,0.0009979999999999989
461001,5565,4492,128814,-1601,1861,126179,105,19449,430,0,33674,0.0010020000000000029
461999,8223,1484,127225,-4276,-1046,127787,105,19450,430,0,33675,0.0009979999999999989
463001,5786,3434,128408,-551,154,127239,123,19443,504,1,33676,0.0010020000000000029
464001,3250,2629,127840,-2420,-770,127652,103,19450,422,1,33677,0.0010000000000000009
465001,6285,2508,127316,-2866,-251,126073,102,19450,422,1,33678,0.0010000000000000009
466001,6920,2946,128036,-5982,-94,126499,98,19452,418,1,33679,0.0010000000000000009
467000,5376,2217,126847,409,-131,126459,98,19450,401,1,33680,0.0009989999999999721
468001,3096,5886,128037,-3381,2518,124883,109,19441,446,0,33681,0.0010010000000000296
469000,10426,6361,128612,-6765,4752,125879,113,19449,463,0,33682,0.0009989999999999721
469999,439,3400,126756,12043,1443,127758,109,19450,446,0,33683,0.0009990000000000276
471001,11949,1265,128283,-17169,-1037,125164,104,19450,426,0,33684,0.0010020000000000029
472003,8384,-2471,128877,-2905,-3005,130355,113,19447,426,0,33685,0.0010020000000000029
473000,2210,2315,128547,17107,-3462,129317,153,19444,463,1,33686,0.0009969999999999701
474001,-1672,-133,126603,-20584,2179,122941,153,19443,627,1,33687,0.0010010000000000296
475000,6656,14397,129642,-14127,11485,124219,101,19445,414,1,33688,0.0009989999999999721
475999,4469,5121,125833,14545,756,128731,101,19447,414,1,33689,0.0009990000000000276
477001,6742,5533,127185,-13577,1681,120300,109,19447,446,1,33690,0.0010019999999999474
477999,5504,-5850,127304,1560,-9034,133830,139,19444,446,0,33691,0.0009979999999999989
479001,6176,137,126253,2002,-418,124635,109,19441,569,0,33692,0.0010020000000000029
480000,3801,9873,131067,-8303,6534,125698,109,19445,446,0,33693,0.0009990000000000276
481001,6133,1995,127546,-4806,-1069,128170,110,19448,451,0,33694,0.0010009999999999741
481999,2271,2152,125825,718,-2083,127005,109,19446,446,0,33695,0.0009979999999999989
482999,6451,2538,128730,-6790,1963,125719,135,19446,553,1,33696,0.0010000000000000009
484001,5706,2291,127248,992,312,126599,99,19442,553,1,33697,0.0010020000000000029
485001,8692,5293,127691,-613,3293,125703,109,19449,405,1,33698,0.0010000000000000009
485999,7236,5545,129068,-5548,1933,127041,109,19446,446,1,33699,0.0009979999999999989
487001,4291,-202,125952,3081,-1961,128045,107,19448,438,1,33700,0.0010020000000000029
488002,1676,1862,127965,-5321,-2169,127361,125,19440,512,1,33701,0.0010010000000000296
488999,7230,1397,128081,-9982,489,124614,161,19445,659,0,33702,0.0009969999999999701
490001,6823,5589,128542,2064,973,128217,111,19445,659,0,33703,0.0010020000000000029
491013,8342,1264,127680,635,-383,128174,111,19446,455,0,33704,0.0010120000000000129
492002,7420,1852,126628,-7315,-2092,125348,111,19441,455,0,33705,0.0009890000000000176
492999,758,1343,127010,668,-661,127539,131,19437,537,1,33706,0.0009969999999999701
493999,5106,2848,127623,-5043,-616,126722,176,19450,721,1,33707,0.0010000000000000009
495001,11898,2348,129044,-4736,1244,127173,103,19446,422,1,33708,0.0010020000000000029
495999,6468,5584,128895,2603,2355,125653,100,19446,422,1,33709,0.0009979999999999989
496999,9223,-2210,126182,3170,-4832,127666,109,19447,410,1,33710,0.0010000000000000009
498002,4898,-1003,127502,-4005,-4226,128513,109,19438,446,0,33711,0.0010030000000000316
499001,6441,4228,129444,-1507,2208,127145,96,19447,393,0,33712,0.0009989999999999721
500001,8895,4459,127814,-3628,1884,127842,114,19448,467,0,33713,0.0010000000000000564
501001,8893,5622,129131,-759,3155,126506,109,19449,446,0,33714,0.0010000000000000009
501999,6269,-146,127408,5189,-2345,126175,111,19449,446,0,33715,0.0009979999999999434
502999,10035,-6955,125975,-2675,-9731,130998,149,19444,455,0,33716,0.0010000000000000009
504001,6149,3027,128568,-2174,682,125334,149,19426,610,1,33717,0.0010020000000000584
504999,6848,8524,130219,-48,5896,125362,121,19448,496,1,33718,0.0009979999999999434
506001,10623,-1006,127237,-411,-3578,131415,101,19445,414,1,33719,0.0010019999999999474
506999,7096,782,127832,-962,-560,126052,99,19444,405,1,33720,0.0009980000000000544
508002,6002,1316,128366,1438,-2887,126074,129,19444,405,0,33721,0.0010029999999999761
508999,8461,-607,126763,-180,-5287,130132,103,19444,528,0,33722,0.0009970000000000256
510000,8037,4299,128196,-641,2751,125989,103,19450,422,0,33723,0.0010010000000000296
511002,7988,8618,129221,-3204,4334,125034,106,19452,434,0,33724,0.0010019999999999474
512002,6594,458,127010,1037,-1509,128263,100,19449,410,0,33725,0.0010000000000000009
512999,4329,-1415,127473,229,-2260,131360,123,19455,504,1,33726,0.0009970000000000256
514001,12625,-641,128661,-339,-4933,129839,103,19455,504,1,33727,0.0010019999999999474
515001,8989,144,128255,524,-3514,126591,107,19443,422,1,33728,0.0010000000000000009
515999,5341,7404,128704,626,5892,126084,107,19447,438,1,33729,0.0009980000000000544
516999,7402,4025,127690,-3105,1884,127516,100,19456,410,1,33730,0.0010000000000000009
518000,5091,-1017,126580,-3697,-4501,126549,112,19444,459,0,33731,0.0010010000000000296
518999,2873,4242,127940,-2875,1996,125797,117,19448,479,0,33732,0.0009989999999999721
519999,9589,2673,127790,-2291,214,127478,107,19448,438,0,33733,0.0010000000000000009
520999,5888,1746,128782,-751,-2252,127233,105,19452,438,0,33734,0.0010000000000000009
522000,5275,-851,127207,-4129,-3170,128062,121,19442,430,0,33735,0.0010010000000000296
522999,5065,4454,127951,-987,1681,126527,121,19441,496,1,33736,0.0009989999999999721
523999,7103,4501,127148,-5489,965,126000,99,19452,405,1,33737,0.0010000000000000009
524999,3523,5660,127734,-3208,2630,124749,104,19452,426,1,33738,0.0010000000000000009
525999,7779,2412,127528,-2921,-1563,128403,101,19452,414,1,33739,0.0010000000000000009
527001,3876,1352,126998,-1672,-1065,126421,110,19454,414,1,33740,0.0010019999999999474
527999,3877,-376,126291,-4486,-2656,127419,108,19445,451,0,33741,0.0009980000000000544
528999,8959,11864,128902,6167,9322,122045,108,19451,442,0,33742,0.0010000000000000009
529999,6524,1401,126024,-10695,-2506,130426,110,19449,451,0,33743,0.0010000000000000009
530999,11367,7149,130042,-7183,4899,120541,105,19452,430,0,33744,0.0010000000000000009
531999,1675,-4113,127976,12175,-8935,134281,113,19452,463,0,33745,0.0010000000000000009
532999,3322,-6314,126119,-10828,-8846,130160,155,19442,463,1,33746,0.0010000000000000009
533999,-2748,3199,128712,-14020,2416,124004,101,19446,635,1,33747,0.0010000000000000009
534999,7892,14051,127781,6503,12478,124758,101,19448,414,1,33748,0.0010000000000000009
535999,6762,12540,126579,-6553,9137,120566,102,19448,418,1,33749,0.0010000000000000009
536999,6308,519,127957,-2782,-4325,128932,107,19449,438,1,33750,0.0010000000000000009
537999,3628,-8511,125744,1212,-11047,130943,138,19438,565,0,33751,0.0010000000000000009
538999,4772,4870,128486,-6824,1399,124523,108,19438,565,0,33752,0.0010000000000000009
539999,4693,8289,130801,-3423,4773,128304,109,19448,442,0,33753,0.0010000000000000009
540999,4250,2964,126809,-584,-40,126270,109,19445,446,0,33754,0.0010000000000000009
541999,2686,390,126103,-9539,-2576,128389,111,19444,455,0,33755,0.0010000000000000009
542999,5844,7628,128877,-2989,5173,122433,139,19442,569,1,33756,0.0010000000000000009
543999,9694,1136,127183,4848,-1194,127511,99,19452,405,1,33757,0.0010000000000000009
544999,6788,5192,128788,-5887,2687,126433,107,19452,405,1,33758,0.0010000000000000009
545999,7050,794,128259,-4845,-1882,128957,107,19450,438,1,33759,0.0010000000000000009
547003,4064,1759,126858,4350,-955,127651,107,19447,438,1,33760,0.0010040000000000049
547999,1294,1538,127450,-5572,-1329,126758,125,19441,512,0,33761,0.0009959999999999969
548999,6885,4549,128487,-10405,1851,124217,152,19451,623,0,33762,0.0010000000000000009
549999,9695,4579,128322,227,2091,127388,114,19443,467,0,33763,0.0010000000000000009
550999,5362,2026,128496,3013,-523,128483,112,19443,467,0,33764,0.0010000000000000009
551999,6747,-1251,126075,-4697,-4273,126260,128,19441,459,0,33765,0.0010000000000000009
552999,1269,1452,127661,-2631,-1697,128277,128,19430,524,1,33766,0.0010000000000000009
553999,4417,4163,127243,-4624,16,126382,175,19450,717,1,33767,0.0010000000000000009
554999,13989,6382,128195,-2909,4424,125083,104,19453,426,1,33768,0.0010000000000000009
555999,8237,3992,128228,2259,2165,125860,101,19448,414,1,33769,0.0010000000000000009
556999,5668,-3164,126682,3362,-5686,126991,111,19448,414,0,33770,0.0010000000000000009
557999,4792,-3882,127421,-4865,-6705,130770,97,19442,455,0,33771,0.0010000000000000009
558999,9226,6220,129257,-1621,2642,126212,97,19447,397,0,33772,0.0010000000000000009
560004,4715,8619,128722,-988,4532,125994,115,19445,471,0,33773,0.0010049999999999226
561000,10822,369,127043,-2161,254,127841,107,19450,438,0,33774,0.0009959999999999969
561999,8059,-470,127117,268,-2076,128264,109,19441,446,0,33775,0.0009990000000000832
562999,6053,-3054,127118,3353,-8303,126533,150,19441,614,1,33776,0.0010000000000000009
563999,7045,1085,127390,-4128,-261,127170,117,19430,614,1,33777,0.0010000000000000009
564999,7393,8132,129753,-3284,6149,128474,101,19446,479,1,33778,0.0010000000000000009
565999,11142,3692,128463,-56,3331,125260,101,19445,414,1,33779,0.0010000000000000009
566999,7239,-6313,125328,2257,-9741,130189,102,19442,418,1,33780,0.0009999999999998899
567999,4916,1906,128323,1312,-3877,127262,130,19446,532,0,33781,0.0010000000000000009
568999,9647,-123,128099,-2500,2602,126092,104,19446,426,0,33782,0.0010000000000000009
569999,8055,4580,128097,-319,2351,129244,104,19449,426,0,33783,0.0010000000000000009
570999,7515,10168,129258,649,4602,124385,100,19452,426,0,33784,0.0010000000000000009
572001,6609,1516,127758,201,-886,125834,100,19450,410,1,33785,0.0010020000000000584
572999,7158,-8700,126433,1344,-10977,133152,121,19453,496,1,33786,0.0009979999999999434
573999,10114,-327,128322,1952,-2690,127702,103,19449,422,1,33787,0.0010000000000000009
574999,9852,6393,130038,-2909,6722,125027,106,19449,434,1,33788,0.0010000000000000009
575999,4922,7159,128576,40,3678,126065,97,19449,434,1,33789,0.0010000000000000009
576999,3430,2158,127517,-2697,-2904,129456,110,19453,397,1,33790,0.0010000000000000009
577999,6522,-285,127050,-6220,-1186,126217,110,19440,451,0,33791,0.0010000000000000009
578999,6665,3280,128417,264,419,125455,109,19449,446,0,33792,0.0010000000000000009
579999,8484,2686,127928,1734,169,127545,108,19449,442,0,33793,0.0010000000000000009
580999,7732,2585,128395,-6284,-883,127427,106,19449,434,0,33794,0.0010000000000000009
582001,4675,-860,127595,-1851,-3024,128919,123,19449,434,0,33795,0.0010020000000000584
583001,2575,6033,127996,-981,3008,125779,89,19435,504,1,33796,0.0010000000000000009
584001,8605,1077,127268,-5963,-983,127138,89,19453,365,1,33797,0.0010000000000000009
584999,5746,2796,127913,-4364,-70,125261,102,19451,418,1,33798,0.0009979999999999434
586001,5625,2179,126971,1393,-486,126997,100,19451,410,1,33799,0.0010020000000000584
586999,4163,2836,126470,-2983,104,127123,112,19446,459,0,33800,0.0009979999999999434
588002,7347,7814,128902,-8375,5758,124650,104,19446,459,0,33801,0.0010030000000000872
588999,3515,5876,126824,10721,2574,126820,109,19452,426,0,33802,0.0009969999999999146
589999,6447,1892,126738,-14291,-1015,126644,109,19450,446,0,33803,0.0010000000000000009
591001,10899,-2735,128999,-6629,-5205,127210,103,19450,422,0,33804,0.0010020000000000584
591999,3023,-240,127901,17373,-2699,130136,114,19445,467,0,33805,0.0009979999999999434
592999,2584,-1072,125645,-15286,-4157,127898,158,19446,647,1,33806,0.0010000000000000009
593999,3285,11660,129785,-17453,9187,122013,104,19446,647,1,33807,0.0010000000000000009
595000,5312,8815,126559,14323,6842,127478,106,19446,426,1,33808,0.0010010000000000296
595999,6053,4656,126153,-8292,1790,123620,106,19450,434,1,33809,0.0009989999999999721
596999,5900,-2125,127929,-8918,-4126,127184,108,19439,442,1,33810,0.0010000000000000009
598000,5452,-3539,126594,5220,-7095,130319,137,19439,561,0,33811,0.0010010000000000296
598999,4114,8064,129475,-2851,4763,123143,107,19448,438,0,33812,0.0009989999999999721
599999,5375,4829,128581,-12604,2582,129391,110,19448,438,0,33813,0.0010000000000000009
600999,2310,4646,126965,1427,2023,124131,113,19452,451,0,33814,0.0010000000000000009
602002,4712,-2475,126542,-3340,-5616,130538,113,19443,463,1,33815,0.0010029999999999761
602999,4155,6137,128759,-6317,3677,123846,143,19444,586,1,33816,0.0009970000000000256
603999,10615,2389,126888,1865,-1140,126179,99,19447,405,1,33817,0.0010000000000000009
604999,5388,8064,128914,-3630,5230,126616,109,19452,446,1,33818,0.0010000000000000009
605999,6377,-499,126579,-2849,-2088,128190,104,19452,446,1,33819,0.0010000000000000009
606999,3689,4167,127788,293,1379,125850,123,19452,426,1,33820,0.0010000000000000009
607999,3577,-2731,126986,-5944,-5751,129654,123,19439,504,0,33821,0.0010000000000000009
608999,6995,8489,130167,-7529,5870,126100,145,19446,594,0,33822,0.0010000000000000009
609999,9944,-1426,127328,3239,-3152,129197,117,19449,479,0,33823,0.0010000000000000009
610999,5925,5846,128426,-947,3248,124957,111,19445,455,0,33824,0.0010000000000000009
611999,3331,-2270,125841,-4307,-5990,127553,131,19445,537,0,33825,0.0010000000000000009
612999,4941,5883,128179,-2962,683,126723,174,19439,537,1,33826,0.0010000000000000009
613999,6034,3159,127047,-3296,1099,126920,104,19446,713,1,33827,0.0010000000000000009
614999,10919,6125,128758,-2540,2324,125665,104,19450,426,1,33828,0.0010000000000000009
615999,10298,-1831,126614,2666,-4973,128425,101,19447,414,1,33829,0.0010000000000000009
616999,3348,1782,128051,-1151,-3203,126579,113,19442,463,0,33830,0.0010000000000000009
617999,4575,-2801,127757,-1571,-370,129015,95,19442,389,0,33831,0.0010000000000000009
618999,11639,6370,128672,-4304,2302,127340,117,19447,389,0,33832,0.0010000000000000009
619999,3913,9133,129818,101,6589,124722,106,19448,479,0,33833,0.0010000000000000009
620999,9317,-846,126950,3287,-3804,127396,106,19449,434,0,33834,0.0010000000000000009
621999,8420,-5292,126216,-2387,-8958,130269,110,19444,451,0,33835,0.0010000000000000009
622999,6518,2402,128801,109,572,124970,149,19423,610,1,33836,0.0010000000000000009
623999,4888,3465,128636,-2910,3607,126414,118,19446,483,1,33837,0.0010000000000000009
624999,10994,2970,127868,-762,-2466,130633,104,19446,483,1,33838,0.0010000000000000009
625999,6258,5338,129277,448,2448,124331,103,19450,426,1,33839,0.0010000000000000009
626999,8363,-5704,125853,1310,-6942,128801,103,19444,422,0,33840,0.0010000000000000009
627999,4530,1013,127990,-1450,-3581,128083,129,19448,528,0,33841,0.0010000000000000009
628999,10485,4624,129920,-525,2980,125912,104,19447,426,0,33842,0.0010000000000000009
629999,7170,3320,127902,-3578,1817,127990,106,19449,434,0,33843,0.0010000000000000009
630999,6612,4915,127746,1020,919,126571,100,19449,434,0,33844,0.0010000000000000009
631999,6629,1897,127902,274,-476,125885,125,19445,410,1,33845,0.0010000000000000009
632999,11064,-5843,127638,-104,-7064,130767,125,19460,512,1,33846,0.0010000000000000009
633999,8135,-686,128370,2306,-3262,129314,103,19448,422,1,33847,0.0010000000000000009
634999,9579,8145,129790,-831,5902,124149,108,19452,442,1,33848,0.0010000000000000009
635999,5553,4309,128332,-1778,1741,127136,98,19450,401,1,33849,0.0010000000000000009
636999,1652,-535,126380,-4287,-3688,128692,113,19450,401,1,33850,0.0010000000000000009
637999,5851,4485,127621,-3564,2043,124956,109,19441,463,0,33851,0.0010000000000000009
638999,9778,2412,127575,-1525,-694,126576,109,19449,446,0,33852,0.0010000000000000009
639999,4616,2504,128363,688,-79,126443,111,19449,455,0,33853,0.0010000000000000009
640999,9299,-693,127024,-5443,-3432,129027,109,19448,446,0,33854,0.0010000000000000009
641999,4650,1617,127741,-409,-1727,127483,126,19435,516,1,33855,0.0010000000000000009
642999,2368,4877,128337,-3028,2006,125970,96,19435,516,1,33856,0.0010000000000000009
644001,7330,3781,127717,-5134,1403,126397,104,19450,393,1,33857,0.0010019999999999474
644999,5258,4547,128199,-5109,1864,125011,104,19450,426,1,33858,0.0009980000000000544
645999,4734,575,127196,109,-2170,128053,102,19453,418,1,33859,0.0010000000000000009
646999,3554,2119,127297,-2663,-679,126269,116,19445,475,0,33860,0.0010000000000000009
647999,10014,3998,127733,-4643,478,127074,106,19448,434,0,33861,0.0010000000000000009
648999,2044,10233,127158,9335,8763,123394,109,19448,434,0,33862,0.0010000000000000009
649999,13206,830,127541,-16462,-2201,128517,103,19453,446,0,33863,0.0010000000000000009
650999,6228,3491,130145,-877,2337,123576,103,19450,422,0,33864,0.0010000000000000009
651999,1785,-6454,127791,12367,-8696,133943,112,19443,459,0,33865,0.0010000000000000009
652999,-1108,-1593,126806,-17107,-7446,128633,156,19444,639,1,33866,0.0010000000000000009
653999,6000,11270,129137,-9695,7768,123783,104,19451,426,1,33867,0.0010000000000000009
654999,6297,13588,126212,8255,11473,123886,104,19451,426,1,33868,0.0010000000000000009
655999,7722,8291,127599,-10852,7580,125296,109,19449,426,1,33869,0.0010000000000000009
656999,5458,-9861,125785,632,-10327,133678,139,19448,446,0,33870,0.0010000000000000009
658001,4579,-2116,126681,81,-7817,124388,139,19445,569,0,33871,0.0010019999999999474
659001,4651,7117,131607,-8446,4279,127316,109,19443,446,0,33872,0.0010000000000000009
659999,5216,4766,128009,-3755,576,127347,107,19448,438,0,33873,0.0009980000000000544
660999,1904,2151,125714,-1745,-1969,127846,111,19448,455,0,33874,0.0010000000000000009
661999,6684,3804,127861,-9105,3489,123242,143,19444,455,1,33875,0.0010000000000000009
662999,4795,3134,126933,-598,-393,127544,102,19442,586,1,33876,0.0010000000000000009
663999,10348,3700,128193,2203,2328,126040,102,19447,418,1,33877,0.0010000000000000009
664999,6347,3938,129290,-7408,130,127788,110,19449,451,1,33878,0.0010000000000000009
665999,4319,-274,126268,4357,-1702,129177,106,19449,434,1,33879,0.0010000000000000009
667001,3266,3627,127964,-4574,-276,125443,123,19438,504,1,33880,0.0010019999999999474
667999,4420,1001,127566,-9458,-223,126408,145,19438,504,0,33881,0.0009980000000000544
668999,8427,6089,128540,-1685,1848,126117,113,19447,594,0,33882,0.0010000000000000009
669999,10697,2622,128532,2461,293,128548,113,19446,463,0,33883,0.0010000000000000009
671000,6782,855,127171,-2712,-3139,126421,112,19449,459,0,33884,0.0010009999999999186
671999,517,-514,126442,-2054,-2930,127865,130,19435,532,0,33885,0.0009990000000000832
672999,4130,2136,127281,-6212,-260,127885,173,19450,709,1,33886,0.0010000000000000009
673999,10970,6231,128283,-3901,4204,124842,103,19450,709,1,33887,0.0010000000000000009
674999,8249,6538,128727,2421,3729,125444,97,19448,422,1,33888,0.0010000000000000009
675999,11103,-2850,126114,1853,-5984,128092,97,19448,397,1,33889,0.0010000000000000009
676999,3860,-3449,127418,-2000,-6642,128465,111,19444,455,0,33890,0.0010000000000000009
677999,5936,1235,129045,-514,318,128865,94,19449,385,0,33891,0.0010000000000000009
679000,9202,6177,127637,-4241,3805,126211,118,19446,483,0,33892,0.0010009999999999186
679999,5750,8904,129443,-2363,5409,125372,106,19446,483,0,33893,0.0009990000000000832
681000,9509,-297,127279,2603,-2254,125818,110,19449,434,0,33894,0.0010009999999999186
682001,8301,-7771,125522,1599,-10667,131140,110,19440,451,0,33895,0.0010010000000000296
682999,6982,2404,129019,-1499,-109,125206,148,19423,606,1,33896,0.0009980000000000544
683999,5362,6388,129447,-3152,4290,125635,101,19447,414,1,33897,0.0010000000000000009
684999,11982,806,128101,-408,-1796,131630,102,19445,418,1,33898,0.0009999999999998899
685999,5363,3258,128038,2398,700,125031,102,19445,418,1,33899,0.0010000000000000009
686999,6711,-2042,127525,-1040,-5062,127162,129,19442,418,0,33900,0.0010000000000000009
687999,5717,-171,126786,-2488,-4661,128386,129,19452,528,0,33901,0.0010000000000000009
688999,10656,5689,128918,1353,3698,126205,104,19447,426,0,33902,0.0010000000000000009
689999,8022,7687,129047,-1189,4013,126269,102,19450,418,0,33903,0.0010000000000000009
690999,5835,821,127209,-1409,-1320,127537,104,19449,426,0,33904,0.0010000000000000009
691999,4618,-1120,127748,21,-3200,127122,117,19449,426,1,33905,0.0010000000000000009
693005,13539,-2776,128301,2263,-6244,130438,105,19454,479,1,33906,0.0010060000000000624
694001,7838,872,128192,-270,-2474,128599,105,19447,430,1,33907,0.0009959999999999969
694999,6591,8338,128888,-2045,6306,124108,109,19450,446,1,33908,0.0009979999999999434
696000,6844,4896,127805,-1638,2525,126729,97,19449,397,1,33909,0.0010010000000000296
696999,3537,-1963,126540,-1987,-4341,128903,113,19442,463,0,33910,0.0009989999999999721
697999,3653,2961,127319,-6160,-232,125384,111,19442,463,0,33911,0.0010000000000000009
698999,8986,2991,128074,18,153,126551,109,19450,455,0,33912,0.0010000000000000009
699999,6684,2035,128574,-731,-1054,127769,109,19448,446,0,33913,0.0010000000000000009
701000,6141,930,127285,-5560,-1604,127767,109,19453,446,0,33914,0.0010010000000000296
701999,5731,3295,127811,-1189,-379,127681,123,19437,504,1,33915,0.0009989999999999721
702999,3616,4220,127253,-1584,432,126361,89,19454,365,1,33916,0.0010000000000000009
703999,5540,3462,127894,-4477,261,125792,100,19454,410,1,33917,0.0010000000000000009
705000,7276,1860,126693,-4568,483,126798,98,19453,410,1,33918,0.0010010000000000296
705999,5554,4471,127210,2231,396,124495,115,19452,401,1,33919,0.0009989999999999721
706999,3223,2659,127406,-6220,-317,127922,115,19445,471,0,33920,0.0010000000000000009
707999,10666,9113,129043,-2830,6726,124706,105,19448,430,0,33921,0.0010000000000000009
708999,1441,1446,127186,11156,-2863,129078,110,19450,451,0,33922,0.0010000000000000009
710000,12479,3031,129563,-21490,14,122871,103,19450,422,0,33923,0.0010010000000000296
711001,3595,-3614,128316,18674,-6492,133950,113,19450,422,0,33924,0.0010010000000000296
711999,3701,-1149,126753,-7543,-4648,128694,153,19444,463,1,33925,0.0009979999999999434
712999,-3671,6053,127764,-24022,6736,120729,153,19444,627,1,33926,0.0010000000000000009
713999,8569,16065,129261,9077,12650,124834,104,19449,426,1,33927,0.0010000000000000009
714999,3820,2209,124871,2127,-1451,127864,105,19451,430,1,33928,0.0010000000000000009
715999,6179,2834,128414,-12738,-1285,123211,109,19447,446,1,33929,0.0010000000000000009
716999,5457,-6546,126999,812,-9064,132724,140,19447,446,0,33930,0.0010000000000000009
717999,6145,5903,127277,1927,3597,122483,107,19442,573,0,33931,0.0010000000000000009
718999,2998,9558,130924,-8887,4875,128248,107,19448,438,0,33932,0.0010000000000000009
719999,6342,708,126342,-5487,-1165,126651,107,19447,438,0,33933,0.0010000000000000009
720999,1523,2346,126486,107,-1691,127679,113,19444,463,0,33934,0.0010000000000000009
721999,6768,3394,128743,-4812,1646,124939,145,19445,594,1,33935,0.0010000000000000009
722999,7715,2690,127693,156,973,126015,102,19445,594,1,33936,0.0010000000000000009
723999,7836,4161,128156,-2038,2056,127800,110,19442,418,1,33937,0.0010000000000000009
725001,8125,4623,128454,-3897,1863,126065,110,19447,451,1,33938,0.0010020000000000584
726001,4114,800,126496,3031,-1164,128015,103,19447,422,1,33939,0.0010000000000000009
726999,1251,1370,127570,-7238,-2021,127141,124,19435,508,0,33940,0.0009979999999999434
727999,8092,1635,128430,-8593,-435,125202,145,19443,594,0,33941,0.0010000000000000009
728999,6827,4835,128251,2808,1515,128656,113,19443,594,0,33942,0.0010000000000000009
729999,6257,2135,127737,-479,-481,127043,116,19447,463,0,33943,0.0010000000000000009
731001,7617,1229,126428,-7206,-1648,125359,116,19446,475,0,33944,0.0010020000000000584
732000,1990,1490,127401,1097,-1509,128311,133,19434,545,1,33945,0.0009989999999999721
732999,4149,3325,127134,-4996,109,126140,169,19448,692,1,33946,0.0009989999999999721
733999,12985,3619,129426,-4698,1975,127172,103,19451,422,1,33947,0.0010000000000000009
734999,6413,3824,128545,2364,1330,125599,100,19451,422,1,33948,0.0010000000000000009
735999,7266,-2737,126816,4001,-5724,128387,112,19448,410,1,33949,0.0010000000000000009
736999,6012,-2233,127077,-4927,-4310,128933,112,19441,459,0,33950,0.0010000000000000009
737999,7559,6405,129316,-2075,2947,125978,97,19446,397,0,33951,0.0010000000000000009
738999,6961,5830,128131,-2374,2588,126976,118,19447,483,0,33952,0.0010000000000000009
739999,10772,2529,127936,-386,1932,127436,108,19451,442,0,33953,0.0010000000000000009
740999,5383,-554,127128,4008,-2850,125485,111,19451,442,0,33954,0.0010000000000000009
741999,8941,-4653,126834,-3091,-8813,131069,147,19440,455,0,33955,0.0010000000000000009
742999,7066,1986,127940,-2282,525,125637,147,19427,602,1,33956,0.0010000000000000009
743999,7972,9582,130368,543,6660,124964,103,19445,422,1,33957,0.0010000000000000009
744999,9523,-456,127251,-776,-4204,131402,104,19450,426,1,33958,0.0010000000000000009
745999,8068,-2580,126078,-1140,-2218,126115,105,19448,430,1,33959,0.0010000000000000009
746999,4855,3845,128875,2197,-969,125136,132,19448,541,0,33960,0.0010000000000000009
748000,10049,-156,127705,-827,-5427,130546,105,19448,541,0,33961,0.0010010000000000296
748999,7450,2320,127469,-1591,1819,129495,104,19446,430,0,33962,0.0009989999999999721
749999,7213,10343,129667,-2489,5687,123658,104,19446,426,0,33963,0.0010000000000000009
750999,7789,231,127000,1339,-2119,126281,99,19449,405,1,33964,0.0010000000000000009
752002,4722,-4921,126791,216,-3668,132248,121,19456,496,1,33965,0.0010029999999999761
752999,11622,497,128520,-617,-5301,127620,108,19456,442,1,33966,0.0009970000000000256
753999,8865,3056,129104,-340,4322,125690,110,19445,442,1,33967,0.0010000000000000009
754999,4466,6292,128532,1209,2628,126413,99,19445,451,1,33968,0.0010000000000000009
755999,5854,3085,127427,-3892,-2246,128000,99,19449,405,1,33969,0.0010000000000000009
757001,6658,-370,127009,-3757,-485,126226,112,19440,459,0,33970,0.0010019999999999474
757999,5045,4253,128543,2110,1160,125998,104,19448,426,0,33971,0.0009980000000000544
758999,8368,2531,127725,365,-384,127610,106,19448,434,0,33972,0.0010000000000000009
759999,7652,1949,128782,-7074,-1645,127601,106,19452,434,0,33973,0.0010000000000000009
760999,4585,-1207,127378,580,-3417,128547,122,19448,434,0,33974,0.0010000000000000009
761999,5173,6186,128284,-1167,3247,125664,122,19437,500,1,33975,0.0010000000000000009
762999,2729,3038,127190,-6573,-163,126554,93,19450,381,1,33976,0.0010000000000000009
763999,3672,5360,128141,-3039,2557,124457,102,19452,418,1,33977,0.0010000000000000009
764999,6799,1068,126916,-1458,-2182,129238,99,19450,405,1,33978,0.0010000000000000009
765999,3989,2220,127321,-2924,40,125460,111,19450,405,1,33979,0.0010000000000000009
767000,2809,2536,127464,-7116,-748,127924,105,19442,455,0,33980,0.0010010000000000296
767999,10616,10855,128445,9354,9029,120905,105,19454,430,0,33981,0.0009989999999999721
768999,1435,2690,126474,-9275,-1478,130734,110,19450,451,0,33982,0.0010000000000000009
769999,13048,2062,128699,-12570,665,122386,104,19452,426,0,33983,0.0010000000000000009
771001,1543,867,129155,16525,-2597,130061,115,19441,471,0,33984,0.0010019999999999474
771999,260,-7544,125610,-9604,-10509,134094,155,19441,471,1,33985,0.0009980000000000544
772999,-1473,7275,129274,-20473,5128,120140,104,19447,635,1,33986,0.0010000000000000009
774000,5384,11896,128019,8639,9532,128280,104,19444,426,1,33987,0.0010009999999999186
774999,6340,11250,125560,-3026,8595,119823,103,19451,422,1,33988,0.0009990000000000832
775999,8299,902,128490,-9124,-2048,126291,109,19444,446,1,33989,0.0010000000000000009
776999,6541,-8198,126122,4153,-11415,132761,143,19444,586,0,33990,0.0010000000000000009
777999,4928,4395,127952,-2403,714,123967,109,19444,586,0,33991,0.0010000000000000009
778999,4000,8266,131106,-9630,5376,128756,109,19445,446,0,33992,0.0010000000000000009
779999,5107,3248,126605,1061,372,125782,109,19447,446,0,33993,0.0010000000000000009
780999,1837,-832,125830,-5682,-3532,129111,109,19442,446,0,33994,0.0010000000000000009
781999,6268,8266,129058,-6996,5753,122416,139,19446,569,1,33995,0.0010000000000000009
782999,5889,1599,126600,5691,-696,126622,101,19444,414,1,33996,0.0010000000000000009
783999,9315,5025,128478,-3072,2287,127634,110,19444,414,1,33997,0.0010000000000000009
785000,6363,1237,128022,-7164,-769,127508,107,19450,451,1,33998,0.0010009999999999186
786000,3945,1834,127189,3637,-1367,128808,107,19451,438,1,33999,0.0010000000000000009
786999,2707,1098,127493,-3465,-1244,126970,126,19437,516,0,34000,0.0009990000000000832
788000,5401,4678,128482,-11330,1657,123914,149,19447,610,0,34001,0.0010009999999999186
789001,10660,3090,128250,-176,1118,127835,112,19444,459,0,34002,0.0010010000000000296
790001,10136,2567,128309,3250,17,127481,112,19444,459,0,34003,0.0010000000000000009
790999,6798,-798,126224,-4853,-3783,126832,130,19440,459,0,34004,0.0009980000000000544
791999,-331,2620,128004,-3433,-648,127562,179,19433,532,1,34005,0.0010000000000000009
793002,4494,4778,127345,-5265,-433,126807,179,19448,733,1,34006,0.0010029999999999761
793999,11965,5157,128197,-2077,2864,126014,103,19451,422,1,34007,0.0009970000000000256
794999,7859,2548,127615,3201,1824,125549,99,19451,405,1,34008,0.0010000000000000009
795999,9726,-1372,127034,3782,-5182,125728,111,19451,455,0,34009,0.0010000000000000009
796999,3791,-3074,127631,-7317,-6115,130860,94,19442,455,0,34010,0.0010000000000000009
797999,6673,6464,129444,-2322,2405,127100,115,19445,385,0,34011,0.0010000000000000009
798999,9394,9311,129524,-887,5135,124466,115,19442,471,0,34012,0.0010000000000000009
799999,6861,-2334,126602,-1249,-1729,128501,106,19448,434,0,34013,0.0010000000000000009
800999,8115,-1318,126603,2647,-6790,127832,113,19443,463,0,34014,0.0010000000000000009
802010,7506,557,128130,-401,1360,125088,151,19425,618,1,34015,0.0010109999999999841
802999,6023,2326,128219,-2499,694,127657,110,19425,618,1,34016,0.0009890000000000176
803999,6234,4306,129203,-2277,-1616,130243,102,19447,451,1,34017,0.0009999999999998899
804999,10561,3903,128768,1760,2924,125021,102,19446,418,1,34018,0.0010000000000000009
805999,5952,-6460,125133,-23,-8803,130040,101,19449,414,1,34019,0.0010000000000000009
806999,6771,3560,128362,-1547,-1304,125613,129,19451,528,0,34020,0.0010000000000000009
807999,7531,2241,129470,-296,2481,126592,106,19444,434,0,34021,0.0010000000000000009
808999,9115,2424,127355,-2988,456,128622,107,19444,434,0,34022,0.0010000000000000009
809999,7893,8107,128665,561,3210,125222,102,19451,438,0,34023,0.0010000000000000009
810999,5776,907,127812,-843,-1512,126460,102,19449,418,1,34024,0.0010000000000000009
811999,4021,-7007,127162,741,-8876,131849,120,19454,491,1,34025,0.0010000000000000009
812999,14164,-308,128460,2837,-2966,128695,101,19449,414,1,34026,0.0010000000000000009
813999,8510,6800,129554,-2692,5502,124335,109,19453,446,1,34027,0.0010000000000000009
814999,6299,5523,128395,-607,2976,126249,99,19453,446,1,34028,0.0010000000000000009
815999,7118,1127,127051,-2381,-2378,128601,114,19448,405,1,34029,0.0010000000000000009
816999,4258,2004,127332,-5930,36,126167,114,19443,467,0,34030,0.0010000000000000009
818000,2755,3271,128260,-968,125,126183,108,19451,442,0,34031,0.0010010000000000296
818999,9700,1500,127772,1232,-1099,127573,107,19449,438,0,34032,0.0009989999999999721
819999,5757,1197,127746,-5003,-2085,127766,108,19444,442,0,34033,0.0010000000000000009
820999,6060,365,127731,-1878,-2410,128325,124,19444,442,0,34034,0.0010000000000000009
821999,5862,6647,128447,-1518,3690,125520,90,19440,508,1,34035,0.0010000000000000009
822999,5599,2180,127566,-5226,564,126857,90,19451,369,1,34036,0.0010000000000000009
823999,4815,3954,127932,-5120,816,125253,103,19455,422,1,34037,0.0010000000000000009
824999,6744,-378,126324,2049,-3336,127082,100,19452,410,1,34038,0.0010000000000000009
825999,6043,4474,126896,-4390,1843,125935,112,19444,459,0,34039,0.0010000000000000009
826999,2804,6183,128582,-5919,3260,126716,100,19444,459,0,34040,0.0010000000000000009
827999,11108,7825,127510,10081,5942,124534,108,19454,410,0,34041,0.0010000000000000009
829002,1941,954,127204,-15823,-2190,127858,108,19449,442,0,34042,0.0010030000000000872
829999,12000,-1792,129336,-4266,-3620,125834,105,19448,430,0,34043,0.0009969999999999146
830999,2747,-2349,127912,16588,-5413,132696,114,19441,467,0,34044,0.0010000000000000009
832000,5046,317,126105,-16641,-3804,127004,157,19444,643,1,34045,0.0010010000000000296
833002,-3826,15210,130336,-15538,12054,120969,103,19444,422,1,34046,0.0010019999999999474
834000,8685,8281,126141,12483,7906,126766,101,19447,422,1,34047,0.0009980000000000544
834999,3335,2570,126199,-6371,-732,125237,101,19455,414,1,34048,0.0009989999999999721
836000,6670,-4075,127332,-8730,-4906,127623,108,19447,442,1,34049,0.0010010000000000296
836999,5539,-645,127116,3084,-5856,129417,141,19441,577,0,34050,0.0009989999999999721
837999,6240,8171,130620,-796,5553,123976,108,19448,442,0,34051,0.0010000000000000009
838999,2880,2070,127471,-10999,542,130547,109,19448,446,0,34052,0.0010000000000000009
839999,6232,5690,127154,-2466,2259,122887,110,19449,446,0,34053,0.0010000000000000009
841000,1177,-646,127114,-945,-3567,130862,140,19442,451,1,34054,0.0010010000000000296
841999,6866,4934,127751,-4614,3068,123165,140,19442,573,1,34055,0.0009989999999999721
842999,8036,2475,127570,-1212,-662,126272,99,19446,405,1,34056,0.0010000000000000009
843999,8325,5859,128940,-3111,3550,126997,108,19450,442,1,34057,0.0010000000000000009
844999,7361,-764,126259,-4,-1301,129209,106,19450,434,1,34058,0.0010000000000000009
845999,3938,3942,128343,-1932,551,125022,125,19452,434,1,34059,0.0010000000000000009
847001,719,-1495,127016,-7297,-2322,127498,151,19438,512,0,34060,0.0010020000000000584
847999,8044,8214,129928,-6142,4177,125834,151,19444,618,0,34061,0.0009979999999999434
848999,6960,-802,127530,2449,-2682,129493,113,19452,463,0,34062,0.0010000000000000009
849999,6180,4430,127755,-1305,-119,124602,110,19443,451,0,34063,0.0010000000000000009
850999,7888,-2128,126025,-4223,-3895,128797,131,19443,537,0,34064,0.0010000000000000009
851999,2216,4519,127836,-6215,1097,126151,179,19436,537,1,34065,0.0010000000000000009
852999,3204,4857,127598,-4569,1632,126657,107,19449,733,1,34066,0.0010000000000000009
853999,13465,5925,128736,2048,3041,125397,107,19447,438,1,34067,0.0010000000000000009
854999,7067,-3250,126181,1655,-6481,129213,100,19448,410,1,34068,0.0010000000000000009
855999,6894,1542,128102,-131,-2124,125940,112,19443,459,0,34069,0.0010000000000000009
856999,6266,-1555,127985,-1739,-958,129049,91,19446,373,0,34070,0.0010000000000000009
857999,7382,5815,128441,-5166,2668,126929,116,19446,373,0,34071,0.0010000000000000009
858999,6058,9378,129893,1406,6252,125301,108,19446,475,0,34072,0.0010000000000000009
859999,11280,-638,126964,3009,-2973,126595,108,19448,442,0,34073,0.0010000000000000009
860999,5506,-6008,126068,-3242,-9486,130161,109,19440,446,0,34074,0.0010000000000000009
861999,9091,3089,129023,983,916,124799,152,19423,623,1,34075,0.0010000000000000009
862999,7118,3933,128555,-2440,2421,127037,109,19443,446,1,34076,0.0010000000000000009
863999,7982,1671,127775,-1579,-1811,130352,102,19443,446,1,34077,0.0010000000000000009
864999,8987,5258,129237,141,2772,124067,100,19450,418,1,34078,0.0010000000000000009
865999,7994,-4477,126292,1090,-6955,128790,100,19449,410,0,34079,0.0010000000000000009
866999,4733,132,127692,-1116,-3678,128249,130,19454,532,0,34080,0.0010000000000000009
867999,10702,4916,129247,-394,2611,125794,105,19447,430,0,34081,0.0010000000000000009
868999,7812,4389,128213,-3916,1431,127943,103,19448,422,0,34082,0.0010000000000000009
870002,6834,3950,127711,1468,1499,126251,103,19448,422,0,34083,0.0010029999999999761
871000,7344,1513,128184,37,-733,126193,113,19449,422,1,34084,0.0009980000000000544
872001,4898,-5524,127799,-128,-8006,131622,113,19453,463,1,34085,0.0010009999999999186
872999,11387,453,128488,1752,-1993,128508,104,19451,426,1,34086,0.0009980000000000544
873999,9095,8281,129512,-168,5814,124630,109,19451,446,1,34087,0.0010000000000000009
874999,4882,4082,128235,-1873,1816,127070,97,19455,397,1,34088,0.0010000000000000009
875999,5276,-2110,126510,-4018,-4631,129068,115,19455,397,1,34089,0.0010000000000000009
876999,6203,4491,127576,-3906,1432,125252,107,19441,471,0,34090,0.0010000000000000009
877999,4748,2908,127661,-1210,35,126498,107,19450,438,0,34091,0.0010000000000000009
878999,8300,2554,128597,-584,-66,126808,109,19448,446,0,34092,0.0010000000000000009
879999,8454,-904,127008,-5365,-3282,128960,105,19451,430,0,34093,0.0010000000000000009
880999,4862,2338,128109,491,-1860,127439,122,19440,500,1,34094,0.0010000000000000009
881999,3561,4526,128055,-3037,1491,126342,89,19440,365,1,34095,0.0010000000000000009
882999,8593,4614,127680,-5455,1204,126127,101,19450,365,1,34096,0.0010000000000000009
883999,3773,3906,128323,-4734,1860,125550,100,19451,414,1,34097,0.0010000000000000009
884999,6018,1161,126865,274,-1579,127907,100,19454,410,1,34098,0.0010000000000000009
885999,3869,2290,127263,-3779,-84,125772,111,19440,455,0,34099,0.0010000000000000009
886999,5486,4984,128084,-4605,-445,127082,102,19448,418,0,34100,0.0010000000000000009
887999,6648,8285,127065,8385,8728,123287,108,19448,442,0,34101,0.0010000000000000009
888999,7237,1460,127989,-13726,-3267,129005,101,19452,442,0,34102,0.0010000000000000009
889999,10781,2501,129815,-3562,2815,130350,116,19450,414,0,34103,0.0010000000000000009
891000,785,-5945,127469,11827,-9202,132230,116,19445,475,1,34104,0.0010010000000000296
891999,2711,206,127490,-14676,-6362,123753,159,19445,651,1,34105,0.0009989999999999721
893008,439,10638,128415,-12315,11214,125524,107,19449,438,1,34106,0.0010089999999999266
893999,7533,15125,126990,7965,10953,120709,104,19449,426,1,34107,0.0009910000000000752
894999,7427,5744,127224,-8219,-171,125471,108,19450,426,1,34108,0.0010000000000000009
895999,6283,-8483,126158,-2352,-11807,132314,139,19449,442,0,34109,0.0010000000000000009
896999,3408,-2033,126810,979,-3665,126152,139,19446,569,0,34110,0.0010000000000000009
897999,5438,9470,131231,-7441,7373,126024,107,19447,438,0,34111,0.0010000000000000009
898999,4709,3955,128164,92,487,127847,111,19450,455,0,34112,0.0010000000000000009
899999,3922,853,125305,-5049,-2735,128096,113,19445,463,0,34113,0.0010000000000000009
900999,3059,4517,128170,-7025,3552,122990,143,19445,463,1,34114,0.0010000000000000009
901999,5304,3476,127560,4007,1282,127321,103,19439,586,1,34115,0.0010000000000000009
902999,10077,2789,127792,9,445,126891,103,19449,422,1,34116,0.0010000000000000009
903999,5784,3809,129495,-8394,973,127071,110,19449,451,1,34117,0.0010000000000000009
905000,6508,-583,126404,3487,-2702,129892,106,19449,434,1,34118,0.0010009999999999186
905999,5168,3474,127870,-2364,409,124528,127,19437,520,1,34119,0.0009990000000000832
906999,1655,1212,128100,-10164,-977,126722,145,19437,520,0,34120,0.0010000000000000009
907999,6828,5629,128224,-2877,2481,125736,115,19447,594,0,34121,0.0010000000000000009
908999,10856,2410,128550,3630,-297,128865,115,19444,471,0,34122,0.0010000000000000009
909999,5406,649,127008,-3606,-2409,126462,112,19441,459,0,34123,0.0010000000000000009
910999,4605,-38,126943,-2336,-3067,127581,132,19430,541,0,34124,0.0010000000000000009
911999,2665,2659,127491,-5891,-242,127793,165,19452,676,1,34125,0.0010000000000000009
912999,6264,4893,128950,-3256,3811,125395,103,19452,676,1,34126,0.0010000000000000009
914003,12313,6292,129110,2317,3550,125339,101,19448,422,1,34127,0.0010040000000000049
914999,10750,-2966,126131,1815,-5576,128010,101,19453,414,1,34128,0.0009959999999999969
915999,3329,-3398,127333,-2317,-6051,129055,115,19441,471,0,34129,0.0010000000000000009
917002,4249,3781,129497,-918,1371,128101,92,19447,377,0,34130,0.0010029999999999761
917999,11142,5940,128052,-2636,3179,126635,114,19449,467,0,34131,0.0009970000000000256
918999,2682,5378,128530,-1664,3722,126391,105,19449,467,0,34132,0.0010000000000000009
919999,10944,63,127597,1142,-2211,125308,110,19448,430,0,34133,0.0010000000000000009
921000,8288,-6379,125882,360,-9281,131134,110,19441,451,0,34134,0.0010009999999999186
921999,5863,2534,128230,-215,347,125611,150,19424,614,1,34135,0.0009990000000000832
922999,4900,7883,129839,-3206,4721,124789,109,19443,446,1,34136,0.0009999999999998899
923999,9590,434,127525,-1738,-2249,131915,106,19451,434,1,34137,0.0010000000000000009
924999,9128,1824,127791,982,1338,124155,102,19451,418,1,34138,0.0010000000000000009
925999,7889,283,128310,3671,-4177,127355,132,19449,418,0,34139,0.0010000000000000009
926999,4661,-3897,126099,-2830,-8714,130507,104,19451,541,0,34140,0.0010000000000000009
927999,9345,5421,128664,-1348,3641,125772,104,19445,426,0,34141,0.0010000000000000009
928999,8151,11023,129626,-2685,6286,125773,105,19452,430,0,34142,0.0010000000000000009
929999,7652,2617,127199,1325,1110,126210,101,19447,414,0,34143,0.0010000000000000009
930999,6113,-3633,127172,-244,-3053,127238,115,19447,471,1,34144,0.0010000000000000009
932002,10081,-2487,127834,982,-7738,130329,104,19457,471,1,34145,0.0010030000000000872
932999,8621,930,128759,1388,-3615,129388,107,19445,426,1,34146,0.0009969999999999146
934000,10336,8853,128912,-254,7218,124114,107,19451,438,1,34147,0.0010010000000000296
934999,5104,5037,127680,-3577,2886,126177,98,19451,401,1,34148,0.0009989999999999721
935999,2133,-2447,126630,-3051,-5480,127649,112,19440,459,0,34149,0.0010000000000000009
936999,5658,3951,127696,-3851,944,124351,101,19440,414,0,34150,0.0010000000000000009
937999,7785,2853,128013,-2274,181,128274,108,19449,414,0,34151,0.0010000000000000009
938999,6591,2742,128890,212,-226,126293,108,19445,442,0,34152,0.0010000000000000009
939999,8138,-1698,126989,-4419,-3250,129850,108,19448,442,0,34153,0.0010000000000000009
940999,4554,5281,127839,-2768,3550,125594,124,19437,508,1,34154,0.0010000000000000009
941999,1749,4921,127364,-1200,53,126650,81,19449,332,1,34155,0.0010000000000000009
942999,8855,3106,127960,-3366,656,125487,102,19453,418,1,34156,0.0010000000000000009
943999,5547,648,126755,-4296,-2465,127827,100,19453,418,1,34157,0.0010000000000000009
944999,5237,3106,126951,-2905,1191,126257,113,19453,410,1,34158,0.0010000000000000009
946000,3380,4412,127640,-6175,2263,126107,113,19444,463,0,34159,0.0010010000000000296
946999,8816,9841,128471,4938,6547,124414,98,19450,401,0,34160,0.0009989999999999721
948000,2154,2076,126960,-6130,-1305,128938,108,19448,442,0,34161,0.0010010000000000296
948999,8884,1127,129187,-13880,-1979,123950,104,19451,426,0,34162,0.0009989999999999721
949999,9489,-2696,128727,15478,-5367,131828,115,19451,426,0,34163,0.0010000000000000009
950999,2581,-1289,127244,-5951,-4543,129128,159,19445,471,1,34164,0.0010000000000000009
951999,1385,6962,128452,-23304,5611,122299,159,19442,651,1,34165,0.0010000000000000009
953001,7520,13918,128976,6946,11113,124840,106,19447,434,1,34166,0.0010020000000000584
954006,5410,3747,125097,1512,899,126566,104,19450,426,1,34167,0.0010049999999999226
955001,6582,2552,128271,-12460,-981,123074,111,19441,455,1,34168,0.0009950000000000792
956001,5555,-5853,127482,2162,-8696,132537,142,19441,455,0,34169,0.0010000000000000009
957001,6223,5549,126575,1741,1570,123970,108,19447,582,0,34170,0.0010000000000000009
958001,3148,9294,130585,-9705,6089,127033,108,19447,442,0,34171,0.0010000000000000009
958999,5203,2729,127076,-3736,39,126527,108,19450,442,0,34172,0.0009979999999999434
959999,1784,-497,125724,113,-3502,129090,115,19443,471,0,34173,0.0010000000000000009
961001,5693,4948,128974,-6809,2321,124053,145,19446,594,1,34174,0.0010020000000000584
962001,3607,2810,127483,776,1156,126066,101,19446,594,1,34175,0.0010000000000000009
962999,10671,5390,128038,-10,2697,126977,109,19446,414,1,34176,0.0009979999999999434
964002,5471,2969,128130,-5236,954,126739,109,19452,446,1,34177,0.0010029999999999761
965001,5209,986,126508,1759,-1750,128087,104,19446,426,1,34178,0.0009990000000000832
965999,3511,332,127484,-4936,-1881,127124,125,19433,512,0,34179,0.0009979999999999434
966999,5161,4878,129020,-9607,1624,124279,147,19447,602,0,34180,0.0010000000000000009
967999,6677,2180,127784,1547,181,129134,115,19447,602,0,34181,0.0010000000000000009
968999,10618,3889,128295,863,107,126991,113,19443,471,0,34182,0.0010000000000000009
969999,6468,-783,125728,-6143,-2885,126216,113,19443,463,0,34183,0.0010000000000000009
971000,1589,3775,128168,150,-94,126738,135,19435,553,1,34184,0.0010010000000000296
971999,5380,2341,127165,-5141,-852,126987,169,19449,692,1,34185,0.0009989999999999721
972999,8965,4557,128758,-4312,2067,127056,102,19446,418,1,34186,0.0010000000000000009
973999,8616,2281,127870,2464,1418,125692,100,19446,410,1,34187,0.0010000000000000009
974999,10382,291,127527,4001,-3864,127325,112,19451,410,1,34188,0.0010000000000000009
975999,3997,-4656,126718,-5267,-6184,129348,94,19440,459,0,34189,0.0010000000000000009
976999,5862,6959,129633,-1936,2537,126400,94,19442,385,0,34190,0.0010000000000000009
977999,11123,7024,128532,-2147,2602,127062,119,19445,487,0,34191,0.0010000000000000009
978999,5619,1511,127816,-870,2432,126774,106,19450,434,0,34192,0.0010000000000000009
979999,7968,-2009,126684,3843,-3418,125992,110,19450,451,0,34193,0.0010000000000000009
980999,9107,-2471,127405,-2091,-8202,130702,150,19443,451,0,34194,0.0010000000000000009
981999,5968,1025,127768,-2729,-298,126560,111,19425,614,1,34195,0.0010000000000000009
982999,5060,9120,130197,-327,7879,127558,111,19445,455,1,34196,0.0010000000000000009
983999,11021,1029,128075,-698,-4252,126158,104,19449,426,1,34197,0.0010000000000000009
984999,6610,-4062,125637,-435,-2402,130581,105,19450,430,1,34198,0.0010000000000000009
985999,7601,3264,128503,1668,-1162,125617,133,19451,545,0,34199,0.0010000000000000009
986999,5300,1415,128891,-437,2408,126576,105,19451,545,0,34200,0.0010000000000000009
987999,9592,733,127262,-1102,-1759,130635,104,19449,430,0,34201,0.0010000000000000009
988999,8046,10086,129291,-2204,5183,123696,104,19450,426,0,34202,0.0010000000000000009
989999,6328,712,127385,588,-803,126839,101,19445,414,1,34203,0.0010000000000000009
990999,5595,-5324,126953,683,-8375,131057,111,19454,455,1,34204,0.0010000000000000009
991999,13718,-72,128454,2325,-2591,128525,109,19448,446,1,34205,0.0010000000000000009
993000,7475,4656,129315,-2702,4051,125991,110,19448,446,1,34206,0.0010010000000000296
993999,7797,5603,128447,1439,2602,126257,99,19449,451,1,34207,0.0009989999999999721
994999,6833,2931,127340,-4363,-1137,127929,99,19450,405,1,34208,0.0010000000000000009
995999,3351,1189,126987,-5553,-674,125911,113,19439,463,0,34209,0.0010000000000000009
996999,3765,3074,128327,1475,355,126211,102,19449,418,0,34210,0.0010000000000000009
997999,10099,1780,127388,475,-733,127444,109,19446,446,0,34211,0.0010000000000000009
998999,4108,2021,128485,-6991,-1115,127268,107,19446,446,0,34212,0.0010000000000000009
999999,7281,-488,127612,270,-3166,128536,125,19445,438,0,34213,0.0010000000000000009
1000999,5020,5562,127977,-1847,2530,125804,125,19441,512,1,34214,0.0010000000000000009
1001999,3880,2167,127367,-6733,236,126893,82,19448,336,1,34215,0.0009999999999998899
1002999,6065,5584,128238,-2958,2814,124338,101,19452,414,1,34216,0.001000000000000112
1003999,7404,-102,126798,-1053,-2916,128510,99,19451,405,1,34217,0.0009999999999998899
1005001,4087,2191,127058,-2618,-364,126220,113,19451,405,0,34218,0.0010020000000001694
1005999,2818,434,126270,-5895,-2081,127921,99,19445,463,0,34219,0.0009979999999998324
1006999,10678,12711,127520,8485,9764,121205,99,19452,405,0,34220,0.001000000000000112
1007999,2702,968,126332,-12980,-1838,129854,109,19448,446,0,34221,0.0009999999999998899
1008999,13909,4246,129697,-7234,2176,122312,102,19446,418,0,34222,0.001000000000000112
1010001,5159,-4771,127612,15216,-7294,132578,114,19441,467,0,34223,0.0010019999999999474
1010999,2351,-5555,125142,-12685,-9163,131032,158,19441,467,1,34224,0.0009980000000000544
1011999,-3964,8315,129091,-16301,5040,122394,109,19451,647,1,34225,0.0009999999999998899
1012999,6760,13883,127098,9277,11757,125661,109,19448,446,1,34226,0.001000000000000112
1013999,4583,10586,126403,-6808,8433,120252,107,19453,438,1,34227,0.0009999999999998899
1014999,7071,-4541,127319,-5707,-5556,128902,112,19444,459,1,34228,0.001000000000000112
1015999,5064,-6673,125777,3856,-10882,131099,144,19441,590,0,34229,0.0009999999999998899
1016999,4505,5727,129520,-5236,1280,124681,108,19441,442,0,34230,0.001000000000000112
1017999,4621,7576,129921,-7935,5689,127957,107,19443,442,0,34231,0.0009999999999998899
1018999,6151,3925,126620,935,1330,125571,112,19449,438,0,34232,0.001000000000000112
1019999,2227,176,126362,-7002,-3455,129147,112,19444,459,0,34233,0.0009999999999998899
1020999,6989,7294,128653,-5379,5136,121965,145,19443,594,1,34234,0.001000000000000112
1021999,7964,1690,127146,5081,-1559,127287,102,19449,418,1,34235,0.0009999999999998899
1022999,8189,4818,128898,-4033,1552,127884,108,19449,442,1,34236,0.001000000000000112
1023999,6953,177,127350,-6099,-1046,127707,105,19447,442,1,34237,0.0009999999999998899
1024999,3768,4234,127782,2370,371,127571,124,19445,430,1,34238,0.001000000000000112
1025999,1244,139,127059,-3747,-1670,127184,124,19439,508,0,34239,0.0009999999999998899
1026999,6633,4845,128923,-10762,1137,123889,137,19443,561,0,34240,0.001000000000000112
1027999,8933,2492,128234,687,1224,128404,113,19450,463,0,34241,0.0009999999999998899
1028999,7356,2729,128093,4171,48,126364,113,19450,463,0,34242,0.001000000000000112
1029999,7424,-1465,126309,-5871,-3993,127690,133,19450,463,0,34243,0.0009999999999998899
1030999,-418,2442,127744,-4156,-1257,128068,157,19432,545,1,34244,0.001000000000000112
1032001,4089,6009,127196,-3829,309,125365,157,19446,643,1,34245,0.0010019999999999474
1032999,13403,5476,128362,-1143,3082,125392,101,19449,414,1,34246,0.0009980000000000544
1033999,6734,585,126966,2338,-4268,127799,98,19449,401,1,34247,0.0009999999999998899
1035001,8755,-1177,127271,3793,-4531,127175,115,19442,471,0,34248,0.0010020000000001694
1035999,4643,-1830,128125,-5762,-1301,130206,100,19442,471,0,34249,0.0009979999999998324
1036999,7816,5103,128690,-2534,2490,127062,117,19451,410,0,34250,0.001000000000000112
1037999,7702,10152,129875,1389,6981,124651,117,19443,479,0,34251,0.0009999999999998899
1038999,9724,-2505,126695,594,-3969,127498,104,19450,426,0,34252,0.001000000000000112
1040000,7004,-3369,126322,-2481,-7643,128950,112,19439,459,0,34253,0.0010010000000000296
1041002,8433,1890,128859,1102,595,125631,151,19421,618,1,34254,0.0010019999999999474
1041999,6272,2867,127948,-2237,1685,127051,92,19421,618,1,34255,0.0009969999999999146
1042999,5114,2837,127937,-3248,-1544,130402,103,19451,377,1,34256,0.001000000000000112
1043999,12204,7090,129170,1157,4518,123068,103,19447,422,1,34257,0.0009999999999998899
1044999,7627,-4515,126349,2583,-6842,129404,104,19453,426,0,34258,0.001000000000000112
1045999,8109,-1532,127959,-1936,-5434,128254,131,19451,537,0,34259,0.0009999999999998899
1047001,7978,2703,129971,228,1279,126932,103,19445,422,0,34260,0.0010019999999999474
1048024,7347,2212,127341,-4299,-66,129375,101,19445,422,0,34261,0.0010229999999999961
1048999,5039,8917,128221,-1608,5753,123881,104,19452,414,0,34262,0.0009750000000001702
1049999,7526,2926,127791,-734,580,126250,104,19445,426,1,34263,0.0009999999999998899
1050999,4698,-5804,127499,3385,-7395,130655,112,19456,459,1,34264,0.001000000000000112
1051999,12985,-1531,127650,1573,-5821,130087,108,19445,442,1,34265,0.0009999999999998899
1052999,10098,-487,130192,-33,6101,123775,109,19447,446,1,34266,0.001000000000000112
1053999,5169,7053,128383,-2448,1671,127669,97,19447,446,1,34267,0.0009999999999998899
1054999,6239,1993,127508,-2991,-533,127951,113,19448,397,1,34268,0.001000000000000112
1055999,4477,207,127254,-5432,-1301,127289,113,19443,463,0,34269,0.0009999999999998899
1057000,3667,1339,127676,-1932,-719,125823,98,19447,401,0,34270,0.0010010000000000296
1057999,7051,3785,128103,402,301,126588,108,19449,442,0,34271,0.0009989999999999721
1058999,9605,2177,127239,-3980,-1197,128026,106,19445,434,0,34272,0.001000000000000112
1059999,6077,1021,128531,-637,-587,126924,128,19445,434,1,34273,0.0009999999999998899
1060999,5096,4487,128171,-2489,440,127847,80,19435,524,1,34274,0.001000000000000112
1061999,7174,2598,126917,-3300,-630,126032,80,19451,328,1,34275,0.0009999999999998899
1062999,3095,2803,128194,-6704,-96,125862,102,19450,418,1,34276,0.001000000000000112
1064002,6547,2128,127165,533,-343,127107,98,19453,401,1,34277,0.0010029999999998651
1064999,5132,2548,127873,-3129,2291,125594,113,19441,463,0,34278,0.0009970000000001367
1065999,4324,6896,128637,-9442,3738,126334,95,19441,389,0,34279,0.0009999999999998899
1066999,7411,6328,126360,13844,2093,125670,112,19449,389,0,34280,0.001000000000000112
1067999,3255,3260,127560,-13959,-690,127007,104,19452,459,0,34281,0.0009999999999998899
1068999,14340,-877,128468,-9596,-5583,127619,104,19450,426,0,34282,0.001000000000000112
1069999,1799,2162,129295,20576,1438,127955,116,19444,475,0,34283,0.0009999999999998899
1070999,4291,-3322,125534,-17233,-8725,131742,157,19451,643,1,34284,0.001000000000000112
1071999,-3625,5338,130177,-17732,8978,120268,104,19451,426,1,34285,0.0009999999999998899
1072999,6830,12527,126190,14399,6619,128655,105,19449,426,1,34286,0.001000000000000112
1073999,5122,3277,126635,-7852,2824,122661,111,19448,430,1,34287,0.0009999999999998899
1074999,6938,6192,127500,-9054,-1966,126070,111,19442,455,1,34288,0.001000000000000112
1075999,5436,-6742,125979,4450,-8154,124774,145,19449,594,0,34289,0.0009999999999998899
1076999,6794,5543,131230,-2270,5027,124995,108,19447,442,0,34290,0.001000000000000112
1077999,3070,7194,128065,-11545,853,130498,108,19451,442,0,34291,0.0009999999999998899
1078999,5906,2450,126182,-213,1198,125132,111,19451,442,0,34292,0.001000000000000112
1079999,1486,-132,128211,-3156,-3101,126922,144,19442,455,1,34293,0.0009999999999998899
1080999,5941,5836,127219,-6062,1722,125693,144,19442,590,1,34294,0.001000000000000112
1081999,9901,2734,127421,1430,2577,125390,101,19449,414,1,34295,0.0009999999999998899
1083005,6720,5753,129204,-4559,2443,127225,109,19445,446,1,34296,0.0010060000000000624
1084001,7177,1524,125774,-571,-3570,128964,106,19445,434,1,34297,0.0009959999999999969
1085000,4891,2029,128684,-4500,36,126422,126,19445,434,1,34298,0.0009989999999999721
1086001,269,-800,127375,-10246,-1268,125898,136,19436,516,0,34299,0.0010010000000000296
1086999,6813,6557,129321,847,3380,126241,136,19445,557,0,34300,0.0009980000000000544
1087999,8878,1218,127410,1788,-2662,129712,113,19448,463,0,34301,0.0009999999999998899
1088999,5179,3863,127178,-6612,-13,124277,114,19445,467,0,34302,0.001000000000000112
1089999,6758,-1403,126827,1051,-2579,128598,137,19432,561,0,34303,0.0009999999999998899
1090999,3752,4358,127730,-5578,661,126321,164,19432,561,1,34304,0.001000000000000112
1091999,2887,2463,128239,-4313,291,127956,105,19449,672,1,34305,0.0009999999999998899
1092999,13352,4856,129034,2102,3699,124665,105,19445,430,1,34306,0.001000000000000112
1094002,9006,-3017,125940,1613,-5619,128373,101,19445,414,1,34307,0.0010029999999998651
1094999,4366,1032,127715,-1429,-2510,126729,114,19441,467,0,34308,0.0009970000000001367
1095999,6032,-4919,128888,-351,-573,129290,99,19449,405,0,34309,0.0009999999999998899
1097000,9525,5964,128153,-5310,1743,127706,120,19449,405,0,34310,0.0010010000000000296
1098001,3169,7588,129980,188,5062,125691,107,19444,491,0,34311,0.0010010000000000296
1098999,11586,382,127434,4372,-1431,126312,107,19448,438,0,34312,0.0009980000000000544
1099999,6726,-2005,125503,-3229,-9679,130711,112,19441,459,0,34313,0.0009999999999998899
1100999,7395,-37,128753,-482,1574,124289,150,19426,614,1,34314,0.001000000000000112
1101999,7043,439,129742,-1184,3316,126641,93,19444,381,1,34315,0.0009999999999998899
1103014,9534,-529,127470,-892,-2804,131080,103,19444,422,1,34316,0.0010149999999999881
1103999,7037,3228,128608,44,957,125227,105,19448,422,1,34317,0.0009850000000000136
1104999,8752,-6303,127798,983,-5017,127861,105,19445,430,0,34318,0.0009999999999998899
1105999,4148,3789,126671,-1147,-4471,129062,132,19449,541,0,34319,0.001000000000000112
1106999,10908,1847,128892,136,4128,124995,106,19448,434,0,34320,0.0009999999999998899
1107999,7803,1943,128815,-3941,2406,126753,102,19449,418,0,34321,0.001000000000000112
1108999,6514,8208,127267,1061,-426,127492,102,19449,418,0,34322,0.0009999999999998899
1109999,7489,1303,127888,582,-988,126030,112,19447,418,1,34323,0.001000000000000112
1110999,6473,-6546,128317,-19,-6736,130818,105,19454,459,1,34324,0.0009999999999998899
1111999,10257,486,128001,1161,-3402,129240,105,19447,430,1,34325,0.001000000000000112
1112999,10282,5545,128888,262,5935,124229,107,19452,438,1,34326,0.0009999999999998899
1114000,4738,5219,128021,-2417,2428,126443,99,19453,405,1,34327,0.0010010000000000296
1114999,4093,892,126534,-3937,-4525,129106,114,19453,467,0,34328,0.0009989999999999721
1115999,6552,2726,127741,-3768,2180,124879,97,19441,467,0,34329,0.001000000000000112
1116999,6302,2792,127787,-1993,-575,127158,106,19452,397,0,34330,0.0009999999999998899
1118001,6220,2723,129026,-445,472,126192,106,19447,434,0,34331,0.0010020000000001694
1118999,9753,463,126757,-4598,-4215,129550,106,19446,434,0,34332,0.0009979999999998324
1120001,4440,-537,128159,-216,-885,127088,127,19438,520,1,34333,0.0010020000000001694
1121001,2862,4905,127293,-3092,760,126404,82,19438,336,1,34334,0.0009999999999998899
1121999,8535,3097,128078,-4434,2775,125504,101,19451,336,1,34335,0.0009980000000000544
1123001,3280,2532,127873,-4877,1841,128600,98,19450,414,1,34336,0.0010019999999999474
1123999,5381,597,127229,159,-1911,126541,98,19450,401,1,34337,0.0009980000000000544
1125001,3838,1411,126727,-4352,-1409,127824,112,19442,459,0,34338,0.0010019999999999474
1125999,7747,993,129374,-2318,2459,120984,96,19447,393,0,34339,0.0009980000000000544
1126999,5244,12400,126512,7577,-1167,131039,110,19451,451,0,34340,0.0009999999999998899
1128000,9081,-43,129382,-15058,4544,120519,105,19451,451,0,34341,0.0010010000000000296
1128999,8325,6097,128936,-477,-7556,132936,117,19452,430,0,34342,0.0009989999999999721
1129999,1081,-7357,127192,9945,-8299,131107,117,19442,479,1,34343,0.001000000000000112
1130999,1160,-3255,128531,-16263,261,123869,160,19447,655,1,34344,0.0009999999999998899
1131999,3963,6960,128261,3418,11655,125436,103,19445,422,1,34345,0.001000000000000112
1132999,7972,15288,126647,-1769,10468,120132,104,19451,426,1,34346,0.0009999999999998899
1133999,7539,9580,127712,-6825,-1601,126624,108,19451,426,1,34347,0.001000000000000112
1135000,5855,-4933,126165,2061,-11346,131718,144,19447,442,0,34348,0.0010010000000000296
1135999,4367,-5775,127447,-4553,-1907,125161,144,19444,590,0,34349,0.0009989999999999721
1136999,4862,5664,131125,-5416,6224,127221,109,19444,446,0,34350,0.0009999999999998899
1137999,5164,5568,127304,456,-123,127342,109,19448,446,0,34351,0.001000000000000112
1138999,2479,2943,125557,-7436,-2135,127767,113,19442,463,0,34352,0.0009999999999998899
1139999,4456,1992,128574,-6210,4467,122613,142,19442,463,1,34353,0.001000000000000112
1140999,4734,7017,127464,4877,1003,127302,103,19446,582,1,34354,0.0009999999999998899
1141999,9857,2110,127947,-1317,548,127332,103,19447,422,1,34355,0.001000000000000112
1142999,5103,4351,128912,-8144,559,127063,109,19452,446,1,34356,0.0009999999999998899
1143999,5898,103,126491,4854,-1929,129301,106,19444,434,1,34357,0.001000000000000112
1144999,3920,3249,127579,-3902,-122,125294,129,19438,528,1,34358,0.0009999999999998899
1146001,2836,442,128062,-11430,-159,125871,140,19438,528,0,34359,0.0010020000000001694
1146999,7535,6180,128053,-796,3330,126049,113,19443,573,0,34360,0.0009979999999998324
1147999,11078,3461,128646,3658,-40,128543,113,19445,463,0,34361,0.001000000000000112
1148999,5817,1019,126216,-4351,-4374,127321,112,19445,459,0,34362,0.0009999999999998899
1149999,2423,-2405,127467,-2332,-3191,127720,138,19435,565,1,34363,0.001000000000000112
1150999,3469,1660,127552,-5609,241,127425,163,19448,668,1,34364,0.0009999999999998899
1151999,7803,7910,129224,-3688,4975,125088,102,19448,668,1,34365,0.001000000000000112
1153000,10688,6257,128806,1869,3388,125328,97,19449,418,1,34366,0.0010010000000000296
1153999,11024,370,126141,2788,-5636,128239,97,19447,397,1,34367,0.0009989999999999721
1154999,3223,-2017,127326,-2391,-6403,128921,112,19442,459,0,34368,0.0009999999999998899
1156001,5478,-1941,129635,-954,968,128461,97,19446,397,0,34369,0.0010020000000001694
1156999,11317,4877,128447,-2407,3116,126657,119,19448,487,0,34370,0.0009979999999998324
1157999,4489,10430,127937,-983,3262,127193,107,19448,438,0,34371,0.001000000000000112
1158999,9701,-1480,127106,1760,-1678,125084,111,19449,438,0,34372,0.0009999999999998899
1159999,7380,-3574,126291,-519,-8910,130306,151,19439,455,0,34373,0.001000000000000112
1161004,6767,1583,128228,-4382,167,125705,151,19423,618,1,34374,0.0010049999999999226
1161999,3554,3291,129766,1565,4011,125740,93,19443,381,1,34375,0.0009950000000000792
1162999,9996,1218,127364,-1161,-3032,131945,102,19449,418,1,34376,0.0009999999999998899
1163999,7795,6938,126426,-1113,907,123830,105,19449,430,1,34377,0.001000000000000112
1164999,7998,-1830,128834,1945,-868,125392,135,19442,430,0,34378,0.0009999999999998899
1165999,7617,-1168,127336,-45,-8432,131160,105,19450,553,0,34379,0.001000000000000112
1167000,8852,3829,127927,847,1726,126692,105,19449,430,0,34380,0.0010010000000000296
1167999,7687,1493,128882,-3175,1989,127086,100,19448,410,0,34381,0.0009989999999999721
1168999,3431,6334,127905,-2364,1868,125389,100,19447,410,0,34382,0.0009999999999998899
1169999,8032,3685,127109,220,-1268,131649,105,19450,430,1,34383,0.001000000000000112
1170999,11518,-4636,127826,3024,-4598,126648,107,19450,430,1,34384,0.0009999999999998899
1171999,9078,-1722,128433,-1855,-4567,127331,109,19448,438,1,34385,0.001000000000000112
1173002,9359,7218,129131,1802,5554,125503,109,19449,446,1,34386,0.0010029999999998651
1174002,8515,3760,127646,-2614,-922,128401,98,19447,401,1,34387,0.001000000000000112
1175001,1655,42,127927,-3593,-504,126642,115,19440,471,0,34388,0.0009989999999999721
1176000,4003,2495,127579,-4666,-1511,126851,98,19446,401,0,34389,0.0009989999999999721
1176999,8058,1353,127693,-1578,999,126556,105,19446,401,0,34390,0.0009989999999999721
1177999,4317,3757,128585,-5847,-406,126956,105,19450,430,0,34391,0.001000000000000112
1178999,9092,1026,127320,-771,-619,127036,105,19445,430,0,34392,0.0009999999999998899
1180000,5916,4458,128310,-1262,1585,127030,126,19438,516,1,34393,0.0010010000000000296
1180999,3417,2571,126919,-3663,-1719,127040,82,19454,336,1,34394,0.0009989999999999721
1182001,6972,1521,127495,-3030,-989,125512,102,19451,418,1,34395,0.0010019999999999474
1182999,5857,2749,127369,-2703,-75,127224,98,19451,418,1,34396,0.0009980000000000544
1183999,5166,2360,126836,-2346,482,126525,113,19449,401,1,34397,0.001000000000000112
1185002,2376,6191,128857,-7990,4291,125355,113,19438,463,0,34398,0.0010029999999998651
1185999,10444,5673,127134,5035,2308,126256,94,19450,385,0,34399,0.0009970000000001367
1187000,875,4142,127299,-1120,828,126907,109,19448,446,0,34400,0.0010010000000000296
1187999,10174,1729,128320,-18980,-3634,125940,103,19448,422,0,34401,0.0009989999999999721
1188999,11467,-3024,128950,16158,-802,128273,117,19448,422,0,34402,0.0009999999999998899
1189999,1455,4478,126529,-2105,-4657,131664,161,19440,479,1,34403,0.001000000000000112
1191000,-46,-4278,127974,-26062,1362,122741,161,19448,659,1,34404,0.0010009999999998076
1191999,3783,13616,129216,5784,11517,124226,104,19449,426,1,34405,0.0009990000000001942
1192999,5276,6783,124600,4762,-440,129124,102,19456,418,1,34406,0.0009999999999998899
1194002,6872,6259,128404,-13931,3342,118980,109,19446,446,1,34407,0.0010030000000000872
1194999,6414,-2597,127507,1450,-8480,134697,148,19446,446,0,34408,0.0009969999999999146
1195999,6259,-2780,126220,2872,-389,123414,111,19444,606,0,34409,0.001000000000000112
1196999,3479,9329,131037,-8785,5971,127027,111,19447,455,0,34410,0.0009999999999998899
1197999,5109,1683,127022,-5063,-1569,128238,109,19446,446,0,34411,0.001000000000000112
1198999,2613,2203,126092,815,-2934,127072,112,19443,459,0,34412,0.0009999999999998899
1199999,5401,1804,129326,-7716,3083,125904,145,19445,594,1,34413,0.001000000000000112
1200999,5411,4534,126894,936,1087,124722,107,19445,438,1,34414,0.0009999999999998899
1201999,8970,3600,128025,-628,2799,127123,113,19446,438,1,34415,0.001000000000000112
1202999,6809,6844,127795,-5988,1402,126830,107,19449,463,1,34416,0.0009999999999998899
1204001,4979,-1650,127090,2808,-2339,128125,107,19446,438,1,34417,0.0010019999999999474
1205001,2722,3603,127568,-3528,-2130,128245,129,19435,528,0,34418,0.001000000000000112
1205999,5752,-1221,128946,-10989,194,123855,132,19445,541,0,34419,0.0009980000000000544
1207000,7089,7120,128272,1285,1285,128826,112,19445,459,0,34420,0.0010009999999998076
1207999,8944,144,127938,1910,-220,127620,114,19443,459,0,34421,0.0009990000000001942
1208999,7054,4387,126105,-7404,-1133,124816,133,19442,467,0,34422,0.0009999999999998899
1209999,377,-98,128213,-1113,-222,127978,133,19434,545,1,34423,0.001000000000000112
1210999,5287,3389,126728,-3408,-1427,126466,154,19449,631,1,34424,0.0009999999999998899
1211999,11118,677,128532,-2702,431,127792,104,19450,426,1,34425,0.001000000000000112
1213000,6873,7328,127611,1219,2420,124934,101,19450,414,1,34426,0.0010009999999998076
1213999,10256,-3276,127629,4248,-4067,127002,113,19449,414,0,34427,0.0009990000000001942
1214999,4231,739,127208,-5857,-4878,129628,98,19445,463,0,34428,0.0009999999999998899
1215999,6693,1738,129207,-2450,1866,126135,98,19444,401,0,34429,0.001000000000000112
1216999,9085,4925,129063,-2155,3588,125012,116,19446,475,0,34430,0.0009999999999998899
1217999,7703,5860,127475,-776,358,127866,104,19449,426,0,34431,0.001000000000000112
1218999,7211,629,126505,3760,-2281,129141,113,19444,463,0,34432,0.0009999999999998899
1219999,10236,-7523,128255,-1574,-8208,124718,157,19444,463,1,34433,0.001000000000000112
1220999,5801,4947,127778,-3396,-428,128002,96,19421,643,1,34434,0.0009999999999998899
1221999,6363,6739,128956,-659,781,128682,96,19447,393,1,34435,0.0009999999999998899
1222999,10430,-538,128665,195,1395,125561,104,19449,426,1,34436,0.001000000000000112
1223999,6863,990,125338,-1217,-9099,130547,104,19442,426,1,34437,0.0009999999999998899
1224999,6233,572,128442,-280,-1340,126175,136,19451,557,0,34438,0.001000000000000112
1225999,7873,-672,129653,-199,2479,126532,109,19451,557,0,34439,0.0009999999999998899
1226999,8309,5066,127127,-4530,-81,128961,104,19447,446,0,34440,0.001000000000000112
1227999,8439,7952,128604,1402,4085,124670,104,19451,426,0,34441,0.0009999999999998899
1228999,6802,1230,127520,551,-706,126287,102,19445,418,1,34442,0.001000000000000112
1229999,4748,-829,127288,-186,-8530,131267,107,19456,438,1,34443,0.0009999999999998899
1230999,13264,-2100,128602,2388,-3624,128894,104,19450,426,1,34444,0.001000000000000112
1231999,8535,-1268,129724,-1655,4341,125733,107,19450,426,1,34445,0.0009999999999998899
1232999,5540,7960,128578,-456,3328,126115,99,19452,438,1,34446,0.001000000000000112
1233999,6956,5085,126866,-3766,-1351,128171,99,19449,405,1,34447,0.0009999999999998899
1234999,4456,-733,127243,-5350,786,125432,116,19443,475,0,34448,0.001000000000000112
1235999,3161,4276,127907,-168,-576,126653,93,19449,381,0,34449,0.0009999999999998899
1236999,9714,1275,127940,1165,-454,127216,107,19450,438,0,34450,0.001000000000000112
1237999,5621,2256,127686,-6194,-2964,128333,108,19450,438,0,34451,0.0009999999999998899
1238999,5656,-1682,127833,-695,-2484,128037,125,19447,442,0,34452,0.001000000000000112
1239999,4820,5689,128259,-2320,3089,126178,125,19436,512,1,34453,0.0009999999999998899
1240999,6363,4427,127683,-6177,1119,126308,88,19450,360,1,34454,0.001000000000000112
1241999,4106,6153,128717,-4204,2768,124461,105,19454,430,1,34455,0.0009999999999998899
1242999,7864,789,126845,-773,-3612,129215,102,19449,418,1,34456,0.001000000000000112
1243999,4327,791,126936,-1702,-1457,126320,117,19449,479,0,34457,0.0009999999999998899
1245000,4290,409,128147,-4257,2404,125686,91,19438,479,0,34458,0.0010010000000000296
1245999,9308,12725,126638,6411,7513,124580,107,19448,373,0,34459,0.0009989999999999721
1246999,5921,2693,127866,-14877,-228,126651,107,19449,438,0,34460,0.001000000000000112
1247999,11303,6288,129949,-378,856,125023,101,19450,414,0,34461,0.0009999999999998899
1249001,1978,-6670,127312,10942,-10181,133652,117,19441,479,0,34462,0.0010020000000001694
1249999,3122,-4822,127114,-16009,-6397,128135,164,19441,672,1,34463,0.0009979999999998324
1251001,-2275,3960,129019,-9180,7243,124122,108,19447,672,1,34464,0.0010020000000001694
1251999,7564,15711,126534,6569,13492,122299,103,19452,442,1,34465,0.0009979999999998324
1252999,6583,11831,127285,-10765,6601,122463,103,19447,422,1,34466,0.001000000000000112
1253999,6592,289,125896,1398,-8522,130264,108,19443,442,1,34467,0.0009999999999998899
1254999,4521,-9950,126493,183,-10146,129967,146,19441,598,0,34468,0.001000000000000112
1255999,4014,4483,131082,-8547,3167,125091,107,19441,438,0,34469,0.0009999999999998899
1257001,4876,8514,128150,-1909,4095,128474,110,19444,438,0,34470,0.0010020000000001694
1257999,3595,4169,126232,-3105,1445,125611,114,19449,451,0,34471,0.0009979999999998324
1258999,2900,1526,127452,-8895,-1326,127161,114,19440,467,1,34472,0.001000000000000112
1259999,5796,6393,127199,-659,3516,123431,147,19449,602,1,34473,0.0009999999999998899
1260999,9629,569,127659,3028,-1935,126911,101,19447,414,1,34474,0.001000000000000112
1261999,7221,4929,129307,-7708,2444,127289,106,19446,434,1,34475,0.0009999999999998899
1262999,7023,1520,126595,-607,-1716,129233,105,19446,434,1,34476,0.001000000000000112
1263999,3006,2380,127783,1049,436,124569,129,19450,430,1,34477,0.0009999999999998899
1264999,1319,1743,127548,-7685,-2035,127040,129,19437,528,0,34478,0.001000000000000112
1265999,7195,4041,128540,-7808,2919,125403,130,19444,532,0,34479,0.0009999999999998899
1266999,9377,3925,128599,2905,-929,129030,113,19446,463,0,34480,0.001000000000000112
1267999,6270,1653,127359,1228,-2320,126573,112,19447,459,0,34481,0.0009999999999998899
1268999,6782,-857,126598,-4296,-3343,127525,134,19447,459,0,34482,0.001000000000000112
1269999,819,1616,127521,-4424,-72,127676,141,19430,549,1,34483,0.0009999999999998899
1270999,4144,4321,127974,-3847,4176,125230,141,19448,577,1,34484,0.001000000000000112
1271999,13907,5365,128499,2852,2274,125935,102,19448,418,1,34485,0.0009999999999998899
1272999,7938,4186,126487,1392,-4708,127729,100,19448,410,1,34486,0.001000000000000112
1273999,6313,-2657,127557,-751,-5347,127709,116,19444,475,0,34487,0.0009999999999998899
1274999,5156,-3451,129012,-1264,-562,129577,105,19444,475,0,34488,0.001000000000000112
1275999,8446,5307,128042,-3404,2606,126975,118,19445,430,0,34489,0.0009999999999998899
1276999,4760,9128,129838,-215,6084,125114,118,19445,483,0,34490,0.001000000000000112
1277999,10794,59,126849,641,-3231,126668,105,19446,430,0,34491,0.0009999999999998899
1278999,6966,83,126107,-1813,-8264,129590,113,19441,463,0,34492,0.001000000000000112
1279999,7899,-4083,129094,872,441,125826,154,19426,631,1,34493,0.0009999999999998899
1280999,5850,1358,128526,-1588,2450,126720,96,19426,631,1,34494,0.001000000000000112
1281999,7481,7075,127499,-3164,-1162,130548,102,19446,393,1,34495,0.0009999999999998899
1282999,10171,3461,128950,1469,4105,123335,102,19449,418,1,34496,0.001000000000000112
1283999,8512,-2651,127179,1133,-5965,128827,104,19441,426,0,34497,0.0009999999999998899
1284999,7503,1131,127555,-396,-6163,128903,137,19450,561,0,34498,0.001000000000000112
1285999,8785,-1325,129281,218,1047,127372,105,19446,430,0,34499,0.0009999999999998899
1286999,7995,371,128367,-4154,1786,127776,101,19446,414,0,34500,0.001000000000000112
1287999,4472,12044,127784,-2013,4404,124792,105,19446,414,0,34501,0.0009999999999998899
1289000,9135,2931,128004,1544,269,125979,106,19448,430,1,34502,0.0010010000000000296
1289999,4561,-4751,127779,2250,-7550,131027,106,19460,434,1,34503,0.0009989999999999721
1290999,12312,-2876,127590,169,-6354,129936,108,19445,442,1,34504,0.001000000000000112
1291999,8141,4785,129979,1060,7478,123159,105,19448,430,1,34505,0.0009999999999998899
1292999,7133,4945,128137,-2940,1244,128086,99,19448,405,1,34506,0.001000000000000112
1293999,3160,4357,127295,-3147,-1503,127744,118,19449,405,1,34507,0.0009999999999998899
1295000,5597,-384,126619,-5480,-2635,127567,93,19440,483,0,34508,0.0010010000000000296
1295999,5955,2234,127863,-805,1184,124654,93,19452,381,0,34509,0.0009989999999999721
1296999,6531,4428,128300,-1503,206,127457,108,19450,442,0,34510,0.001000000000000112
1297999,10091,1704,127028,-3458,-955,127351,106,19447,434,0,34511,0.0009999999999998899
1298999,4891,1503,128542,-653,-690,127872,128,19447,524,1,34512,0.001000000000000112
1299999,4654,2160,127796,-3010,-435,127772,82,19434,524,1,34513,0.0009999999999998899
1300999,6685,3228,127159,-3835,34,125598,101,19449,336,1,34514,0.001000000000000112
1302000,4996,2284,127591,-6865,-421,126766,101,19450,414,1,34515,0.0010010000000000296
1302999,4705,2960,126965,2607,-137,125518,101,19452,414,1,34516,0.0009989999999999721
1303999,5755,4214,127873,-4422,2937,126332,117,19440,479,0,34517,0.0009999999999998899
1305002,7192,4800,128476,-6943,3662,126304,93,19440,381,0,34518,0.0010030000000000872
1305999,3236,7640,127170,13429,3342,125075,106,19449,381,0,34519,0.0009969999999999146
1306999,7050,932,128388,-20080,-2099,127676,101,19448,434,0,34520,0.001000000000000112
1307999,11758,-826,129256,-1118,-3864,126903,101,19448,414,0,34521,0.0009999999999998899
1308999,1025,249,127549,17921,-2303,130794,117,19441,479,1,34522,0.001000000000000112
1309999,3877,-4478,127150,-22180,-6267,121247,165,19453,676,1,34523,0.0009999999999998899
1310999,1114,12647,129826,-13281,12611,125456,107,19445,438,1,34524,0.001000000000000112
1311999,7390,10315,124968,15074,5170,127348,104,19445,438,1,34525,0.0009999999999998899
1312999,5475,5146,127947,-11553,3319,120914,109,19450,426,1,34526,0.001000000000000112
1313999,6475,-1038,126639,-6636,-11311,134911,109,19443,446,0,34527,0.0009999999999998899
1314999,4354,-4758,126550,5152,715,123017,144,19446,590,0,34528,0.001000000000000112
1315999,5239,8050,131516,-5099,6367,127069,109,19445,446,0,34529,0.0009999999999998899
1316999,4350,4746,127247,-11645,-232,127281,109,19448,446,0,34530,0.001000000000000112
1317999,4122,4475,126121,1842,-2435,127927,117,19448,446,0,34531,0.0009999999999998899
1318999,3340,-1002,129058,-7491,1612,125006,150,19445,479,1,34532,0.001000000000000112
1319999,5185,6101,127152,1247,471,126575,150,19445,614,1,34533,0.0009999999999998899
1320999,10170,2317,128037,-394,2742,126480,103,19450,422,1,34534,0.001000000000000112
1322001,6200,6600,128943,-5731,2169,126446,108,19445,442,1,34535,0.0010019999999999474
1322999,6525,720,126336,3411,-1821,128824,106,19450,434,1,34536,0.0009980000000000544
1323999,4468,3161,127877,-5892,-1496,126416,128,19450,434,1,34537,0.0009999999999998899
1324999,2278,-1916,128200,-10035,-37,125314,131,19434,524,0,34538,0.001000000000000112
1325999,6670,7486,128397,2505,871,127882,131,19447,537,0,34539,0.0009999999999998899
1326999,9593,581,127679,882,-836,127805,115,19447,471,0,34540,0.001000000000000112
1327999,5154,4859,126336,-7812,-2044,125572,117,19442,479,0,34541,0.0009999999999998899
1328999,3812,-1990,127141,1619,-1796,127851,137,19430,561,0,34542,0.001000000000000112
1329999,5111,4605,127473,-5263,-425,126695,148,19430,561,1,34543,0.0009999999999998899
1330999,4708,3709,129310,-5413,2283,126785,103,19439,606,1,34544,0.001000000000000112
1331999,11597,6022,128755,2670,3052,125216,103,19443,422,1,34545,0.0009999999999998899
1333001,10846,-1021,126190,2804,-5614,128383,100,19451,410,1,34546,0.0010019999999999474
1334000,3259,1438,126966,-3151,-4601,127852,117,19443,479,0,34547,0.0009989999999999721
1335001,5166,-4066,129553,-494,1320,127560,103,19444,422,0,34548,0.0010010000000000296
1335999,11227,6475,127833,-4606,1755,127595,118,19444,483,0,34549,0.0009980000000000544
1336999,3364,8905,129047,-493,4727,125818,106,19445,483,0,34550,0.001000000000000112
1337999,10296,-233,127144,4960,-2165,126162,112,19448,434,0,34551,0.0009999999999998899
1339000,8351,-4171,126054,-2622,-9066,130459,112,19438,459,0,34552,0.0010010000000000296
1339999,6461,2078,127971,-1735,425,125309,156,19424,639,1,34553,0.0009989999999999721
1340999,5789,645,130275,203,4754,125719,94,19449,385,1,34554,0.0009999999999998899
1341999,10433,4665,127528,-765,-3475,131447,102,19449,418,1,34555,0.001000000000000112
1342999,6005,4980,127317,-800,604,125371,105,19453,418,1,34556,0.0009999999999998899
1343999,8468,-5622,128536,1527,-3295,126596,130,19447,430,0,34557,0.001000000000000112
1344999,4726,1552,126977,-434,-5558,130001,130,19450,532,0,34558,0.0009999999999998899
1346007,10459,4103,127841,-377,2938,125529,104,19444,426,0,34559,0.00100800000000012
1347001,7872,2105,129554,-3411,3493,125950,102,19449,418,0,34560,0.0009939999999999394
1347999,6324,6127,127202,950,-798,127686,103,19449,422,0,34561,0.0009980000000000544
1348999,7172,1974,127436,459,-1987,126363,105,19442,422,1,34562,0.0009999999999998899
1349999,9218,-6789,128461,-76,-5420,130297,106,19453,430,1,34563,0.001000000000000112
1350999,8687,47,128318,1016,-3806,129128,106,19449,434,1,34564,0.0009999999999998899
1351999,10412,7700,130058,480,5916,124036,106,19450,434,1,34565,0.001000000000000112
1353001,5629,4510,127624,-2902,1774,126953,97,19448,397,1,34566,0.0010019999999999474
1354001,1867,-376,126981,-3675,-4760,128884,116,19440,475,0,34567,0.001000000000000112
1354999,6273,4015,127512,-3485,2165,124845,90,19440,475,0,34568,0.0009979999999998324
1355999,8191,3256,127858,-2210,126,126852,106,19449,369,0,34569,0.001000000000000112
1356999,4727,2713,128191,-621,-165,127451,106,19448,434,0,34570,0.0009999999999998899
1357999,9696,-501,127215,-3953,-4188,128200,108,19450,442,0,34571,0.001000000000000112
1359001,5064,853,128100,-826,-714,126811,130,19436,532,1,34572,0.0010019999999999474
1359999,2975,4270,128122,-2671,419,125591,85,19455,348,1,34573,0.0009980000000000544
1360999,7670,3975,127674,-3490,2609,125218,102,19455,348,1,34574,0.0009999999999998899
1361999,4358,4624,128359,-5948,-1172,128081,99,19453,418,1,34575,0.001000000000000112
1363001,4155,1090,127244,774,-869,126516,99,19449,405,1,34576,0.0010019999999999474
1363999,3981,1869,127279,-4073,-3555,127924,115,19440,471,0,34577,0.0009980000000000544
1364999,8914,3177,127206,-1768,10999,120022,92,19451,377,0,34578,0.0009999999999998899
1365999,3906,10648,127272,-7430,-2927,132300,109,19450,446,0,34579,0.001000000000000112
1366999,11553,-604,126619,-9590,5465,119693,105,19450,446,0,34580,0.0009999999999998899
1367999,6402,5430,130038,9658,-7511,133240,118,19450,430,0,34581,0.001000000000000112
1368999,1434,-7108,127245,-6535,-8155,130916,118,19440,483,1,34582,0.0009999999999998899
1369999,-385,-1351,126491,-15555,1131,123394,164,19452,672,1,34583,0.001000000000000112
1370999,5664,7857,128688,3160,11694,125540,104,19448,426,1,34584,0.0009999999999998899
1371999,6457,15566,126841,-3252,10249,119772,105,19447,430,1,34585,0.001000000000000112
1372999,7738,8320,126774,-4352,-2852,127813,114,19447,430,1,34586,0.0009999999999998899
1373999,5045,-7463,126219,800,-10718,131011,149,19445,467,0,34587,0.001000000000000112
1374999,4565,-3314,126474,-5279,-829,125242,149,19443,610,0,34588,0.0009999999999998899
1375999,5183,6499,131476,-4201,5754,127281,109,19444,446,0,34589,0.001000000000000112
1377000,5371,4748,128674,583,-146,127014,106,19447,434,0,34590,0.0010010000000000296
1377999,2583,1432,125938,-8373,-2965,128636,112,19448,459,0,34591,0.0009989999999999721
1378999,5632,3611,127679,-5212,5272,122070,148,19448,606,1,34592,0.0009999999999998899
1380002,4761,5617,127560,5163,652,127318,110,19448,606,1,34593,0.0010030000000000872
1381001,9038,2974,127764,-3249,523,127473,110,19446,451,1,34594,0.0009989999999999721
1381999,5477,3958,129144,-7880,-227,127250,110,19445,451,1,34595,0.0009980000000000544
1382999,4915,-460,126733,4768,-1798,129141,105,19446,430,1,34596,0.0009999999999998899
1384000,3908,3616,127892,-3157,-404,125841,131,19429,537,0,34597,0.0010010000000000296
1384999,4036,620,127293,-12011,315,125245,133,19429,545,0,34598,0.0009989999999999721
1385999,8058,6097,128642,-1141,2270,126944,112,19438,545,0,34599,0.001000000000000112
1386999,10600,2719,128656,4096,-477,128403,112,19445,459,0,34600,0.0009999999999998899
1387999,6201,1174,127285,-4490,-3871,126642,112,19445,459,0,34601,0.001000000000000112
1388999,651,-759,126472,-3324,-2435,127836,135,19434,553,1,34602,0.0009999999999998899
1390001,4826,2267,127467,-4950,105,126796,150,19449,614,1,34603,0.0010020000000001694
1391001,10141,6646,127961,-2512,3680,125768,103,19449,422,1,34604,0.0009999999999998899
1391999,8262,6145,128623,1082,3739,124885,100,19447,422,1,34605,0.0009980000000000544
1392999,10759,-1171,126557,2947,-5797,127936,113,19448,410,1,34606,0.0009999999999998899
1393999,3527,-3134,127459,-3255,-6245,130004,113,19444,463,0,34607,0.001000000000000112
