t_us,ax,ay,az,ax1,ay1,az1,shunt_raw,bus_raw,curr_raw,pg_rpm,seq,dt
0,-2330,23780,127791,735,9275,122458,306,19190,1253,1,1,
994,-1899,3260,125780,-7674,71,129649,330,19209,1352,1,2,0.0009939999999999999
1995,2843,2445,131643,-6534,-8265,137241,280,19177,1147,1,3,0.001001
2995,4254,-11739,132522,4126,-9619,137846,408,19177,1147,0,4,0.001
3994,-5049,2781,134706,-6552,7029,127456,336,19183,1671,1,5,0.0009990000000000003
4994,-7180,5439,132034,-18621,-5633,139660,200,19182,1376,1,6,0.001
5996,8214,3301,130300,6844,5686,129371,200,19209,819,0,7,0.0010019999999999994
6994,4154,8156,131153,3668,1788,129957,285,19187,1167,0,8,0.0009979999999999998
7994,5937,-1803,130602,633,-10762,132812,364,19173,1491,0,9,0.001
8994,5368,-9780,131199,11555,-10993,132040,387,19173,1585,1,10,0.0010000000000000009
9994,-556,-9550,130375,-6324,-14303,140393,270,19204,1585,0,11,0.0009999999999999992
10996,9596,255,126151,-12322,11589,117379,283,19181,1106,0,12,0.0010019999999999994
11995,2380,27889,132135,22048,14139,121045,283,19184,1159,1,13,0.0009989999999999999
12994,1541,-9268,122337,932,-18484,131316,335,19212,1372,1,14,0.0009989999999999999
13994,568,-7025,125557,-14002,-8009,121166,277,19179,1135,1,15,0.0010000000000000009
14994,7945,-6281,127018,14793,-6096,129353,422,19179,1728,0,16,0.0009999999999999992
15994,-75,7728,124579,4961,13292,108290,345,19186,1728,1,17,0.0009999999999999992
16994,-4524,14105,125611,-19922,1973,125124,200,19175,1413,1,18,0.0010000000000000009
17994,6489,1060,121068,4972,917,122399,200,19203,819,0,19,0.0010000000000000009
18994,474,10807,121078,3495,9047,112379,287,19183,1175,0,20,0.0010000000000000009
19994,805,5817,126357,-6956,546,122547,355,19173,1454,0,21,0.0009999999999999974
20994,-72,-3997,125803,-7254,-8658,127369,415,19201,1700,1,22,0.0010000000000000009
21994,-1024,-5497,126504,-3816,-2642,131224,279,19201,1700,0,23,0.0010000000000000009
22994,-2620,18071,129333,-6881,16758,119490,279,19177,1143,0,24,0.0010000000000000009
23994,-4986,14509,125246,-18511,7154,124288,279,19189,1143,1,25,0.0009999999999999974
24994,-84,7440,129477,1168,3057,129972,330,19207,1352,1,26,0.0010000000000000009
25994,-197,-2444,129565,5675,-9523,135568,289,19185,1184,1,27,0.0010000000000000009
26994,3441,-7074,130750,-15982,-6418,133423,450,19183,1843,0,28,0.0009999999999999974
27994,-3483,3709,136044,397,2601,131149,335,19183,1843,1,29,0.0010000000000000009
28998,-254,8292,132440,-5363,2813,134354,186,19183,1372,1,30,0.0010040000000000014
29996,5995,4551,130770,-7007,-711,134217,186,19207,762,0,31,0.0009979999999999989
30994,174,-592,132097,5174,-4448,131797,270,19186,1106,0,32,0.0009979999999999989
31994,3144,-5100,128522,1551,-7644,131158,359,19178,1470,0,33,0.0010000000000000044
32994,5759,-5959,131502,-2518,-9357,135383,440,19205,1802,1,34,0.000999999999999994
33995,4493,-4916,129910,19920,-4429,131554,264,19205,1802,0,35,0.0010010000000000019
34995,4054,9471,125480,-16419,5378,121510,277,19182,1081,0,36,0.0010000000000000009
35994,8791,12802,129469,-3726,10145,125509,277,19185,1135,1,37,0.0009989999999999999
36994,-405,-5591,126581,32862,-13865,133940,332,19214,1360,1,38,0.0010000000000000009
37994,2239,-18513,119842,-15303,-17751,117654,281,19179,1151,1,39,0.0010000000000000009
38994,-2016,9620,131699,-13447,7421,126972,426,19181,1745,0,40,0.0010000000000000009
39994,7683,-1676,122644,18151,8112,114591,344,19181,1745,1,41,0.000999999999999994
40994,-3920,18451,123087,618,10172,116208,195,19180,1409,1,42,0.0010000000000000009
41994,4914,7831,122159,-17337,-413,122180,195,19203,799,0,43,0.0010000000000000009
42994,2807,5749,121555,7850,5579,115041,278,19185,1139,0,44,0.0010000000000000009
43994,-1973,256,126029,1665,-7706,129070,363,19175,1487,1,45,0.0010000000000000009
44997,-680,-1694,128245,-8427,-1368,124680,459,19211,1880,1,46,0.001002999999999997
45994,-5662,344,127317,-10767,53,129422,262,19211,1880,0,47,0.0009970000000000048
46994,1584,11498,128091,-7422,16477,120171,274,19183,1073,0,48,0.0010000000000000009
47994,-2440,20598,128110,3711,6133,124296,274,19182,1122,1,49,0.000999999999999994
48994,-1092,2131,126883,-8403,841,129187,325,19210,1331,1,50,0.0010000000000000009
49994,-18,985,131594,-9497,-9477,138206,280,19186,1147,1,51,0.0010000000000000009
50994,3740,-9933,131839,8194,-7752,136562,437,19187,1790,0,52,0.0010000000000000009
51996,-4206,5531,134801,-9398,8398,126640,339,19187,1388,1,53,0.0010020000000000029
52994,-6803,5285,131595,-20259,-6324,140128,219,19176,1388,1,54,0.0009979999999999989
53994,8977,3456,129297,13096,4698,129046,271,19204,897,0,55,0.0010000000000000009
54994,5852,7019,131703,934,1350,130139,271,19185,1110,0,56,0.000999999999999994
55994,4857,-4971,130424,-528,-13076,134178,350,19173,1433,1,57,0.0010000000000000009
56994,5305,-9717,130640,13569,-10764,131938,433,19208,1773,1,58,0.0010000000000000009
57994,2013,-8232,129651,-5157,-11744,138890,268,19208,1098,0,59,0.0010000000000000009
58994,6947,3963,126397,-14974,14990,115040,287,19180,1098,0,60,0.0010000000000000009
59994,2329,27951,131618,22876,11303,122360,321,19185,1175,1,61,0.0010000000000000009
60994,2863,-13003,121894,5145,-18411,130360,321,19208,1315,1,62,0.0010000000000000009
61994,185,-6036,125726,-15069,-8101,121657,274,19188,1122,0,63,0.0010000000000000009
62994,6632,-8701,126222,15324,-8462,130507,431,19190,1765,0,64,0.000999999999999994
63994,1687,11245,125163,3339,16744,105421,347,19190,1421,1,65,0.0010000000000000009
64994,-4753,14970,125493,-20829,1657,127196,227,19171,1421,1,66,0.0010000000000000009
65994,5237,1233,120583,6578,1770,120248,264,19206,930,0,67,0.0010000000000000009
66994,1044,10581,122268,2853,7703,113669,264,19183,1081,0,68,0.0010000000000000009
67994,-784,2228,125622,-6400,-2001,124119,349,19175,1429,1,69,0.0010000000000000009
68995,-319,-1673,126435,-7872,-5301,124954,461,19215,1888,1,70,0.0010010000000000019
69994,966,-3804,127048,-4358,-1903,132783,263,19177,1077,0,71,0.0009989999999999999
70994,-2047,16743,128483,-7405,14985,119460,291,19177,1077,0,72,0.0010000000000000009
71994,-6128,14994,125892,-14979,9353,122786,315,19182,1192,1,73,0.0010000000000000009
72994,1337,6840,129804,-2039,2323,131075,315,19205,1290,1,74,0.0010000000000000009
73994,545,-4412,129905,6272,-10630,136167,267,19186,1094,0,75,0.000999999999999987
74996,2473,-6029,131436,-11792,-6268,134284,415,19188,1700,0,76,0.0010020000000000029
75995,-1193,3014,134854,-4521,2063,130746,339,19176,1388,1,77,0.0009989999999999999
76996,-1287,8112,132465,-4490,2587,135087,205,19176,1388,1,78,0.0010010000000000019
77994,5638,3126,130384,-3597,-259,133787,263,19206,840,0,79,0.0009979999999999989
78996,911,1924,131846,24,-1634,129857,263,19185,1077,0,80,0.0010020000000000029
79994,1403,-4332,130110,4140,-7392,132491,352,19169,1442,1,81,0.0009979999999999989
80994,7086,-10240,129821,1547,-14354,137228,450,19209,1843,1,82,0.0010000000000000009
81994,2679,-2734,129903,13925,-2157,123875,266,19183,1089,0,83,0.0010000000000000009
82994,8248,10321,126578,-21485,5545,120373,309,19183,1089,0,84,0.0010000000000000009
83996,5363,14210,129936,8950,11873,125995,321,19193,1266,1,85,0.0010020000000000029
84994,1967,-10475,124941,25815,-17831,133632,321,19197,1315,1,86,0.0009979999999999989
85994,258,-15795,120947,-19265,4077,116721,283,19187,1159,0,87,0.0010000000000000009
86996,-1126,8969,131324,-6185,-3606,128266,414,19189,1696,0,88,0.001001999999999989
87994,7605,-1870,121849,18652,10715,113096,342,19182,1401,1,89,0.0009980000000000128
88996,-6057,20307,124183,-5564,9582,117609,226,19182,1401,1,90,0.001001999999999989
89994,6622,5702,122518,-16961,28,120805,260,19208,926,0,91,0.0009979999999999989
90994,1023,6532,121945,12258,3460,116211,260,19183,1065,0,92,0.0010000000000000009
91994,157,-2666,126108,-12360,-7663,129237,355,19175,1454,1,93,0.0010000000000000009
92994,-5201,-168,128032,-7106,26,124172,453,19204,1855,1,94,0.0010000000000000009
93995,-1768,430,126662,-10339,-265,130917,262,19187,1073,0,95,0.0010010000000000019
94994,522,12649,128296,-6207,17349,118639,311,19187,1274,0,96,0.0009989999999999999
95994,-4715,18536,127135,1873,4604,124501,315,19189,1274,1,97,0.0010000000000000009
96996,2302,3788,126934,-7647,3733,127673,281,19199,1290,1,98,0.0010020000000000029
97994,113,19,132575,-8253,-12818,140435,281,19180,1151,0,99,0.0009979999999999989
98996,3898,-11648,131345,6858,-6991,135751,408,19179,1671,0,100,0.0010020000000000029
99994,-5562,8260,135052,-9760,6307,128962,338,19179,1384,1,101,0.0009979999999999989
100994,-5394,1020,131260,-19378,-6181,139197,240,19179,983,1,102,0.0010000000000000009
101994,7867,5625,130344,15946,5786,127349,256,19206,983,0,103,0.0010000000000000009
102994,5501,7120,131699,1254,1176,129831,347,19190,1049,0,104,0.0010000000000000009
103994,5416,-6041,130316,-3337,-13461,133291,347,19179,1421,1,105,0.000999999999999987
104994,2518,-10230,130141,16957,-13051,135116,436,19201,1786,1,106,0.0010000000000000009
105995,5172,-7348,128227,-7197,-8002,134989,252,19188,1032,0,107,0.0010010000000000019
106994,5705,10583,128286,-15493,17026,113739,293,19188,1200,0,108,0.0009989999999999999
107994,1554,21688,130935,28725,5279,126117,317,19187,1200,1,109,0.0010000000000000009
108995,3592,-16546,120634,2959,-20040,129181,268,19200,1298,1,110,0.0010010000000000019
109994,-50,-6870,126715,-18234,-7158,122281,268,19182,1098,0,111,0.0009989999999999999
110994,5988,-3747,126545,18455,-5219,128779,403,19185,1651,0,112,0.0010000000000000009
111996,564,12705,124211,445,17231,106395,343,19173,1405,1,113,0.0010020000000000029
112994,-3990,14799,125728,-21030,2315,127422,257,19207,1053,1,114,0.0009979999999999989
113994,2986,480,120384,9802,714,119311,253,19207,1053,0,115,0.0010000000000000009
114994,1653,10007,122346,3366,8782,112497,345,19181,1036,0,116,0.0010000000000000009
115994,627,1495,126725,-8453,-3773,125686,345,19174,1413,1,117,0.0010000000000000009
116994,-2438,-3531,125950,-7482,-6490,126074,434,19200,1778,1,118,0.0010000000000000009
117994,3426,24,127559,-2349,1464,131273,259,19195,1061,0,119,0.000999999999999987
118994,-4153,17389,128429,-11283,14544,119915,305,19190,1249,0,120,0.0010000000000000009
119994,-6367,14146,126733,-14861,9547,122219,312,19190,1249,1,121,0.0010000000000000009
120994,2836,6195,129917,4027,2003,132080,263,19200,1278,1,122,0.0010000000000000009
121994,1673,-8070,129726,4902,-13889,137385,263,19182,1077,0,123,0.0010000000000000009
122994,705,-6369,131399,-14004,-5826,133224,393,19177,1610,0,124,0.0010000000000000009
123994,-1709,7516,134664,-4556,5654,130132,339,19181,1388,1,125,0.0010000000000000009
124994,401,8971,132274,-4679,2238,136198,253,19206,1036,1,126,0.0010000000000000009
125994,1382,2460,131214,-1773,213,132212,256,19206,1036,0,127,0.0010000000000000009
126994,2887,812,130923,-1850,-3706,130793,338,19185,1049,0,128,0.0010000000000000009
127994,4029,-7283,129967,7247,-10016,133157,338,19176,1384,1,129,0.0010000000000000009
128994,6977,-11116,129765,5465,-14119,134722,428,19201,1753,1,130,0.0010000000000000009
129994,2847,-24,128801,5320,-306,124303,261,19190,1069,0,131,0.0010000000000000009
130995,7793,12302,127111,-22617,7545,118633,316,19187,1294,0,132,0.0010010000000000019
131994,1082,15719,131374,18245,13460,127442,305,19187,1294,1,133,0.0009989999999999999
132994,1409,-15083,121943,16068,-21157,131082,251,19200,1249,1,134,0.0010000000000000009
133994,918,-11168,123544,-18604,3114,118234,251,19189,1028,0,135,0.0010000000000000009
134996,2265,4354,130004,2478,-5421,128195,380,19174,1556,0,136,0.0010020000000000029
135994,7106,1352,121404,16677,11247,112737,347,19176,1421,1,137,0.0009979999999999989
136995,-6857,19441,125332,-11150,8355,119941,295,19212,1208,1,138,0.0010010000000000019
137994,4568,5935,122106,2616,3689,118576,246,19212,1208,0,139,0.0009989999999999999
138994,-116,9075,122618,10924,2837,117519,331,19183,1008,0,140,0.0010000000000000009
139996,2735,-3883,125994,-10174,-8312,128178,422,19175,1356,1,141,0.0010019999999999751
140997,-6898,-2944,126780,-8908,-4174,126565,422,19203,1728,1,142,0.0010010000000000019
141997,1647,187,126491,-7750,4235,128490,263,19188,1077,0,143,0.0010000000000000009
142994,36,19009,129673,-3083,19473,117986,324,19188,1327,0,144,0.0009969999999999979
143995,-5495,14870,127400,-3743,2373,126792,308,19188,1261,1,145,0.0010010000000000019
144994,-40,3429,127655,-8580,1949,128968,247,19195,1261,1,146,0.0009989999999999999
145994,4400,-3685,132391,-2606,-13788,140928,373,19196,1012,0,147,0.0010000000000000009
146994,3016,-9809,131810,8751,-4020,132388,373,19175,1528,0,148,0.0010000000000000009
147994,-5854,8788,134182,-16642,2409,132419,341,19178,1397,1,149,0.0010000000000000009
148994,-3587,-1082,130553,-12030,-3813,138434,278,19205,1139,1,150,0.0010000000000000009
149994,3594,10149,131595,13866,8411,126562,248,19205,1016,0,151,0.0010000000000000009
150994,5628,7218,130738,-3216,900,130028,336,19188,1016,0,152,0.0010000000000000009
151996,7986,-7298,129899,5681,-13575,132112,421,19176,1376,1,153,0.0010020000000000029
152994,533,-11595,129945,13912,-15467,137133,421,19189,1724,1,154,0.0009979999999999989
153994,8044,-13711,125786,-12865,-12887,135661,274,19189,1122,0,155,0.0010000000000000009
154994,3824,17962,131816,295,24752,111427,323,19183,1323,0,156,0.0010000000000000009
155995,-1394,16263,128798,20202,-2587,128794,316,19183,1294,1,157,0.0010010000000000019
156994,694,-12133,119859,-7265,-10000,123416,256,19195,1294,1,158,0.0009989999999999999
157994,3907,-5657,127336,-6122,-11571,128207,373,19183,1049,0,159,0.0010000000000000009
158994,6635,-6919,123628,21215,-2425,121965,373,19180,1528,0,160,0.0010000000000000009
159994,-825,17722,125988,-6402,15026,109066,347,19181,1421,1,161,0.0010000000000000009
160994,-296,4271,124322,-15620,-5078,131896,292,19209,1196,1,162,0.0010000000000000009
161996,-216,5710,121236,13059,7438,114576,248,19186,1016,0,163,0.0010020000000000029
162994,-1993,13055,124413,-5259,9699,116030,336,19186,1016,0,164,0.0009979999999999989
163994,492,3094,126885,-7212,-2182,122769,414,19174,1376,1,165,0.0010000000000000009
164994,-2812,-8026,125427,-2853,-11843,129888,414,19195,1696,1,166,0.0010000000000000009
165994,4337,1295,128141,-3537,4980,127476,260,19193,1065,0,167,0.0010000000000000009
166994,-5612,19369,128465,-16907,13428,118927,317,19185,1298,0,168,0.0010000000000000009
167994,-3943,11409,127900,-6979,8030,125134,313,19198,1282,1,169,0.0010000000000000009
168994,-2857,6296,129212,7523,2328,131738,260,19198,1282,1,170,0.0010000000000000009
169994,2266,-7410,129092,-12205,-10737,136279,367,19192,1065,0,171,0.0009999999999999731
170994,1927,-551,133787,-4912,-1282,131166,367,19175,1503,0,172,0.0010000000000000009
171994,1541,4070,133647,2416,171,133616,341,19181,1397,1,173,0.0010000000000000009
172994,1477,1840,131032,-9367,-4466,137448,287,19210,1175,1,174,0.0010000000000000009
173996,-1405,2225,132353,1461,117,131617,239,19190,979,0,175,0.0010020000000000029
174996,4635,2940,128703,-1520,436,130508,323,19190,979,0,176,0.0010000000000000009
175994,1225,309,130953,3631,-3449,132414,403,19173,1323,1,177,0.0009979999999999989
176994,7714,-10694,130144,359,-14433,135892,403,19194,1651,1,178,0.0010000000000000009
177994,2501,-4018,127679,16532,-4314,124978,252,19193,1032,0,179,0.0010000000000000009
178994,6331,6548,127068,-19904,505,123759,312,19189,1278,0,180,0.0010000000000000009
179994,5038,11056,130348,6811,7309,122036,311,19194,1274,1,181,0.0010000000000000009
180994,20,-3867,124417,26442,-17864,129834,257,19194,1274,1,182,0.0010000000000000009
181994,2373,-9553,123702,-19174,-520,120117,366,19181,1053,0,183,0.0010000000000000009
182994,-2432,311,129056,-5647,-8534,128723,366,19177,1499,0,184,0.0010000000000000009
183994,8215,-604,120950,16991,9687,113966,340,19186,1393,1,185,0.0010000000000000009
184994,-5537,20735,124821,-15302,11928,115534,311,19210,1274,1,186,0.0010000000000000009
185994,4503,7026,123603,-2554,26,121582,250,19183,1024,0,187,0.0010000000000000009
186996,-560,4215,120850,9612,1609,118480,328,19183,1343,0,188,0.0010020000000000029
187994,907,570,125800,-9200,-589,124299,407,19179,1343,1,189,0.0009979999999999989
188994,-4625,2744,128494,-7803,-2565,126047,253,19179,1667,1,190,0.0010000000000000009
189994,-738,-3020,125859,-6802,-4116,132062,253,19190,1036,0,191,0.0010000000000000009
190996,1870,14045,128884,-4310,16291,119452,311,19189,1274,0,192,0.0010020000000000029
191994,-5103,15405,128889,-1355,4333,125042,302,19194,1237,1,193,0.0009979999999999989
192994,-612,4031,127439,-7624,1822,128890,235,19194,962,1,194,0.0010000000000000009
193994,2740,-1828,132025,-8494,-9296,138295,347,19189,962,0,195,0.0010000000000000009
194994,2011,-6248,132607,6071,-2072,133728,336,19173,1421,0,196,0.0010000000000000009
195997,-4324,7969,133731,-5848,454,133019,336,19182,1376,1,197,0.0010030000000000039
196994,-4265,-1823,130801,-15416,-6348,137458,284,19209,1163,1,198,0.0009969999999999979
197994,7081,4760,132179,10849,3532,130034,241,19189,987,0,199,0.0010000000000000009
198994,2559,6496,131613,5322,1949,129655,326,19189,1335,0,200,0.0010000000000000009
199994,6943,-4764,129237,-5477,-10427,131155,402,19173,1335,1,201,0.0009999999999999731
200995,-1621,-8542,130698,16569,-10638,135299,252,19187,1646,1,202,0.0010010000000000019
201994,5850,-9098,125843,-7457,-12144,135015,252,19197,1032,0,203,0.0009989999999999999
202995,7096,13533,129676,-2873,18667,113398,303,19190,1241,0,204,0.0010010000000000019
203994,-388,14408,130149,26964,-2776,129449,315,19191,1290,1,205,0.0009989999999999999
204994,2172,-16962,118531,-8683,-13547,125001,234,19190,958,1,206,0.0010000000000000009
205996,2429,-846,127650,-10118,-3125,123235,348,19190,958,0,207,0.0010020000000000029
206994,7152,-3269,124498,22883,-2228,124703,342,19170,1425,0,208,0.0009979999999999989
207994,-2571,14743,123997,-5629,12997,109055,342,19178,1401,1,209,0.0010000000000000009
208994,-2529,5883,124888,-16477,-2879,129985,299,19206,1225,1,210,0.0010000000000000009
209994,3307,4120,121631,13810,3440,117447,240,19190,983,0,211,0.0010000000000000009
210994,-3245,9972,124716,-487,7756,115365,322,19171,1319,0,212,0.0010000000000000009
211994,-685,3423,128130,-12663,-505,124131,404,19171,1319,1,213,0.0010000000000000009
212994,-4345,-5735,125192,-5139,-10535,129289,261,19184,1655,1,214,0.0010000000000000009
213995,-288,5405,129276,-275,8311,125414,261,19194,1069,0,215,0.0010010000000000019
214994,-5093,20046,128880,-19681,12197,120332,314,19186,1286,0,216,0.0009989999999999999
215994,-3136,5719,126603,89,1876,127652,313,19188,1282,1,217,0.0010000000000000009
216994,-1088,5171,130602,4786,3435,130044,257,19187,1053,1,218,0.0010000000000000009
217995,3565,-7209,128964,-15607,-10152,136880,355,19187,1053,0,219,0.0010010000000000019
218994,2938,4034,134924,941,1956,129751,341,19175,1454,0,220,0.0009989999999999999
219994,-90,1157,133571,1044,-3192,135590,341,19180,1397,1,221,0.0010000000000000009
220994,-1682,-454,129443,-9330,-5384,136032,313,19210,1282,1,222,0.0010000000000000009
221994,2564,5361,132735,476,904,132809,237,19193,971,0,223,0.0010000000000000009
222995,2835,-952,129036,1813,-1010,127602,314,19172,1286,0,224,0.0010010000000000019
223996,1733,4386,131381,2531,1065,133032,394,19172,1286,1,225,0.0010010000000000019
224994,8883,-12372,128986,3669,-16903,136127,265,19183,1614,1,226,0.0009979999999999989
225994,-244,-1623,128193,14259,-2299,123310,265,19189,1085,0,227,0.0010000000000000009
226994,9969,5243,125956,-26214,5392,123601,322,19185,1319,0,228,0.0010000000000000009
227994,566,16155,132004,23367,3495,123843,311,19189,1274,1,229,0.0010000000000000009
228994,3059,-14006,122348,16628,-21861,129673,249,19192,1020,1,230,0.0010000000000000009
229995,-4055,-6643,125163,-25766,1793,121325,357,19192,1020,0,231,0.0010009999999999741
230994,2529,1379,127483,17813,-3014,124435,344,19172,1462,0,232,0.0009989999999999999
231994,4099,8494,121681,5266,15463,109947,344,19184,1409,1,233,0.0010000000000000009
232994,-6135,17706,125027,-16318,1457,124093,335,19209,1372,1,234,0.0010000000000000009
233994,10114,-29,121265,6175,918,118223,234,19191,958,0,235,0.0010000000000000009
234995,-5803,7846,123523,3866,4171,118353,307,19175,1257,0,236,0.0010010000000000019
235995,2070,824,127371,-12230,-3178,126815,394,19175,1614,1,237,0.0010000000000000009
236994,-10146,33,127908,-6488,-4617,128242,249,19180,1614,1,238,0.0009989999999999999
237994,2198,-1630,126764,-8539,2614,128684,320,19195,1020,0,239,0.0010000000000000009
238994,-780,22702,129472,-382,18729,116789,320,19190,1311,0,240,0.0010000000000000009
239994,-2379,9076,126364,-3581,-2571,128449,305,19193,1249,1,241,0.0010000000000000009
240995,1274,95,128969,-10954,1154,129735,226,19193,926,1,242,0.0010010000000000019
241994,548,-1350,132126,-5825,-8739,139796,336,19193,1376,0,243,0.0009989999999999999
242994,2545,-3130,132320,7174,2302,129849,335,19175,1376,0,244,0.0010000000000000009
243994,-9024,8549,134755,-15086,-1892,135338,316,19183,1372,1,245,0.0010000000000000009
244994,-593,-3706,129433,-8090,-5772,137514,316,19205,1294,1,246,0.0010000000000000009
245994,6965,8674,131688,13936,5301,127084,245,19190,1003,0,247,0.0010000000000000009
246994,5318,190,131759,-5249,-5413,133127,313,19177,1282,0,248,0.0010000000000000009
247994,6767,-5146,128992,6847,-6698,128784,399,19177,1634,1,249,0.0010000000000000009
248994,-4783,-6040,129814,9377,-11239,137012,253,19183,1634,1,250,0.0010000000000000009
249994,9692,-9403,126178,-15581,-6853,130999,314,19191,1036,0,251,0.0010000000000000009
250994,3050,22166,131365,11534,19935,114358,314,19190,1286,0,252,0.0010000000000000009
251994,3903,4358,126218,20146,-8870,129788,307,19181,1257,1,253,0.0010000000000000009
252994,-408,-14274,122502,-15423,-12238,123693,217,19192,889,1,254,0.0010000000000000009
253996,4645,-5423,127274,-1494,-7072,128278,331,19172,1356,0,255,0.0010020000000000029
254994,5478,3377,124158,22720,6018,117003,342,19172,1356,0,256,0.0009979999999999989
255994,-4436,17295,125705,-14764,11666,112859,345,19181,1401,1,257,0.0010000000000000009
256997,-1307,3487,122976,-7564,-4489,129893,345,19210,1413,1,258,0.0010029999999999761
257994,2561,2737,119648,13245,1106,116493,248,19184,1016,0,259,0.0009970000000000256
258996,-237,10540,126804,-4129,9378,115436,308,19173,1261,0,260,0.0010020000000000029
259996,-2301,3545,127429,-10472,-2221,124746,391,19178,1601,1,261,0.0010000000000000009
260994,-4419,-8278,124457,-3918,-10114,130522,266,19178,1601,1,262,0.0009979999999999989
261994,-894,11857,130920,-1937,12061,124241,330,19193,1089,0,263,0.0010000000000000009
262996,-7589,16594,127013,-16955,9385,120899,330,19192,1352,0,264,0.0010020000000000029
263994,-559,9160,127626,-2141,4484,125708,310,19186,1270,1,265,0.0009979999999999989
264994,1938,-1055,131411,5531,-3735,135409,240,19187,983,1,266,0.0010000000000000009
265994,2561,-6292,129623,-11999,-7073,133573,343,19171,1405,0,267,0.0010000000000000009
266997,-1100,4687,134236,-2131,1458,130689,336,19171,1405,0,268,0.0010029999999999761
267994,-459,3038,134101,-3385,-200,135237,343,19183,1376,1,269,0.0009970000000000256
268994,-1280,4654,130531,-5949,-863,134995,343,19211,1405,1,270,0.0010000000000000009
269994,2104,2071,130764,4791,-3699,132156,226,19190,926,0,271,0.0010000000000000009
270994,5593,-1514,130784,833,-1860,128501,292,19172,1196,0,272,0.0010000000000000009
271994,331,-1217,131545,-244,-3958,136046,378,19182,1548,1,273,0.0010000000000000009
272994,8423,-9131,128988,7982,-13270,132458,247,19182,1548,1,274,0.0010000000000000009
273994,515,3226,129452,11509,2964,123147,330,19198,1012,0,275,0.0010000000000000009
274994,5761,6209,126037,-24259,4815,123675,330,19191,1352,0,276,0.0009999999999999454
275994,1532,11206,129271,20931,-3058,127208,306,19189,1253,1,277,0.0010000000000000009
276994,5153,-15650,123310,17606,-16092,126677,222,19191,909,1,278,0.0010000000000000009
277994,-2073,-592,126484,-13701,3686,119353,331,19169,1356,0,279,0.0010000000000000009
278994,1427,153,125924,14949,-5626,126406,334,19169,1368,0,280,0.0010000000000000009
279994,5315,7049,122431,3409,14609,110594,373,19179,1368,1,281,0.0010000000000000009
280994,-6855,17950,124315,-14275,5103,121873,230,19208,1528,1,282,0.0010000000000000009
281994,7568,3071,121032,2922,382,118671,230,19190,942,0,283,0.0010000000000000009
282994,-2132,3019,124385,2722,-795,120761,292,19176,1196,0,284,0.0010000000000000009
283996,-624,-259,127605,-9927,-1562,126944,383,19169,1569,1,285,0.0010020000000000029
284994,-8734,2640,127231,-7207,-1799,126262,255,19169,1044,1,286,0.0009979999999999989
285994,1067,3046,127631,-8831,5537,127641,338,19199,1044,0,287,0.0010000000000000009
286996,-1765,19683,128201,-1808,13406,120674,304,19191,1384,0,288,0.0010020000000000029
287994,-1866,9248,125673,-1434,2118,125206,304,19183,1245,1,289,0.0009979999999999989
288994,4284,1033,131371,-13038,-3322,133381,206,19193,844,1,290,0.0010000000000000009
289994,279,-8229,131614,-3261,-11611,139850,327,19166,1339,0,291,0.0010000000000000009
290994,-1107,293,133022,3694,5115,129303,332,19166,1360,0,292,0.0010000000000000009
291994,-5512,7794,134840,-13724,-935,136227,341,19182,1360,1,293,0.0010000000000000009
292994,-1491,1221,129571,-5853,-1798,134097,225,19209,1397,1,294,0.0010000000000000009
293994,8844,7076,129766,9360,2009,128672,225,19190,922,0,295,0.0010000000000000009
294994,6565,-1147,132386,2621,-4958,132405,293,19178,1200,0,296,0.0010000000000000009
295996,5461,-8119,129789,2633,-11444,131913,389,19173,1593,1,297,0.0010020000000000029
296996,-5676,-7470,129556,7841,-8424,135841,249,19196,1020,1,298,0.0010000000000000009
297994,9353,-2836,127239,-12687,-1633,128061,321,19196,1020,0,299,0.0009979999999999989
298994,2486,22585,131040,8286,18274,115857,307,19189,1315,0,300,0.0010000000000000009
299994,2285,446,124597,18520,-12310,130586,307,19183,1257,1,301,0.0010000000000000009
300994,3361,-16618,122843,-12211,-14830,124382,201,19193,823,1,302,0.0010000000000000009
301995,4093,-2735,127500,-1489,-3395,125470,323,19172,1323,0,303,0.0010010000000000296
302994,4064,5218,124486,19451,6773,117439,338,19184,1384,0,304,0.0009989999999999721
303994,-4606,14787,124635,-14598,9813,115185,366,19184,1384,1,305,0.0010000000000000009
304994,812,5743,122630,-7002,-1427,127223,231,19213,1499,1,306,0.0010000000000000009
305995,1612,5737,119836,13379,2981,115111,231,19191,946,0,307,0.0010009999999999741
306994,2312,5597,126831,-5793,2838,118525,290,19174,1188,0,308,0.0009990000000000276
307994,-1981,-526,127868,-8588,-4415,126441,390,19168,1597,1,309,0.0010000000000000009
308994,-6683,-5350,125478,-3349,-6476,129690,261,19194,1069,1,310,0.0010000000000000009
309994,-684,14888,130616,-6067,13216,123865,336,19194,1069,0,311,0.0010000000000000009
310994,-7999,17663,127154,-13616,10557,121677,308,19189,1376,0,312,0.0010000000000000009
311994,-2506,7995,126556,-2257,3869,125610,308,19185,1261,1,313,0.0010000000000000009
312994,4284,569,131864,327,-4238,134365,223,19192,913,1,314,0.0010000000000000009
313994,3546,-8916,131069,-8128,-9695,135822,336,19173,1376,0,315,0.0010000000000000009
314994,-2611,2833,134110,-1074,1093,130685,338,19181,1384,0,316,0.0010000000000000009
315995,-1454,3373,133147,-5615,-997,135856,377,19181,1384,1,317,0.0010009999999999741
316995,112,6798,130252,-3011,2014,130067,225,19215,1544,1,318,0.0010000000000000009
317994,3556,6374,129775,-655,1149,132944,225,19193,922,0,319,0.0009990000000000276
318994,7516,-2906,131269,5086,-5204,130078,279,19176,1143,0,320,0.0010000000000000009
319994,2120,-6918,131538,3128,-13103,135713,372,19171,1524,1,321,0.0010000000000000009
320994,3533,-10045,128610,6063,-7315,133600,235,19197,962,1,322,0.0010000000000000009
321994,1563,5175,128174,7467,4815,121290,335,19197,962,0,323,0.0010000000000000009
322994,6648,13533,126654,-22044,14922,118620,306,19184,1372,0,324,0.0010000000000000009
323994,-757,12292,128149,24621,-9462,130158,306,19181,1253,1,325,0.0010000000000000009
324996,7820,-20773,121378,-12936,-19646,126589,199,19189,815,1,326,0.0010020000000000029
325996,-2341,-6828,127172,-10849,-3241,124515,321,19167,1315,0,327,0.0010000000000000009
326994,2804,-50,125708,17157,4584,119985,330,19184,1352,0,328,0.0009979999999999989
327996,1083,19175,123963,-3784,17083,110656,384,19184,1573,1,329,0.0010020000000000029
328997,-2982,13295,122834,-16299,2855,124021,227,19216,1573,1,330,0.0010009999999999741
329995,4182,4569,120179,8528,2136,116735,288,19192,930,0,331,0.0009979999999999989
330994,-395,2513,124842,783,-2633,121832,288,19176,1180,0,332,0.0009990000000000276
331994,888,-711,129301,-9553,-1931,125941,383,19164,1569,1,333,0.0010000000000000009
332994,-10440,-2797,127965,-6748,-8348,133101,235,19203,962,1,334,0.0010000000000000009
333994,2732,4012,127305,-10556,12102,122949,332,19203,1360,0,335,0.0009999999999999454
334994,-5160,26173,129688,-4090,16623,120409,302,19194,1360,1,336,0.0010000000000000009
335997,-2560,6448,124553,-1311,-525,127318,198,19181,1237,1,337,0.0010030000000000316
336994,4246,2824,131058,-11517,-2200,131060,198,19195,811,1,338,0.0009969999999999701
337994,3176,-10021,132805,-5434,-12915,142152,315,19163,1290,0,339,0.0010000000000000009
338994,-1690,-521,133373,8208,2879,129237,324,19181,1327,0,340,0.0010000000000000009
339996,-6777,6599,133636,-17312,-1586,136432,374,19181,1532,1,341,0.0010020000000000029
340994,2823,1251,129792,-8335,1016,134704,228,19215,1532,1,342,0.0009979999999999989
341994,4242,10860,130147,10319,5072,126675,287,19190,934,0,343,0.0010000000000000009
342994,8328,-2271,131461,-628,-7284,133026,287,19173,1175,0,344,0.0010000000000000009
343994,6893,-9868,131026,7575,-12954,132448,370,19165,1515,1,345,0.0010000000000000009
344994,-4380,-10300,129770,6590,-11553,137721,249,19193,1020,1,346,0.0010000000000000009
345994,9056,-1386,126435,-19433,1263,125169,343,19190,1405,0,347,0.0010000000000000009
346994,2447,25698,131967,14003,20547,116707,307,19190,1405,1,348,0.0010000000000000009
347994,1605,657,123276,17294,-10258,129034,212,19185,1257,1,349,0.0010000000000000009
348994,1809,-14129,122729,-19972,-14134,122598,212,19195,868,1,350,0.0010000000000000009
349994,6971,-6465,128079,5722,-7838,128663,317,19158,1298,0,351,0.0010000000000000009
350996,2478,2755,123685,21408,5242,116215,319,19187,1307,0,352,0.0010020000000000029
351994,-5367,17674,125557,-20725,12448,114918,379,19209,1552,1,353,0.0009979999999999989
352997,3129,6023,122600,-5752,-1010,128314,222,19209,1552,1,354,0.0010030000000000316
353996,310,7468,118659,15578,6095,112731,290,19194,909,0,355,0.0009989999999999721
354994,2170,7017,126826,-8276,3049,118411,290,19172,1188,0,356,0.0009979999999999989
355994,-84,-3422,127181,-7770,-7429,127080,375,19168,1536,1,357,0.0010000000000000009
356994,-3689,-8406,125626,2267,-9297,131603,247,19197,1012,1,358,0.0010000000000000009
357994,-3026,16218,130060,-10511,14609,123117,339,19185,1388,0,359,0.0010000000000000009
358994,-5683,21281,127657,-18796,14063,119718,305,19185,1388,1,360,0.0010000000000000009
359994,-3606,7364,126923,7409,3532,128014,202,19186,1249,1,361,0.0010000000000000009
360994,2484,-3875,129764,-4387,-9052,135108,202,19196,827,1,362,0.0010000000000000009
361995,5163,-8007,131986,-13797,-8475,134232,316,19165,1294,0,363,0.0010010000000000296
362994,-3513,3293,135280,7123,1907,133107,318,19181,1302,0,364,0.0009989999999999721
363994,-678,3662,132026,-7257,-1198,136472,368,19210,1507,1,365,0.0010000000000000009
364994,998,7580,131466,-7197,2802,131757,222,19210,1507,0,366,0.0010000000000000009
365999,2453,3792,129162,2661,-712,130037,285,19193,909,0,367,0.0010049999999999781
366995,6585,1322,130866,5134,-4405,129129,285,19176,1167,0,368,0.0009959999999999969
368003,5746,-8598,133006,-1438,-19841,140433,374,19158,1532,1,369,0.0010080000000000089
368994,4984,-17321,128367,13168,-6771,131410,225,19196,922,1,370,0.0009910000000000196
369994,-472,8478,127982,6279,4943,122805,319,19192,1307,0,371,0.0010000000000000009
370996,7324,13488,126940,-2584,16824,116964,307,19192,1257,1,372,0.0010020000000000029
371994,-2880,14639,128445,29777,-7390,129892,232,19179,1257,1,373,0.0009979999999999989
372994,8651,-19072,120204,-12406,-16990,125662,304,19198,950,1,374,0.0010000000000000009
373994,-1280,-2700,128730,-9248,-3864,123129,304,19159,1245,0,375,0.0010000000000000009
374994,5140,-7523,124961,17328,-4601,124791,315,19179,1290,0,376,0.0010000000000000009
375994,-557,15247,123471,-2761,17425,110419,376,19201,1540,1,377,0.0010000000000000009
376996,-1331,17199,123870,-20758,8540,122285,245,19201,1003,0,378,0.0010020000000000029
377995,2136,9275,121037,6936,6334,115301,292,19194,1003,0,379,0.0009989999999999721
378996,-1672,2969,124617,2640,-5647,123610,374,19177,1196,0,380,0.0010010000000000296
380000,2865,-5500,128311,-8395,-4942,126127,374,19162,1532,1,381,0.0010040000000000049
380994,-7305,-3633,128059,-7171,-8657,132079,231,19200,946,1,382,0.0009939999999999949
381994,2720,3753,127164,-10219,11274,123931,319,19186,1307,0,383,0.0010000000000000009
382995,-3482,27594,130037,-4767,20154,119483,310,19186,1270,1,384,0.0010009999999999741
383994,-4311,7059,125418,-3267,460,129108,221,19186,1270,1,385,0.0009990000000000276
384994,1433,4112,129917,-9968,-2540,130610,300,19200,905,1,386,0.0010000000000000009
385994,5391,-10433,132184,-5079,-13582,140860,300,19170,1229,0,387,0.0010000000000000009
386994,68,-1200,134516,10012,799,130044,319,19178,1307,0,388,0.0010000000000000009
387994,-6949,3929,132664,-17464,-3505,136332,364,19203,1491,1,389,0.0010000000000000009
388994,4778,2269,129842,-10005,1673,135035,237,19197,971,0,390,0.0010000000000000009
389994,2182,10551,130853,9996,6944,127204,291,19197,971,0,391,0.0010000000000000009
390994,6833,2364,130811,-1955,-4292,130638,366,19180,1192,0,392,0.0010000000000000009
391994,6598,-9787,130819,11718,-12062,131380,366,19165,1499,1,393,0.0010000000000000009
392994,1522,-11225,130673,683,-16540,139659,221,19199,905,1,394,0.0009999999999999454
393994,10336,-5829,126130,-13994,-1811,126048,314,19185,1286,0,395,0.0010000000000000009
394994,-157,28324,132972,17354,22407,116379,306,19185,1253,1,396,0.0010000000000000009
395994,-713,-3079,122311,5211,-12011,129895,236,19185,1253,1,397,0.0010000000000000009
396994,-3204,-4815,124684,-19132,-5912,119512,303,19200,967,1,398,0.0010000000000000009
397994,10911,-7381,126364,11060,-9950,131084,303,19166,1241,0,399,0.0010000000000000009
398994,1581,4441,124202,21552,6859,111633,334,19182,1368,0,400,0.0010000000000000009
399994,-2951,12953,126052,-24585,5690,118987,370,19198,1515,1,401,0.0010000000000000009
400994,5030,-183,121730,-905,-3530,129905,228,19196,934,0,402,0.0010000000000000009
401994,-2054,12773,121242,11289,11621,111093,294,19196,934,0,403,0.0010000000000000009
402994,-1527,9680,126396,-15384,5987,118809,364,19175,1204,0,404,0.0010000000000000009
403994,-1159,-3058,125728,-5144,-7236,126792,364,19165,1491,1,405,0.0010000000000000009
404994,1960,-8189,125668,2806,-8857,131194,268,19199,1098,1,406,0.0010000000000000009
405994,-1588,16643,129233,-5840,14222,121638,302,19184,1237,0,407,0.0010000000000000009
406996,-1680,15361,126558,-19913,9194,122497,304,19182,1245,1,408,0.0010020000000000029
407994,-3578,8198,129252,3288,5574,128056,244,19182,1245,1,409,0.0009979999999999989
408994,-3250,-3910,129381,-886,-8654,136678,295,19197,999,1,410,0.0010000000000000009
409994,5179,-3703,131964,-19130,-5434,129898,295,19168,1208,0,411,0.0010000000000000009
410995,-3832,3873,135998,7734,2265,133368,344,19185,1409,1,412,0.0010010000000000296
411994,2907,2655,131104,-5017,-2304,136430,355,19205,1454,1,413,0.0009989999999999721
412994,3330,4741,131167,-7187,-451,131762,233,19195,954,0,414,0.0010000000000000009
413996,2509,1872,131056,3702,-2075,131263,284,19195,1163,0,415,0.0010020000000000029
414994,909,-90,128871,1646,-3009,129122,369,19177,1163,0,416,0.0009979999999999989
415994,3844,-3065,132998,-4236,-13588,137927,256,19170,1511,1,417,0.0010000000000000009
416994,9186,-13437,128609,14118,-5033,129731,256,19202,1049,1,418,0.0010000000000000009
417994,147,7995,127151,-17982,2666,122455,304,19186,1245,0,419,0.0010000000000000009
418994,10987,7544,127509,3742,8058,121890,312,19186,1278,1,420,0.0010000000000000009
420003,-2896,5185,128192,26425,-7909,129116,259,19186,1061,1,421,0.0010089999999999821
420994,4995,-14249,120119,-15857,-10244,124046,294,19197,1061,1,422,0.0009910000000000196
421994,-3922,3673,128539,-6540,1154,121157,330,19170,1204,0,423,0.0010000000000000009
422994,5600,-2709,124159,13698,-2192,122543,330,19183,1352,0,424,0.0010000000000000009
423994,-179,12442,122718,-1846,11210,113762,363,19204,1487,1,425,0.0010000000000000009
424994,2185,11718,123312,-13463,4362,121393,230,19196,942,0,426,0.0010000000000000009
425994,4446,6849,122183,5453,6543,116460,293,19173,1200,0,427,0.0010000000000000009
426996,-5677,3546,124835,-463,-2966,124623,372,19173,1200,0,428,0.0010020000000000029
427994,671,-1180,128422,-9921,-1566,125684,293,19166,1524,1,429,0.0009979999999999989
428994,-6770,-833,127868,-9202,-4892,130307,293,19195,1200,0,430,0.0010000000000000009
429994,1727,4438,126833,-9728,7104,124648,307,19187,1257,0,431,0.0010000000000000009
430994,-1093,21369,129107,-97,15211,120297,311,19189,1274,1,432,0.0010000000000000009
431994,-717,5883,126947,-5187,917,129331,260,19192,1065,1,433,0.0010000000000000009
432994,-309,2770,130300,-7756,-3355,132597,311,19192,1065,1,434,0.0010000000000000009
433994,914,-7275,132162,-5592,-9055,138689,351,19171,1274,0,435,0.0010000000000000009
434997,682,1038,134538,2687,1216,131182,351,19183,1438,1,436,0.0010029999999999761
435995,-7138,3343,132301,-11412,-3678,135877,351,19198,1438,1,437,0.0009979999999999989
436994,9442,1169,129093,-7828,-509,133914,222,19195,909,0,438,0.0009990000000000276
437994,5371,5846,131565,10499,3210,129394,282,19176,1155,0,439,0.0010000000000000009
438994,3923,887,130245,1217,-5069,130579,363,19176,1155,0,440,0.0010000000000000009
439994,5434,-6995,129594,4597,-8500,130913,291,19165,1487,1,441,0.0010000000000000009
440994,343,-5809,130868,1290,-11147,138040,291,19202,1192,0,442,0.0010000000000000009
441998,11177,-3212,125864,-13632,-1591,125610,288,19185,1180,0,443,0.0010040000000000049
442996,196,23183,132074,20093,17831,117479,307,19185,1257,1,444,0.0009979999999999989
443994,2429,-10284,122932,4740,-18078,132713,258,19201,1057,1,445,0.0009979999999999989
444994,-2357,-4865,124748,-17461,-4655,117893,298,19201,1057,1,446,0.0010000000000000009
445994,6888,-893,127240,10675,-3969,129972,356,19171,1221,0,447,0.0010000000000000009
446994,1877,6373,123541,13098,7876,112402,356,19183,1458,1,448,0.0010000000000000009
447994,-5480,15335,126123,-20556,8297,117427,354,19200,1450,1,449,0.0010000000000000009
448994,7939,-2582,120835,-598,-5629,130185,223,19201,913,0,450,0.0010000000000000009
449994,626,8634,122024,12781,7687,111059,288,19178,1180,0,451,0.0010000000000000009
450994,-1136,7166,126775,-12573,3435,121598,371,19178,1180,0,452,0.0010000000000000009
451994,-1604,-3040,125232,-9354,-6004,126497,307,19168,1520,1,453,0.0010000000000000009
452994,1174,-744,126834,3187,-2302,129240,307,19200,1257,0,454,0.0009999999999999454
453994,-1601,17506,129013,-10424,14486,122121,288,19183,1180,0,455,0.0010000000000000009
454994,-3156,10903,125796,-15729,6484,123585,298,19187,1221,1,456,0.0010000000000000009
455994,904,4307,129709,5104,1287,132577,259,19195,1061,1,457,0.0010000000000000009
456994,-2173,-4413,129270,-3715,-7482,135435,297,19195,1061,1,458,0.0010000000000000009
457994,2522,-1395,132057,-15210,-4221,131550,369,19170,1216,0,459,0.0010000000000000009
458994,-1314,5277,135118,4037,2376,133017,369,19182,1511,1,460,0.0010000000000000009
459994,-1361,3998,131040,-5337,-395,134569,345,19197,1413,1,461,0.0010000000000000009
460994,4516,4801,131158,-8113,-2287,133276,231,19197,946,0,462,0.0010000000000000009
461995,4647,-536,131252,4493,-2424,130331,287,19181,1175,0,463,0.0010010000000000296
462994,2538,-2621,129720,4470,-7092,131793,362,19181,1483,0,464,0.0009989999999999721
463994,4350,-7951,130755,-5502,-13436,136936,291,19168,1483,1,465,0.0010000000000000009
464994,6554,-5452,128413,18269,2214,126218,295,19205,1192,0,466,0.0010000000000000009
465994,1458,6861,125973,-25952,1284,123567,295,19182,1208,0,467,0.0010000000000000009
466994,9026,13541,128634,13414,14196,118350,305,19188,1249,1,468,0.0010000000000000009
467995,1875,756,127576,26972,-17429,133632,257,19202,1053,1,469,0.0010010000000000296
468994,4016,-18894,119664,-21088,-9930,121637,292,19202,1196,0,470,0.0009989999999999721
469997,-3910,2773,130140,-1946,-4254,126233,380,19177,1196,0,471,0.0010030000000000316
470994,7134,-2218,122661,14140,5286,117750,353,19177,1556,1,472,0.0009969999999999701
471994,-3795,22559,124039,-8716,17042,111522,353,19193,1446,1,473,0.0010000000000000009
472994,3323,8207,122701,-11366,-397,124827,218,19204,893,0,474,0.0010000000000000009
473994,4037,4618,121635,10302,5704,114475,283,19182,1159,0,475,0.0010000000000000009
474994,-3589,922,125396,-1595,-6191,126908,364,19182,1491,1,476,0.0010000000000000009
475995,-667,-1759,128259,-11027,-2490,125605,311,19171,1491,1,477,0.0010010000000000296
476994,-3891,-735,126906,-9038,-2758,130111,290,19200,1274,0,478,0.0009989999999999721
477994,672,11685,128222,-9811,14159,122361,290,19183,1188,0,479,0.0010000000000000009
478994,-4312,21265,128420,832,12144,120926,300,19187,1229,1,480,0.0010000000000000009
479994,132,1245,126548,-6383,-1082,130881,259,19199,1061,1,481,0.0010000000000000009
480994,2226,65,131283,-8584,-6665,134588,287,19172,1175,0,482,0.0010000000000000009
481994,2069,-7690,132268,2868,-8573,137510,393,19172,1175,0,483,0.0010000000000000009
482994,-1589,5022,134383,-2929,4403,129627,350,19187,1610,1,484,0.0010000000000000009
483994,-7590,1268,131605,-17855,-5769,138133,350,19190,1433,1,485,0.0010000000000000009
484994,6780,5064,130595,1193,4818,130868,224,19198,917,0,486,0.0010000000000000009
485994,5137,5913,131339,5877,1669,129769,278,19178,1139,0,487,0.0010000000000000009
486994,4945,-2842,130949,595,-8076,131633,368,19170,1507,1,488,0.0010000000000000009
487994,2859,-9043,129958,11247,-11613,132582,347,19170,1507,1,489,0.0010000000000000009
488994,3364,-7628,128759,-6213,-11366,137405,299,19199,1421,0,490,0.0010000000000000009
489994,8559,4133,128312,-13376,5458,121889,299,19181,1225,0,491,0.0010000000000000009
490994,-1294,22220,131293,24308,16348,118611,310,19189,1270,1,492,0.0010000000000000009
491994,3941,-11907,121324,-171,-17633,130900,290,19204,1188,1,493,0.0010000000000000009
492994,-921,-5389,126731,-15236,-7024,121149,298,19177,1221,0,494,0.0010000000000000009
493994,6492,-4476,125758,14680,-6239,129476,378,19177,1221,0,495,0.0010000000000000009
494994,590,11670,124212,7426,11744,109497,351,19181,1548,1,496,0.0010000000000000009
495994,-4086,11974,126077,-22042,4556,121896,351,19192,1438,1,497,0.0010000000000000009
496994,4595,-1296,120677,4865,-2526,125823,220,19199,901,0,498,0.0010000000000000009
497996,-309,11284,122681,7395,9622,111794,280,19180,1147,0,499,0.0010020000000000029
498994,100,6133,127480,-11722,3261,121270,365,19175,1495,1,500,0.0009979999999999989
499994,-2252,-4608,125002,-6246,-7724,127451,349,19175,1495,1,501,0.0010000000000000009
500994,3430,-2353,126306,1455,-4686,131645,287,19200,1429,0,502,0.0009999999999999454
501997,-4366,19230,129555,-14895,15975,117903,287,19185,1175,0,503,0.0010030000000000872
502995,-2362,11305,127046,-15151,8879,128463,305,19185,1249,1,504,0.0009979999999999434
503994,-364,4025,128845,12057,283,133161,268,19199,1098,1,505,0.0009989999999999721
504994,-52,-6666,129163,-10988,-9156,135067,299,19172,1225,0,506,0.0010000000000000009
505994,1453,340,133227,-14971,-2040,131394,385,19172,1225,0,507,0.0010000000000000009
506994,1047,6214,134095,10314,-876,134379,344,19188,1577,1,508,0.0010000000000000009
507994,-206,616,130764,-9778,-2111,134481,344,19193,1409,1,509,0.0010000000000000009
508994,1062,3580,132194,-7824,-2053,133173,215,19206,881,0,510,0.0010000000000000009
509994,6250,-524,129536,5310,-2443,130320,280,19180,1147,0,511,0.0010000000000000009
510994,1272,204,130983,5036,-2416,129508,357,19173,1462,1,512,0.0010000000000000009
511994,5921,-7187,131259,802,-16295,139696,320,19173,1311,1,513,0.0010000000000000009
512996,3816,-5817,127565,21418,1755,125377,273,19205,1311,0,514,0.0010020000000000584
513994,3880,6586,126658,-27521,-1027,124212,298,19185,1118,0,515,0.0009979999999999434
514994,6975,11001,129467,15970,13069,118515,298,19184,1221,1,516,0.0010000000000000009
515994,1248,1137,126661,26292,-16280,131531,282,19203,1155,1,517,0.0010000000000000009
516994,4600,-16505,121793,-24775,-8666,122331,297,19173,1216,0,518,0.0010000000000000009
517994,-6552,2922,130201,-594,-5089,126600,387,19173,1585,0,519,0.0010000000000000009
518994,7953,-221,121610,15970,6658,117181,348,19185,1585,1,520,0.0010000000000000009
519996,-5154,23288,124494,-11087,16020,111125,227,19186,1425,1,521,0.0010020000000000584
520994,3961,5313,123320,-6911,-2639,125567,227,19201,930,0,522,0.0009979999999999434
521994,2250,2699,120969,11843,2695,115455,296,19179,1212,0,523,0.0010000000000000009
522996,-302,-262,125113,-6504,-3721,125438,363,19169,1487,1,524,0.0010020000000000584
523997,-2703,3618,128894,-7886,757,124475,361,19205,1479,1,525,0.0010009999999999186
524994,-2365,-1133,125651,-9656,-4204,130951,277,19205,1479,0,526,0.0009970000000000256
525994,1963,12510,128348,-10822,14918,121703,297,19183,1135,0,527,0.0010000000000000009
526994,-5551,18055,129253,3404,8141,123003,297,19184,1216,1,528,0.0010000000000000009
527994,1957,-100,125891,-3669,-508,129388,287,19204,1175,1,529,0.0010000000000000009
528994,1782,16,132672,-11683,-6967,136236,281,19181,1151,0,530,0.0010000000000000009
529994,2250,-8631,132021,2262,-8067,137804,377,19184,1544,0,531,0.0010000000000000009
530994,-2594,10535,133737,878,8362,127410,338,19184,1544,1,532,0.0010000000000000009
531994,-7079,1576,131644,-22343,-6428,139062,219,19192,1384,1,533,0.0010000000000000009
532997,6551,4569,131853,5329,3745,130385,219,19203,897,0,534,0.0010029999999999761
533995,3582,4729,131251,9690,901,130951,281,19185,1151,0,535,0.0009980000000000544
534994,9042,-7753,129736,-2031,-12816,133500,368,19169,1507,1,536,0.0009989999999999721
535994,-2178,-5538,131133,11620,-7293,130468,345,19199,1413,1,537,0.0010000000000000009
536994,8179,-8754,126170,-8057,-12392,138566,276,19199,1413,0,538,0.0010000000000000009
537994,5852,13942,130181,-6830,14515,116557,300,19182,1130,0,539,0.0010000000000000009
538994,127,14070,129781,23099,5628,124794,300,19186,1229,1,540,0.0010000000000000009
539994,1411,-14920,119554,-1153,-15963,128913,304,19211,1245,1,541,0.0010000000000000009
540994,3955,-5544,127599,-13204,-8132,122523,279,19179,1143,0,542,0.0010000000000000009
541994,7401,-1857,125341,18565,-2673,127191,371,19181,1520,0,543,0.0010000000000000009
542994,-2837,15892,124394,2112,14168,107432,345,19181,1520,1,544,0.0010000000000000009
543994,-1076,7585,124760,-24632,484,126766,216,19187,1413,1,545,0.0010000000000000009
544994,280,2157,121924,11886,671,121525,216,19200,885,0,546,0.0010000000000000009
545994,-1281,9355,123485,1595,7799,113414,286,19186,1171,0,547,0.0010000000000000009
546994,-93,4056,128194,-10122,759,123024,363,19168,1487,1,548,0.0010000000000000009
547994,-4448,-9028,124511,-5101,-11329,129211,364,19202,1491,1,549,0.0010000000000000009
548994,1144,7127,128175,-5884,5189,123531,284,19202,1491,0,550,0.0010000000000000009
549994,-3873,19764,128732,-14134,14350,121418,301,19180,1163,0,551,0.0010000000000000009
550994,-4682,8839,126999,-4194,6911,125423,301,19183,1233,1,552,0.0010000000000000009
551994,-509,3195,128830,-952,499,135915,293,19205,1200,1,553,0.0010000000000000009
552994,5677,-6989,130545,-7392,-9778,133292,292,19173,1196,0,554,0.0010000000000000009
553994,1172,395,134037,-2182,-2226,133036,381,19177,1560,0,555,0.0010000000000000009
554994,-2140,1035,132618,-1629,-1899,136108,337,19177,1380,1,556,0.0010000000000000009
555995,-2255,4728,130597,-10311,1675,132304,204,19181,1380,1,557,0.0010010000000000296
556995,2552,4967,131826,-3830,1370,131016,284,19203,836,0,558,0.0010000000000000009
557996,5377,4153,129801,5404,-60,128664,284,19179,1163,0,559,0.0010009999999999186
558995,2265,-3941,130931,-1057,-10920,133134,361,19176,1479,1,560,0.0009990000000000832
559996,7412,-14371,129725,11169,-16171,138168,380,19205,1556,1,561,0.0010009999999999186
560994,326,-2327,128483,4565,-1654,128212,272,19205,1114,0,562,0.0009980000000000544
561994,8422,8652,126229,-22155,10302,117202,294,19180,1114,0,563,0.0010000000000000009
562994,1692,21400,132060,28456,10043,122657,310,19187,1204,1,564,0.0010000000000000009
563994,2650,-13661,122195,7402,-23602,132608,310,19202,1270,1,565,0.0010000000000000009
564994,956,-12153,124548,-20430,-6552,121697,296,19180,1212,0,566,0.0010000000000000009
565996,-70,-2767,128303,10866,-4950,127812,399,19181,1634,0,567,0.0010019999999999474
566994,4493,10799,122738,9815,15120,110662,346,19181,1417,1,568,0.0009980000000000544
567994,-6094,18388,124742,-15613,7034,120257,208,19181,1417,1,569,0.0010000000000000009
568994,6340,3311,122460,502,604,120908,298,19203,852,0,570,0.0010000000000000009
569994,-3019,6897,121911,9469,4366,115018,298,19186,1221,0,571,0.0010000000000000009
570994,3468,-882,126793,-9885,-3485,126024,363,19175,1487,1,572,0.0010000000000000009
571994,-5819,-1859,128089,-7024,-6976,128821,394,19208,1614,1,573,0.0010000000000000009
572995,-223,-2261,126192,-7833,692,129220,266,19182,1089,0,574,0.0010009999999999186
573996,-308,23035,129320,-9265,20321,117618,288,19182,1089,0,575,0.0010010000000000296
574996,-4908,11580,127009,1798,2677,126370,316,19187,1180,1,576,0.0010000000000000009
575995,1344,2756,127870,-4338,2585,127651,316,19207,1294,1,577,0.0009989999999999721
576996,3243,-3568,132135,-10496,-10103,138894,283,19181,1159,0,578,0.0010010000000000296
577994,3248,-5502,133397,5177,-5512,135182,398,19181,1630,0,579,0.0009980000000000544
578994,-6908,6159,134254,-4992,2399,131146,340,19184,1393,1,580,0.0010000000000000009
579994,-3909,-363,130062,-16876,-5889,139363,204,19184,1393,1,581,0.0010000000000000009
580994,4705,8408,132019,8365,5136,128074,290,19206,836,0,582,0.0010000000000000009
581994,4061,3270,130390,1966,884,129691,290,19185,1188,0,583,0.0010000000000000009
582994,9230,-4715,129885,4193,-9648,131575,355,19173,1454,1,584,0.0010000000000000009
583994,-1474,-9765,130044,12495,-12817,134039,373,19202,1528,1,585,0.0010000000000000009
584994,5670,-8311,126780,-10131,-10303,136047,272,19178,1114,0,586,0.0010000000000000009
585994,4486,15805,129910,-6513,14620,116690,291,19178,1114,0,587,0.0010000000000000009
586995,-107,14069,129393,26879,6240,124452,332,19185,1192,1,588,0.0010009999999999186
587994,1601,-16991,119539,-6605,-17669,128386,332,19205,1360,1,589,0.0009990000000000832
588994,4660,-5036,126996,-10971,-7501,123279,276,19180,1130,0,590,0.0010000000000000009
589995,7121,-2539,124700,22434,-4065,126235,412,19189,1687,0,591,0.0010009999999999186
590994,-3893,18282,125103,-4203,16402,107033,347,19176,1421,1,592,0.0009990000000000832
591994,-3273,6522,124184,-21932,-721,128761,196,19176,1421,1,593,0.0010000000000000009
592994,2277,3698,121083,11728,2018,119616,289,19205,803,0,594,0.0010000000000000009
593994,-3365,12478,124940,1333,11516,111837,289,19191,1184,0,595,0.0010000000000000009
594995,1551,-1560,126923,-10432,-4961,125748,361,19180,1479,1,596,0.0010009999999999186
595994,-4293,-7976,125685,-3296,-10445,129608,439,19206,1798,1,597,0.0009990000000000832
596994,354,7783,129411,-5259,5676,124261,268,19174,1098,0,598,0.0010000000000000009
597994,-4072,22837,128710,-17236,16866,119407,278,19174,1139,0,599,0.0010000000000000009
598994,-4028,8971,127570,-894,6794,129326,333,19185,1139,1,600,0.0010000000000000009
599994,-764,-707,129070,418,-6248,134155,333,19207,1364,1,601,0.0010000000000000009
600994,5574,-6258,130306,-11804,-5290,133643,277,19182,1135,0,602,0.0010000000000000009
601994,2649,616,134812,2931,-611,132652,418,19185,1712,0,603,0.0009999999999998899
602994,-3782,1164,132327,-1263,-3166,136102,367,19180,1503,1,604,0.0010000000000000009
603996,-3230,5286,130449,-15831,3256,133408,198,19180,811,1,605,0.0010020000000000584
604994,4663,7779,132046,5311,2627,129892,281,19201,811,0,606,0.0009979999999999434
605994,5103,2086,130034,3165,-2612,129559,362,19185,1151,0,607,0.0010000000000000009
606996,978,-4721,131296,-3002,-12482,134171,362,19170,1483,1,608,0.0010020000000000584
607995,9239,-17903,129170,14447,-18720,139015,407,19209,1667,1,609,0.0009989999999999721
608994,-155,-409,129170,5914,3009,126105,269,19177,1102,0,610,0.0009989999999999721
609994,5969,12147,125775,-24362,10718,117043,284,19177,1163,0,611,0.0010000000000000009
610994,2657,22580,131219,26419,12296,120593,337,19185,1163,1,612,0.0010000000000000009
611999,3178,-14360,123183,9012,-24401,133808,277,19206,1380,1,613,0.0010050000000000336
612995,1344,-13544,124537,-18340,-8290,121702,277,19185,1135,0,614,0.0009959999999999969
613995,1100,-4516,127754,8900,-7189,127951,431,19186,1765,0,615,0.0010000000000000009
614994,4444,9120,122974,9788,14077,112154,344,19170,1409,1,616,0.0009989999999999721
615995,-7543,20761,124567,-13391,11079,117907,197,19206,807,1,617,0.0010010000000000296
616994,6762,7259,122185,-2699,3384,119812,281,19206,807,0,618,0.0009989999999999721
617995,-4318,7347,122267,9183,3793,115633,355,19186,1151,0,619,0.0010010000000000296
618994,2917,-4030,126315,-7403,-6703,126866,355,19174,1454,1,620,0.0009989999999999721
619994,-5666,-3405,128591,-6119,-7383,129432,430,19201,1761,1,621,0.0010000000000000009
620994,-1356,-2396,126677,-8861,-428,129952,278,19175,1139,0,622,0.0010000000000000009
621994,-2677,25056,129462,-8458,22919,116435,281,19189,1151,0,623,0.0010000000000000009
622994,-3770,13405,126753,-825,3695,126731,331,19189,1151,1,624,0.0010000000000000009
623994,2871,1884,128642,-3213,2094,127447,287,19211,1356,1,625,0.0010000000000000009
624995,2232,-5068,131442,-10090,-11337,138871,287,19181,1175,0,626,0.0010010000000000296
625994,4099,-6654,133309,3341,-6871,135933,450,19184,1843,0,627,0.0009989999999999721
626994,-6652,5704,135259,-2370,1661,132203,340,19174,1393,1,628,0.0010000000000000009
627994,-4774,262,129507,-16822,-4781,138169,188,19208,770,1,629,0.0010000000000000009
628994,5455,11296,131273,7123,7510,127291,271,19208,770,0,630,0.0010000000000000009
629994,4556,2612,131205,4145,706,129724,358,19185,1110,0,631,0.0010000000000000009
630994,9044,-6025,129194,2352,-10149,131342,358,19169,1466,1,632,0.0010000000000000009
631996,-2340,-10522,130299,14260,-14285,135372,445,19207,1823,1,633,0.0010020000000000584
632994,7086,-10351,127189,-9622,-12701,136669,261,19180,1069,0,634,0.0009979999999999434
633994,2687,16599,129886,-5972,14438,116706,277,19189,1135,0,635,0.0010000000000000009
634994,741,15082,128321,26860,7604,123360,333,19189,1135,1,636,0.0010000000000000009
635996,1328,-14001,120310,-6050,-13757,126400,272,19206,1364,1,637,0.0010020000000000584
636994,4351,-4906,127072,-14700,-7665,123821,272,19181,1114,0,638,0.0009979999999999434
637994,8764,-3072,124728,24982,-5012,125837,419,19184,1716,0,639,0.0010000000000000009
638994,-4841,15158,125815,-517,13253,108628,345,19174,1413,1,640,0.0010000000000000009
639994,-2856,5012,123841,-25119,-2068,128582,199,19206,815,1,641,0.0010000000000000009
640994,1356,6037,120708,14795,2804,120587,270,19206,815,0,642,0.0010000000000000009
641995,-2349,11963,125163,352,12132,111513,359,19187,1106,0,643,0.0010010000000000296
642996,-1135,3694,128079,-13478,740,127102,359,19172,1470,1,644,0.0010010000000000296
643994,-3799,-9875,125357,-1679,-13371,133065,469,19205,1921,1,645,0.0009979999999999434
644994,1601,3961,129117,-1736,1524,122420,280,19178,1147,0,646,0.0010000000000000009
645994,-8898,23143,128848,-17860,16931,121014,284,19191,1163,0,647,0.0010000000000000009
646994,-578,11601,127495,-7502,4215,127847,325,19191,1331,1,648,0.0010000000000000009
647994,-593,278,130609,9163,-8000,135612,276,19209,1331,1,649,0.0010000000000000009
648994,2540,-8539,129517,-12236,-7938,135024,423,19185,1130,0,650,0.0010000000000000009
649994,2475,1675,133995,-5530,2166,129689,423,19184,1732,0,651,0.0010000000000000009
650994,-1191,4581,134443,5515,-1437,136125,339,19175,1388,1,652,0.0010000000000000009
651994,-956,2946,129744,-9676,-1130,135200,230,19206,942,1,653,0.0010000000000000009
652994,1617,6756,131722,4613,2639,129351,269,19206,1102,0,654,0.0010000000000000009
653994,5426,-270,130258,2200,-5722,131670,352,19186,1102,0,655,0.0010000000000000009
654996,-732,-4649,130445,-1317,-8788,131557,455,19174,1442,1,656,0.0010020000000000584
655994,9489,-11058,129650,13376,-14085,136897,455,19206,1864,1,657,0.0009979999999999434
656994,1876,-202,128884,4187,334,126145,260,19185,1065,0,658,0.0010000000000000009
657994,5365,10492,126043,-18259,8105,119644,290,19189,1188,0,659,0.0010000000000000009
658995,2515,16620,130371,25421,6329,123974,314,19189,1286,1,660,0.0010010000000000296
659994,3301,-14612,122702,4672,-19782,129322,271,19207,1286,1,661,0.0009989999999999721
660994,-704,-5414,125764,-19512,-3829,122468,421,19190,1110,0,662,0.0010000000000000009
661994,2751,-4693,126088,11813,-6862,126323,421,19189,1724,0,663,0.0010000000000000009
662994,4360,11392,124048,10958,14007,111940,345,19180,1413,1,664,0.0010000000000000009
663997,-6878,15656,123744,-15222,5501,120565,234,19206,958,1,665,0.0010029999999999761
664994,6961,6637,121832,290,4828,117554,260,19186,1065,0,666,0.0009970000000000256
665994,-3749,6239,124334,6650,2288,120005,345,19186,1065,0,667,0.0010000000000000009
666994,152,-2135,126714,-10427,-2899,124099,448,19173,1413,1,668,0.0010000000000000009
667994,-7892,696,128964,-4830,-4807,128127,448,19207,1835,1,669,0.0010000000000000009
668994,1705,-3835,126445,-8074,-3407,132209,260,19187,1065,0,670,0.0010000000000000009
669994,-3116,24019,129474,-5858,21778,114975,298,19185,1221,0,671,0.0010000000000000009
670994,-2742,12179,126202,-563,3482,127661,320,19201,1311,1,672,0.0010000000000000009
671994,3112,2698,129857,-7459,2120,128194,264,19201,1311,1,673,0.0010000000000000009
672996,1342,-6100,132168,-7620,-10527,139179,402,19185,1081,0,674,0.0010019999999999474
673996,2480,-3946,132685,4861,-5002,135576,402,19187,1646,0,675,0.0010000000000000009
674994,-5788,4002,134427,-5208,-147,131978,335,19182,1372,1,676,0.0009980000000000544
675994,-1874,2316,130516,-13673,-2605,137042,216,19209,885,1,677,0.0010000000000000009
676994,6217,7340,129338,8235,2388,129795,260,19185,1065,0,678,0.0010000000000000009
677994,4667,4770,132828,4533,3836,128473,341,19185,1065,0,679,0.0010000000000000009
678994,6615,-7476,129197,-1441,-11016,132587,441,19174,1397,1,680,0.0010000000000000009
679994,-4378,-8638,129676,16715,-11358,134089,441,19208,1806,1,681,0.0010000000000000009
680994,9654,-8789,127210,-12415,-11847,135903,266,19187,1089,0,682,0.0010000000000000009
681994,3877,17107,130764,-980,14779,115659,312,19185,1278,0,683,0.0010000000000000009
682997,754,11927,127290,30444,4078,125136,317,19198,1298,1,684,0.0010029999999999761
683996,1391,-18214,120378,-15525,-17865,127727,263,19198,1298,1,685,0.0009989999999999721
684994,2622,2433,128745,-9339,-45,120517,403,19186,1077,0,686,0.0009980000000000544
685994,6935,-2710,122673,25459,-5217,127712,403,19188,1651,0,687,0.0010000000000000009
686994,-3680,16170,125419,-7601,13944,106601,345,19178,1413,1,688,0.0010000000000000009
687994,-1544,3120,124190,-18155,-3397,131207,270,19210,1106,1,689,0.0010000000000000009
688994,3891,2933,118294,15986,-1114,107600,255,19184,1044,0,690,0.0010000000000000009
689996,-1766,15716,128009,-967,15945,120158,339,19184,1388,0,691,0.0010019999999999474
690994,-2037,-1143,127007,-14330,-3540,129230,434,19172,1388,1,692,0.0009980000000000544
691994,-4832,-7334,124586,-1508,-11137,128968,261,19203,1778,1,693,0.0010000000000000009
692994,-1055,9158,131153,-833,6500,123178,261,19184,1069,0,694,0.0010000000000000009
693994,-5899,20881,127961,-23656,9690,121465,311,19190,1274,0,695,0.0010000000000000009
694995,-2925,7489,126828,3527,1134,130829,312,19204,1278,1,696,0.0010009999999999186
695994,1103,-881,131096,6055,-6063,134409,287,19204,1175,1,697,0.0009990000000000832
696994,1305,-5525,129132,-19342,-3592,132146,408,19180,1175,0,698,0.0010000000000000009
697994,-1282,7539,135560,5589,4078,131562,341,19182,1671,0,699,0.0010000000000000009
698994,1660,-996,133549,-7807,-7497,138242,341,19181,1397,1,700,0.0010000000000000009
699994,-875,1458,129868,-1939,-503,134066,249,19208,1020,1,701,0.0010000000000000009
700994,3658,3938,129944,-50,-1354,131351,252,19188,1032,0,702,0.0010000000000000009
701994,5563,835,130634,2001,120,127767,345,19188,1413,0,703,0.0010000000000000009
702994,994,1776,132573,-2672,-6653,134234,430,19175,1413,1,704,0.0010000000000000009
703994,7039,-14022,127400,17436,-14296,135987,256,19196,1761,1,705,0.0010000000000000009
704994,-666,6213,130069,-880,4659,122265,256,19189,1049,0,706,0.0010000000000000009
705994,8408,2138,124699,-19932,-3186,127249,301,19183,1233,0,707,0.0010000000000000009
706994,336,15022,129933,35248,9583,120448,318,19195,1302,1,708,0.0010000000000000009
707994,7303,-14255,123337,-3392,-21138,131087,252,19190,1032,1,709,0.0010000000000000009
708994,-2593,-1317,126358,-19331,3248,118545,373,19190,1032,0,710,0.0010000000000000009
709994,2089,-2789,126705,14119,-8666,128893,342,19181,1528,0,711,0.0010000000000000009
710994,3321,5968,121768,7824,10823,112434,342,19181,1401,1,712,0.0010000000000000009
711994,-7108,21025,124993,-15345,10048,117744,284,19204,1163,1,713,0.0010000000000000009
712994,6298,2316,120653,-1695,-598,122060,266,19186,1089,0,714,0.0010000000000000009
713994,-2489,6546,124586,7406,3965,116504,349,19175,1429,0,715,0.0010000000000000009
714996,482,-415,128166,-10176,-2442,127103,433,19175,1429,1,716,0.0010019999999999474
715996,-9114,-13,127501,-5151,-3847,126951,263,19192,1773,1,717,0.0010000000000000009
716994,3260,-977,127325,-8241,-1740,130776,263,19190,1077,0,718,0.0009980000000000544
717994,-2346,23064,130209,-3399,19777,118279,308,19186,1261,0,719,0.0010000000000000009
718994,-4308,9407,125560,-2242,1580,125889,312,19196,1278,1,720,0.0010000000000000009
719994,3364,819,130259,-9743,-1456,131404,264,19184,1081,1,721,0.0010000000000000009
720994,767,-5346,132223,-8116,-8912,138502,381,19184,1081,0,722,0.0009999999999998899
721994,707,-436,132434,7960,928,131112,342,19175,1560,0,723,0.0010000000000000009
722994,-5247,7741,134481,-8041,898,133557,342,19183,1401,1,724,0.0010000000000000009
723994,2104,-3239,129644,-13586,-7495,137683,278,19210,1139,1,725,0.0010000000000000009
724994,5608,8310,130874,14395,4025,129326,233,19187,954,0,726,0.0010000000000000009
725996,5444,-851,131829,819,-3999,132989,330,19176,1352,0,727,0.0010020000000000584
726994,4314,-5204,130499,-1439,-6673,128074,416,19176,1352,1,728,0.0009979999999999434
727994,-3392,-4523,130716,12051,-8066,135576,260,19197,1704,1,729,0.0010000000000000009
728994,11185,-8956,125425,-9074,-12003,134684,260,19194,1065,0,730,0.0010000000000000009
729994,1651,23857,132331,4233,19706,112206,318,19186,1302,0,731,0.0010000000000000009
730994,1587,-2143,123169,18957,-8345,130902,313,19196,1282,1,732,0.0010000000000000009
731994,1258,-7770,124182,-7930,-8889,121694,259,19186,1061,1,733,0.0010000000000000009
732994,5235,-4836,127408,-6380,-7194,127803,377,19186,1061,0,734,0.0010000000000000009
733994,1835,3461,123227,19793,2216,120167,345,19173,1544,0,735,0.0010000000000000009
734994,-3193,16283,125941,-9448,12835,110971,345,19176,1413,1,736,0.0010000000000000009
735994,2936,1144,122124,-10246,-4607,124752,293,19209,1200,1,737,0.0010000000000000009
736994,1480,7402,119812,14759,3003,113085,247,19191,1012,0,738,0.0010000000000000009
737994,1462,8485,127389,-3988,7755,121414,334,19178,1368,0,739,0.0010000000000000009
738994,-2485,21,126470,-9550,-1326,126401,421,19178,1724,1,740,0.0010000000000000009
739994,-5814,-4777,125326,-5890,-966,129691,257,19187,1724,1,741,0.0010000000000000009
740994,1564,14898,130631,-2608,15013,120802,313,19189,1053,0,742,0.0010000000000000009
741994,-6723,15197,126821,-12168,5590,124275,313,19185,1282,0,743,0.0010000000000000009
742994,-2859,6802,127457,-6834,1096,130131,308,19200,1261,1,744,0.0010000000000000009
743994,3329,-1239,131323,2992,-7969,135576,247,19187,1012,1,745,0.0010000000000000009
744994,2072,-4440,131583,-9167,-2681,132843,368,19187,1507,0,746,0.0010000000000000009
745994,-4463,2683,133718,-4830,233,132345,340,19175,1507,0,747,0.0010000000000000009
746994,381,5476,133521,-5639,2600,133802,275,19185,1393,1,748,0.0010000000000000009
747994,4562,5356,130930,-1097,-1575,135696,275,19209,1126,1,749,0.0010000000000000009
748996,652,386,129419,410,-2967,129154,242,19185,991,0,750,0.0010020000000000584
749994,5721,-1112,131471,1904,-4923,131620,326,19175,1335,0,751,0.0009979999999999434
750994,3991,-7018,131932,289,-11927,137358,407,19190,1667,1,752,0.0010000000000000009
751994,983,-7649,129264,17647,-4003,129528,269,19190,1667,1,753,0.0010000000000000009
752994,3537,9389,128060,-18611,4510,123391,319,19186,1102,0,754,0.0010000000000000009
753994,8505,9586,127834,1451,7473,122145,319,19185,1307,0,755,0.0010000000000000009
754994,-942,3872,127693,31531,-10351,130370,312,19194,1278,1,756,0.0010000000000000009
755994,6608,-21685,120555,-17886,-18533,126703,263,19189,1077,1,757,0.0010000000000000009
756994,-4764,7670,130547,-7844,7683,118127,375,19173,1536,0,758,0.0010000000000000009
757994,3679,-1470,124037,13957,-4013,126520,345,19173,1536,0,759,0.0010000000000000009
758994,-1242,13600,123273,34,13475,111391,302,19177,1413,1,760,0.0010000000000000009
759994,53,12053,123956,-13970,2910,123878,302,19209,1237,1,761,0.0010000000000000009
760994,4361,4436,119775,7542,3122,115098,239,19187,979,0,762,0.0010000000000000009
761994,517,3205,126321,2708,-1440,122059,320,19179,1311,0,763,0.0010000000000000009
762994,-589,-3003,128453,-10045,-3921,127784,411,19187,1683,1,764,0.0010000000000000009
763994,-10431,1511,127399,-8391,-1358,126333,258,19187,1683,1,765,0.0010000000000000009
764994,2599,7592,128295,-9371,6509,127740,312,19193,1057,0,766,0.0010000000000000009
765994,-4162,20525,128182,-575,13657,119981,312,19187,1278,0,767,0.0010000000000000009
766996,-2272,5559,124951,-4396,1717,125688,299,19195,1225,1,768,0.0010020000000000584
767994,4024,3946,131544,-12841,-1373,131957,248,19186,1016,1,769,0.0009979999999999434
768995,4433,-10873,131836,679,-12779,140593,363,19166,1487,0,770,0.0010010000000000296
769994,-6383,3092,133777,5504,3634,129112,341,19166,1487,0,771,0.0009989999999999721
770994,-6406,3773,132648,-21437,-2740,137087,284,19187,1397,1,772,0.0010000000000000009
771996,6508,3819,130590,-808,-236,134499,284,19211,1163,1,773,0.0010020000000000584
772996,4767,8587,130090,11397,4697,127162,238,19188,975,0,774,0.0010000000000000009
773994,8143,-1799,130980,-4192,-5947,132751,324,19179,1327,0,775,0.0009979999999999434
774994,4926,-10614,131209,7481,-12304,132156,402,19185,1646,1,776,0.0010000000000000009
775994,-2345,-8916,129219,9912,-11139,137178,253,19185,1646,1,777,0.0010000000000000009
776994,7672,2093,126379,-13956,-1989,128252,306,19193,1036,0,778,0.0010000000000000009
777994,4595,26517,132025,4961,22018,113903,306,19183,1253,0,779,0.0010000000000000009
778994,824,-7303,122456,22349,-11449,130716,310,19195,1270,1,780,0.0010000000000000009
779994,1702,-10810,124320,-10630,-13354,123804,235,19189,962,1,781,0.0010000000000000009
780994,7082,-7462,127012,-4578,-9139,128722,353,19174,1446,0,782,0.0010000000000000009
781994,636,8604,124917,20231,7020,116296,345,19174,1413,0,783,0.0010000000000000009
782994,-4100,16229,125267,-12679,12369,126145,313,19181,1413,1,784,0.0010000000000000009
783994,2183,2221,121146,-9389,-3025,120257,253,19205,1282,1,785,0.0010000000000000009
784994,415,9498,120807,11954,5704,114834,253,19186,1036,0,786,0.0010000000000000009
785994,2248,4961,126103,-2802,3395,121624,324,19180,1327,0,787,0.0010000000000000009
786994,469,-1564,127489,-8783,-7279,126514,407,19180,1667,1,788,0.0010000000000000009
787994,-3184,-6243,126567,-3754,-2202,132302,261,19180,1069,1,789,0.0010000000000000009
788994,-2951,15223,129042,-1214,15272,119274,316,19196,1069,0,790,0.0010000000000000009
789994,-6217,17443,126998,-17844,9893,123527,307,19185,1294,1,791,0.0010000000000000009
790994,-2651,9126,128444,-6144,2645,130441,307,19196,1257,1,792,0.0010000000000000009
791995,4121,-1541,129880,1896,-10796,135370,233,19192,954,1,793,0.0010010000000000296
792996,4341,-8013,131601,-10271,-6176,133571,344,19174,1409,0,794,0.0010009999999999186
793994,-3210,1420,134632,-3311,181,132190,339,19174,1388,0,795,0.0009980000000000544
794994,-1102,6328,132384,-5808,2722,134948,316,19184,1388,1,796,0.0010000000000000009
795994,3219,7159,131151,-3492,1526,133849,233,19209,1294,1,797,0.0010000000000000009
797004,779,1313,130073,-2192,-2702,130242,233,19191,954,0,798,0.0010099999999999554
797994,5835,78,130675,6336,-4005,130187,311,19179,1274,0,799,0.0009900000000000464
798994,6335,-9019,132048,505,-15815,138247,391,19184,1601,1,800,0.0010000000000000009
799994,5097,-11667,128968,15799,-7555,130975,252,19198,1032,1,801,0.0010000000000000009
800994,1111,11847,128065,-15500,7295,122585,319,19198,1032,0,802,0.0010000000000000009
801994,8636,9486,126770,-4717,8899,121649,306,19189,1307,1,803,0.0010000000000000009
802994,-3214,7568,128558,30552,-4933,128015,306,19194,1253,1,804,0.0010000000000000009
803994,6949,-19832,119370,-13771,-18586,126737,232,19194,950,1,805,0.0010000000000000009
804994,-2328,4779,130101,-9552,3916,118725,346,19167,1417,0,806,0.0010000000000000009
805994,6341,-6142,124694,17322,-8787,129286,346,19179,1417,0,807,0.0010000000000000009
806994,-2276,14347,122890,633,15202,110010,339,19179,1417,1,808,0.0010000000000000009
807995,889,15406,123987,-20003,8047,122028,235,19209,1388,0,809,0.0010010000000000296
808997,2887,6698,120888,7200,4464,116613,235,19187,962,0,810,0.0010019999999999474
809995,-2316,2160,124720,2877,-2977,121997,305,19174,1249,0,811,0.0009979999999999434
810994,1858,-3501,128441,-10481,-4038,126629,392,19177,1606,1,812,0.0009990000000000832
811994,-9136,931,128375,-6619,-2697,127337,267,19188,1094,1,813,0.0010000000000000009
812994,3218,4832,126971,-10086,3996,128547,335,19188,1094,0,814,0.0010000000000000009
813994,-3499,23232,129272,-1374,17347,119356,311,19189,1372,1,815,0.0010000000000000009
814994,-2982,5617,126299,-5321,1981,126800,311,19184,1274,1,816,0.0010000000000000009
815994,1774,2720,130973,-11517,-1790,130969,225,19191,922,1,817,0.0010000000000000009
816994,5089,-10873,132335,-1731,-13869,141714,339,19169,1388,0,818,0.0010000000000000009
818009,-2458,983,134532,6014,1308,130382,335,19184,1372,0,819,0.0010149999999999881
818994,-7850,5912,132146,-15549,183,134621,319,19184,1372,1,820,0.0009850000000000136
819994,8072,2816,129499,-8364,-1816,136560,242,19207,1307,0,821,0.0010000000000000009
820994,2371,9056,131500,12577,7188,125411,242,19187,991,0,822,0.0010000000000000009
821994,6687,-1634,130140,-4713,-6009,132915,313,19177,1282,0,823,0.0010000000000000009
822994,6022,-10174,131357,7883,-12271,131381,397,19180,1626,1,824,0.0010000000000000009
823994,1808,-9441,130554,11208,-11959,137832,256,19194,1049,1,825,0.0010000000000000009
824994,9049,-1008,126088,-17843,-5227,129173,318,19194,1049,0,826,0.0010000000000000009
825994,1107,30493,133547,11374,26523,112588,308,19187,1302,1,827,0.0010000000000000009
826994,1482,-10776,121978,15631,-13231,132193,308,19187,1261,1,828,0.0010000000000000009
827994,-1270,-4481,125757,-16265,-7964,118803,212,19198,868,1,829,0.0010000000000000009
828994,9412,-8443,126385,3500,-10595,128718,329,19171,1347,0,830,0.0010000000000000009
829995,673,9141,124590,20420,6775,105500,343,19182,1405,0,831,0.0010009999999999186
830996,-4445,14548,125719,-17316,10861,129276,340,19182,1393,1,832,0.0010010000000000296
831996,4897,2422,121329,-3878,-2524,119783,235,19208,1393,0,833,0.0010000000000000009
832994,102,9320,121453,9816,6810,113802,305,19189,962,0,834,0.0009980000000000544
833994,-979,5429,126552,-6835,203,123326,305,19176,1249,0,835,0.0010000000000000009
834994,255,-4469,125313,-5114,-11036,127554,389,19177,1593,1,836,0.0010000000000000009
835994,1017,-5718,126415,-3975,2911,128291,262,19193,1073,1,837,0.0010000000000000009
836994,-1220,18989,129399,-4189,15531,120424,330,19193,1352,0,838,0.0010000000000000009
837994,-4971,13479,124964,-11681,7968,123164,311,19191,1352,1,839,0.0010000000000000009
838994,-2100,9290,129827,-4548,4457,131091,223,19189,1274,1,840,0.0010000000000000009
839994,196,-4334,130004,3820,-12623,138388,223,19190,913,1,841,0.0009999999999998899
840995,3881,-6246,131397,-5615,-3769,131072,336,19170,1376,0,842,0.0010010000000000296
841994,-1670,432,134872,-6852,-1822,134038,338,19183,1384,0,843,0.0009989999999999721
842994,-1209,6378,132214,-5921,2295,134421,348,19209,1425,1,844,0.0010000000000000009
843994,6517,7948,130536,-978,3644,131855,228,19209,1425,0,845,0.0010000000000000009
844994,1330,2384,131979,-817,-1653,131528,291,19188,934,0,846,0.0010000000000000009
845994,661,-3415,130058,2289,-9148,131866,291,19177,1192,0,847,0.0010000000000000009
846994,6981,-13698,129267,6532,-16416,138505,381,19178,1560,1,848,0.0010000000000000009
847994,1469,-4724,130508,7387,-2570,128934,246,19201,1008,1,849,0.0010000000000000009
848994,10184,8823,126048,-20385,6530,120731,331,19187,1356,0,850,0.0010000000000000009
849994,4664,19765,130330,16570,15184,120110,312,19187,1356,1,851,0.0010000000000000009
850994,1782,-9112,124431,14692,-20057,133372,220,19184,1278,1,852,0.0010000000000000009
851994,-3550,-14230,121787,-17440,-10885,123108,220,19195,901,1,853,0.0010000000000000009
852994,2453,2488,129703,-630,-834,124612,327,19171,1339,0,854,0.0010000000000000009
853994,7053,46,123155,17741,1301,119779,335,19181,1372,0,855,0.0010000000000000009
854994,-4200,16946,124247,-10009,12572,113902,372,19210,1524,1,856,0.0010000000000000009
855994,8292,6784,120890,-13113,2544,122955,234,19210,1524,0,857,0.0010000000000000009
856994,604,9326,121836,12138,6491,113457,290,19184,958,0,858,0.0010000000000000009
857996,908,1347,125621,-3164,-3198,124975,290,19173,1188,0,859,0.0010020000000000584
858995,-5234,-1424,127698,-10402,-3551,125846,386,19174,1581,1,860,0.0009989999999999721
859994,-2055,-2963,127364,-9026,-5868,131298,244,19193,999,1,861,0.0009989999999999721
860994,-182,13727,128883,-5727,12479,123007,334,19187,1368,0,862,0.0010000000000000009
861994,-2951,15430,126636,-3393,10169,122785,305,19187,1368,1,863,0.0010000000000000009
862994,-238,6481,128031,-6245,3700,126100,205,19187,1249,1,864,0.0010000000000000009
863994,-146,2268,131453,-11613,-2369,133329,205,19195,840,1,865,0.0010000000000000009
864994,5455,-7330,131936,2792,-9515,138825,323,19169,1323,0,866,0.0010000000000000009
865994,-6572,3975,135195,1544,1299,129955,331,19185,1356,1,867,0.0010000000000000009
866994,-4539,-1767,130955,-21769,-6031,139030,382,19211,1565,1,868,0.0010000000000000009
867994,7212,7688,130522,3954,3657,133252,224,19211,1565,0,869,0.0010000000000000009
868994,6681,7741,131710,5501,5220,126979,281,19189,917,0,870,0.0010000000000000009
869994,5263,-1623,129822,-3071,-4561,130407,281,19179,1151,0,871,0.0010000000000000009
870994,4412,-10009,130254,11313,-13032,133658,374,19178,1532,1,872,0.0010000000000000009
871994,4959,-11870,128527,4543,-14755,139461,242,19196,991,0,873,0.0010000000000000009
873006,5690,6345,128724,-17384,2111,114538,344,19189,1409,0,874,0.0010120000000000129
873994,787,23776,130784,16165,20061,117653,308,19189,1261,1,875,0.0009879999999999889
874994,1654,-12395,121096,10997,-14327,130581,199,19177,1261,1,876,0.0010000000000000009
875994,1319,-4379,125931,-19300,-7844,124370,323,19196,815,1,877,0.0010000000000000009
876994,7111,-4924,125155,11388,-7564,124321,323,19162,1323,0,878,0.0010000000000000009
877995,786,11116,125093,14024,7906,108153,331,19185,1356,1,879,0.0010010000000000296
878994,-3146,9785,126137,-18489,6647,132504,392,19216,1606,1,880,0.0009989999999999721
879994,3782,124,120275,682,3265,117250,229,19216,938,0,881,0.0010000000000000009
880994,691,12922,123315,7824,12319,112428,290,19188,938,0,882,0.0010000000000000009
881994,-1956,5710,126408,-8150,-3131,125121,380,19174,1188,0,883,0.0010000000000000009
882994,-195,-6441,124727,-6436,-9557,127074,380,19164,1556,1,884,0.0010000000000000009
883994,2353,-680,127836,-1985,5650,127796,235,19202,962,0,885,0.0010000000000000009
884994,-2685,17454,128778,-10768,12858,120630,338,19189,1384,0,886,0.0010000000000000009
885994,-6280,12353,125530,-14515,6969,123684,305,19183,1249,1,887,0.0010000000000000009
886996,630,7281,130881,346,2829,133246,217,19183,1249,1,888,0.0010020000000000584
887994,86,-5702,129665,6011,-12656,137296,321,19195,889,1,889,0.0009979999999999434
888994,898,-5048,131057,-11150,-3999,130384,321,19162,1315,0,890,0.0010000000000000009
889994,-7,2552,134387,-8634,2129,132743,325,19183,1331,1,891,0.0010000000000000009
890994,1091,8049,132241,-182,2155,135330,376,19213,1540,1,892,0.0010000000000000009
891994,4453,6026,131407,-752,2229,131128,231,19190,946,0,893,0.0010000000000000009
892994,1005,-110,131806,-3946,-5032,132928,285,19190,946,0,894,0.0010000000000000009
893994,-478,-7390,129646,6095,-10412,133037,378,19170,1167,0,895,0.0010000000000000009
894994,7132,-8177,129994,3676,-12193,136145,378,19167,1548,1,896,0.0010000000000000009
895994,5125,-3412,128986,8583,-916,128007,234,19193,958,0,897,0.0010000000000000009
896994,9266,12311,127382,-20285,7658,119920,328,19191,1343,0,898,0.0010000000000000009
897994,4707,13194,129659,15680,9655,123098,308,19189,1261,1,899,0.0010000000000000009
898994,677,-10151,125292,18134,-19272,133618,215,19189,1261,1,900,0.0010000000000000009
899994,-1623,-14246,122198,-19674,-11749,123378,313,19194,881,1,901,0.0010000000000000009
900994,-1662,6789,130331,-2517,3844,121741,313,19161,1282,0,902,0.0010000000000000009
901994,8701,1943,122823,16988,1028,120873,317,19181,1298,1,903,0.0010000000000000009
902995,-4220,15024,123247,-6570,10282,113495,377,19211,1544,1,904,0.0010010000000000296
903994,6214,7744,122227,-14556,4429,120880,230,19193,942,0,905,0.0009989999999999721
904994,599,8086,122452,10682,5551,115817,295,19193,942,0,906,0.0010000000000000009
905994,53,176,125823,-1812,-4327,124891,375,19174,1208,0,907,0.0010000000000000009
906994,-6371,-2459,127599,-11621,-3985,127315,375,19162,1536,1,908,0.0010000000000000009
907994,-883,-2014,126070,-10702,-5124,130097,233,19196,954,0,909,0.0010000000000000009
908994,1685,14319,128379,-6513,12584,121750,326,19185,1335,0,910,0.0010000000000000009
909994,-3235,16744,127113,-578,12728,122112,303,19186,1241,1,911,0.0010000000000000009
910995,2153,5517,127166,-7234,2646,127013,201,19186,1241,1,912,0.0010010000000000296
911994,273,641,132516,-10355,-2943,133786,314,19193,823,1,913,0.0009989999999999721
912994,2384,-10854,131544,2278,-12949,140519,314,19162,1286,0,914,0.0010000000000000009
913996,-6079,5675,133797,953,2077,128735,321,19181,1315,1,915,0.0010019999999999474
914994,-4383,1008,131892,-23571,-3679,137661,372,19208,1524,1,916,0.0009980000000000544
915996,6987,6078,130548,3062,3746,132511,241,19197,987,0,917,0.0010019999999999474
916996,6165,8423,131354,8890,5097,127253,290,19197,987,0,918,0.0010000000000000009
917994,5690,-4697,129890,-5307,-7168,131930,377,19173,1188,0,919,0.0009980000000000544
918994,1551,-9333,130431,9742,-12017,132536,377,19164,1544,1,920,0.0010000000000000009
919994,6011,-11661,127522,6343,-15210,140882,225,19196,922,0,921,0.0010000000000000009
920994,6077,8673,129065,-18514,4008,121769,314,19188,1286,0,922,0.0010000000000000009
921994,680,21782,130860,14573,20295,117708,309,19185,1266,1,923,0.0010000000000000009
922994,2633,-12751,120534,13912,-14965,124504,231,19185,946,1,924,0.0010000000000000009
923995,2000,-4465,126736,-19502,-7486,124934,304,19201,946,1,925,0.0010010000000000296
924994,5784,-5301,125463,8113,-8316,125885,317,19165,1245,0,926,0.0009989999999999721
925997,858,12311,124420,15483,7642,107967,317,19178,1298,1,927,0.0010029999999999761
926994,-3377,9932,126123,-18489,-3132,130648,375,19203,1536,1,928,0.0009970000000000256
927995,1915,-297,120891,-1554,1745,117748,237,19193,971,0,929,0.0010009999999999186
928994,1024,11433,123031,7227,10859,113293,292,19193,1196,0,930,0.0009990000000000832
929994,-220,5921,126983,-6845,-675,124286,375,19175,1196,1,931,0.0010000000000000009
930994,-2177,-4188,124720,-7839,-9004,127339,228,19160,1536,1,932,0.0010000000000000009
931994,3011,442,127727,-1439,5284,128170,228,19196,934,0,933,0.0010000000000000009
932994,-2561,14844,128818,-11282,9998,122084,321,19191,1315,0,934,0.0010000000000000009
933994,-6254,9179,126056,-8183,5469,124483,310,19180,1270,1,935,0.0010000000000000009
934994,814,8983,130200,-464,5443,130735,219,19180,897,1,936,0.0010000000000000009
935994,3522,-4597,130070,-1221,-10496,137099,304,19197,897,1,937,0.0010000000000000009
936994,-593,-3477,132139,-3392,-4279,131822,313,19169,1245,0,938,0.0010000000000000009
937994,-1147,2131,133132,-8404,-1040,133501,313,19189,1282,1,939,0.0010000000000000009
938994,-298,3850,131484,-4798,-381,135461,363,19205,1487,1,940,0.0010000000000000009
939994,3784,7026,132019,3580,4069,130141,225,19198,922,0,941,0.0010000000000000009
940994,5522,2613,130553,-3282,-1351,131704,288,19175,1180,0,942,0.0010000000000000009
941997,790,-5002,130309,5312,-9554,132672,364,19175,1180,1,943,0.0010029999999999761
942996,6011,-11967,129129,4386,-15419,136512,220,19161,1491,1,944,0.0009989999999999721
943994,2258,-1142,129014,7545,418,127825,220,19196,901,0,945,0.0009980000000000544
944994,8423,7606,127114,-21117,3124,122907,312,19185,1278,0,946,0.0010000000000000009
945994,2670,15413,130838,18192,12656,120710,308,19182,1261,1,947,0.0010000000000000009
946994,2756,-9505,123421,16329,-16484,131783,246,19197,1008,1,948,0.0010000000000000009
947997,-500,-9073,124028,-18194,-7825,121248,317,19197,1008,0,949,0.0010029999999999761
948995,340,257,128153,1494,-3762,125867,336,19173,1298,0,950,0.0009979999999999434
949994,7264,4926,122460,13042,5896,117277,336,19186,1376,1,951,0.0009990000000000832
950994,-4471,17225,124579,-9951,10776,115485,372,19193,1524,1,952,0.0010000000000000009
951994,5377,4562,122276,-8193,1810,122322,230,19197,942,0,953,0.0010000000000000009
952994,-831,5698,121906,8108,3244,116927,292,19177,1196,0,954,0.0010000000000000009
953994,1846,438,126091,-2318,-2589,124402,368,19177,1196,1,955,0.0010000000000000009
954994,-5999,2423,127901,-10184,184,124954,262,19167,1507,1,956,0.0010000000000000009
955994,428,-3369,125819,-10578,-5933,132270,262,19205,1073,0,957,0.0010000000000000009
956994,1186,17130,129082,-6263,13852,120960,301,19191,1233,0,958,0.0010000000000000009
957994,-5145,12900,127541,-1214,9814,122714,307,19188,1257,1,959,0.0009999999999998899
958994,958,5179,128051,-7666,2270,128249,242,19196,991,1,960,0.0010000000000000009
959994,2893,-3623,132221,-9054,-7521,136669,298,19196,991,0,961,0.0010000000000000009
960994,949,-5472,132715,3488,-6543,136337,337,19166,1221,0,962,0.0010000000000000009
961994,-5419,8133,133911,-4320,3388,129502,337,19188,1380,1,963,0.0010000000000000009
962994,-3126,-2241,131104,-19292,-7087,139066,350,19206,1433,1,964,0.0010000000000000009
963994,5890,7142,132247,6142,5032,130323,222,19197,909,0,965,0.0010000000000000009
964994,4258,4588,130454,3432,1173,130379,295,19176,1208,0,966,0.0010000000000000009
965994,6545,-4431,130403,-1277,-6974,130494,366,19176,1499,1,967,0.0010000000000000009
966994,71,-9033,130209,9370,-11070,133277,253,19165,1499,1,968,0.0010000000000000009
967994,5720,-7533,126765,1224,-11603,138212,304,19198,1036,0,969,0.0010000000000000009
968994,5770,11959,130026,-16120,5974,114532,304,19188,1245,0,970,0.0010000000000000009
969995,1049,12913,129419,17069,12702,128986,305,19185,1249,1,971,0.0010010000000000296
970994,2494,-13754,120538,11791,-16313,124308,253,19194,1036,1,972,0.0009989999999999721
971994,3348,-5221,127420,-18959,-7706,126032,303,19194,1241,0,973,0.0010000000000000009
972994,4778,-2245,125243,8918,-4935,121797,362,19170,1241,0,974,0.0010000000000000009
973994,-1750,16095,124473,12316,14319,110572,359,19181,1483,1,975,0.0010000000000000009
974996,-1775,9206,125181,-20198,-2207,128489,359,19194,1470,1,976,0.0010020000000000584
975996,1188,624,121111,520,615,118165,236,19200,967,0,977,0.0010000000000000009
976994,253,7198,122979,8357,6382,115762,297,19178,1216,0,978,0.0009979999999999434
977994,1026,5399,127778,-8187,829,122712,369,19178,1511,1,979,0.0010000000000000009
978994,-4033,-4492,125492,-5140,-10427,130375,270,19166,1511,1,980,0.0010000000000000009
979994,1249,1773,127601,-4013,7555,126541,299,19201,1106,0,981,0.0010000000000000009
980994,-4399,19963,129389,-12971,13355,120088,299,19183,1225,0,982,0.0010000000000000009
981994,-5307,9584,126941,-7243,4479,125872,303,19188,1241,1,983,0.0010000000000000009
982994,2108,4566,129907,3433,353,131527,235,19199,962,1,984,0.0010000000000000009
983994,3969,-7880,129553,-1876,-11106,136765,302,19170,1237,0,985,0.0010000000000000009
984994,477,-1480,132074,-8094,-2147,130990,374,19170,1237,0,986,0.0010000000000000009
985994,-2022,6473,134042,-5664,3832,131846,351,19184,1532,1,987,0.0010000000000000009
986994,1171,6458,131729,-4648,-596,136468,351,19202,1438,1,988,0.0010000000000000009
987994,2110,1025,131495,3378,-3431,132615,218,19199,893,0,989,0.0010000000000000009
988994,2699,42,130611,471,-2122,129913,283,19177,1159,0,990,0.0010000000000000009
989994,2153,-6279,129740,2340,-10394,133921,367,19164,1503,1,991,0.0010000000000000009
990994,6773,-10832,129423,5278,-13430,136322,301,19164,1503,1,992,0.0010000000000000009
991994,1939,5817,129197,9648,7309,123360,294,19199,1233,0,993,0.0010000000000000009
992994,7713,10908,125530,-23071,4139,122369,294,19183,1204,0,994,0.0010000000000000009
993994,2694,11430,131122,20713,6986,123091,308,19185,1261,1,995,0.0010000000000000009
994994,2243,-16658,122588,17426,-22013,133570,261,19205,1069,1,996,0.0010000000000000009
995997,1676,-8400,124779,-18133,-6022,120947,289,19171,1184,0,997,0.0010029999999999761
996994,541,3655,129631,1391,-965,124468,354,19171,1184,0,998,0.0009970000000000256
997994,5814,4200,121322,13399,4494,118690,357,19181,1450,1,999,0.0010000000000000009
998994,-6827,19258,123918,-11158,13417,113472,357,19189,1462,1,1000,0.0010000000000000009
999994,5958,7582,123241,-8414,4109,120864,237,19198,971,0,1001,0.0010000000000000009
1000994,-2390,4758,122033,10866,3163,116693,286,19177,1171,0,1002,0.0010000000000000009
1001994,3320,-4974,126299,-4712,-7999,127642,375,19167,1536,1,1003,0.001000000000000112
1002994,-7728,2395,129137,-7689,356,124311,315,19167,1536,1,1004,0.0009999999999998899
1003994,-396,-1595,125952,-12411,-4115,131589,294,19201,1290,0,1005,0.001000000000000112
1004995,-530,18820,128694,-8029,14468,121479,303,19189,1204,0,1006,0.0010009999999998076
1005994,-4161,15455,128437,1193,12230,121315,303,19188,1241,1,1007,0.0009990000000001942
1006994,1920,3403,128118,-7603,2325,128685,255,19201,1044,1,1008,0.0009999999999998899
1007994,2777,-6636,132153,-6463,-10540,138135,296,19177,1212,0,1009,0.001000000000000112
1008994,2814,-7812,132525,2769,-9706,138063,369,19177,1511,0,1010,0.0009999999999998899
1009994,-7988,9530,133990,-3386,6308,127782,351,19177,1511,1,1011,0.001000000000000112
1010996,-2723,2686,130797,-21016,-3543,137878,217,19192,1438,1,1012,0.0010019999999999474
1011994,6266,6359,131982,6127,4047,130666,217,19205,889,0,1013,0.0009980000000000544
1012997,4665,5478,131675,4403,3647,129374,277,19180,1135,0,1014,0.0010029999999998651
1013994,8823,-10312,129470,-984,-13294,134031,358,19171,1466,1,1015,0.0009970000000001367
1014994,-3832,-8178,130870,15034,-10191,131268,307,19171,1257,1,1016,0.0009999999999998899
1015994,6383,-11396,125430,-9702,-15244,133010,301,19200,1257,0,1017,0.001000000000000112
1016994,3502,20843,131090,-11735,12683,110101,306,19182,1233,0,1018,0.0009999999999998899
1017994,2322,12047,127837,24185,14056,131341,306,19185,1253,1,1019,0.0009999999999998899
1018994,535,-15855,119204,-1340,-18849,120400,276,19198,1130,1,1020,0.001000000000000112
1019994,4265,-3496,127934,-14180,-8886,129475,314,19171,1286,0,1021,0.0009999999999998899
1020994,6305,-6104,123692,17317,1415,119649,390,19171,1597,0,1022,0.001000000000000112
1021994,-3113,18683,125747,2779,13547,112082,351,19183,1597,1,1023,0.0009999999999998899
1022994,-971,4234,123808,-19991,-4691,131148,219,19193,1438,1,1024,0.001000000000000112
1023994,1850,4257,120234,5986,5610,112114,219,19200,897,0,1025,0.0009999999999998899
1024996,-1492,11629,125446,-3385,7296,118191,283,19185,1159,0,1026,0.0010020000000001694
1025994,287,1790,127324,-7061,-4224,124702,362,19172,1483,1,1027,0.0009979999999998324
1026994,-4559,-6495,125152,-6777,-8022,128964,347,19201,1421,1,1028,0.001000000000000112
1027994,76,8171,130180,-1916,10820,126718,281,19201,1421,0,1029,0.0009999999999998899
1028994,-7183,18342,127626,-16161,10338,119639,297,19184,1151,0,1030,0.001000000000000112
1029994,-2533,8456,127819,-4577,4143,126633,297,19187,1216,1,1031,0.0009999999999998899
1030994,-116,2764,130749,7420,-2625,133808,260,19201,1065,1,1032,0.001000000000000112
1031994,4625,-8389,128801,-11333,-9608,134181,284,19169,1163,0,1033,0.0009999999999998899
1032996,473,2583,134460,-4401,942,131705,387,19185,1585,0,1034,0.0010020000000001694
1033994,-2367,5672,134158,-3621,1297,134972,340,19185,1585,1,1035,0.0009979999999998324
1034996,-301,4377,129708,-3879,-1393,134263,214,19191,1393,1,1036,0.0010020000000001694
1035994,339,3101,131940,3527,-2019,132039,214,19197,876,0,1037,0.0009979999999998324
1036994,6293,-2185,129007,-853,-3281,129897,274,19179,1122,0,1038,0.001000000000000112
1037994,2306,-2180,130729,3191,-5392,131140,365,19171,1495,1,1039,0.0009999999999998899
1038994,8900,-10364,129908,7638,-14736,138052,333,19200,1364,1,1040,0.001000000000000112
1039994,-593,2574,128946,8680,3766,124214,278,19200,1364,0,1041,0.0009999999999998899
1040994,6212,9049,126397,-25721,1853,124051,303,19185,1139,0,1042,0.001000000000000112
1041994,3013,10495,129985,25534,6303,123175,303,19188,1241,1,1043,0.0009999999999998899
1042994,1899,-13263,122955,16303,-16676,130322,284,19205,1163,1,1044,0.001000000000000112
1043994,1992,-5776,125263,-24254,-5169,119936,288,19171,1180,0,1045,0.0009999999999998899
1044994,880,1371,127884,8855,-3314,126147,382,19183,1565,0,1046,0.001000000000000112
1045994,5565,5242,121753,12790,5321,117663,349,19183,1565,1,1047,0.0009999999999998899
1046994,-9770,21434,124912,-13533,15672,112420,228,19187,1429,1,1048,0.001000000000000112
1047994,6684,4813,122254,-7113,-486,124864,228,19201,934,0,1049,0.0009999999999998899
1048994,-1872,2303,122825,11661,2139,116078,288,19182,1180,0,1050,0.001000000000000112
1049994,1758,-1339,127093,-4387,-4458,126181,367,19167,1503,1,1051,0.0009999999999998899
1050994,-5456,-963,127224,-9375,-4144,126225,350,19199,1433,1,1052,0.001000000000000112
1051994,-978,1362,127367,-10021,-603,127991,288,19199,1433,0,1053,0.0009999999999998899
1052994,-867,21290,129155,-8782,15673,122820,306,19182,1180,0,1054,0.001000000000000112
1053994,-5567,13884,126927,3876,9666,122491,306,19187,1253,1,1055,0.0009999999999998899
1054994,1335,-477,129710,-9449,17,129561,271,19204,1110,1,1056,0.001000000000000112
1055994,2318,-6466,131556,-9815,-10071,138267,293,19174,1200,0,1057,0.0009999999999998899
1056994,3171,-3680,132838,8919,-6840,135195,382,19181,1565,0,1058,0.001000000000000112
1057994,-5538,6857,134565,-6611,4727,129534,345,19181,1413,1,1059,0.0009999999999998899
1058994,-4727,383,130064,-20154,-6272,138978,214,19191,1413,1,1060,0.001000000000000112
1059994,8125,9060,131617,9986,4992,129953,279,19199,876,0,1061,0.0009999999999998899
1060994,2374,1955,132242,3664,2512,130117,279,19182,1143,0,1062,0.001000000000000112
1061994,7610,-8959,129107,-1140,-12926,130476,359,19174,1470,1,1063,0.0009999999999998899
1062994,-3181,-7003,130765,13415,-9427,138614,344,19202,1409,1,1064,0.001000000000000112
1063995,9525,-11956,125697,-8986,-16070,127842,277,19202,1135,0,1065,0.0010010000000000296
1064994,843,27974,132069,-5226,19130,113779,300,19189,1135,0,1066,0.0009989999999999721
1065994,1891,2839,124823,19199,4784,130862,278,19184,1229,1,1067,0.0009999999999998899
1066996,1124,-10251,123233,-2971,-7169,120384,278,19204,1139,1,1068,0.0010020000000001694
1067996,5151,-8392,126344,-8109,-13517,132704,291,19174,1192,0,1069,0.0009999999999998899
1068994,6413,-189,123706,18488,7959,111777,382,19181,1565,0,1070,0.0009980000000000544
1069994,-3969,16984,126783,-3438,7651,118941,345,19181,1413,1,1071,0.0009999999999998899
1070994,-908,1676,121880,-1007,-2254,127439,214,19185,1413,1,1072,0.001000000000000112
1071994,1541,11952,120835,9353,9877,110538,287,19203,876,0,1073,0.0009999999999998899
1072994,-1486,9069,126387,-8022,4781,120753,287,19181,1175,0,1074,0.001000000000000112
1073995,-1157,-306,126780,-4325,-6648,124818,365,19172,1495,1,1075,0.0010010000000000296
1074994,-3978,-10327,125246,-4659,-10887,132050,368,19199,1507,1,1076,0.0009989999999999721
1075994,1377,12183,130886,-3428,14085,123188,290,19182,1188,0,1077,0.0009999999999998899
1076994,-8048,18929,126936,-12629,10498,120251,301,19182,1188,0,1078,0.001000000000000112
1077994,-2196,10128,127416,-7398,5230,127224,285,19186,1233,1,1079,0.0009999999999998899
1078994,1321,704,131752,2109,-5146,135122,285,19207,1167,1,1080,0.001000000000000112
1079994,1855,-8425,129810,-6150,-8256,134250,286,19174,1171,0,1081,0.0009999999999998899
1080994,592,735,133046,-2731,-2095,132245,381,19183,1560,0,1082,0.001000000000000112
1081994,-1374,4081,134080,-4721,2192,134270,339,19196,1388,1,1083,0.0009999999999998899
1082994,1369,10431,130894,-4813,4349,132966,211,19196,1388,1,1084,0.001000000000000112
1083994,3082,2537,130209,3307,-2519,132677,275,19207,864,0,1085,0.0009999999999998899
1084994,4009,-1693,131375,2758,-3797,129585,275,19181,1126,0,1086,0.001000000000000112
1085996,1409,-8931,130052,-1401,-12899,135737,364,19169,1491,1,1087,0.0010019999999999474
1086996,2939,-10084,129176,15899,-11673,134912,346,19205,1417,1,1088,0.0009999999999998899
1087994,6912,4746,128878,-5445,2435,126625,278,19178,1139,0,1089,0.0009980000000000544
1088994,5640,17632,128702,-9451,14615,115734,293,19178,1139,0,1090,0.001000000000000112
1089994,623,9408,127954,29797,-825,128112,300,19189,1200,1,1091,0.0009999999999998899
1090994,3695,-26861,120308,-3769,-26538,132730,300,19205,1229,1,1092,0.001000000000000112
1091995,-2878,2252,129107,-14109,1571,118504,282,19180,1155,0,1093,0.0010010000000000296
1092994,6307,-263,125004,13159,-2774,127080,398,19185,1630,0,1094,0.0009989999999999721
1093994,-548,13063,124425,5830,11311,111831,348,19188,1425,1,1095,0.0009999999999998899
1094994,-2326,10947,123116,-16094,3840,122792,216,19188,1425,1,1096,0.001000000000000112
1095994,4421,9174,120412,4556,5604,116336,280,19203,885,0,1097,0.0009999999999998899
1096994,-206,7251,126217,7578,6037,115828,280,19178,1147,0,1098,0.001000000000000112
1097994,-2863,-6022,127313,-10560,-8361,128930,365,19173,1495,1,1099,0.0009999999999998899
1098994,-9685,-3758,126566,-8958,-7299,128125,353,19201,1446,1,1100,0.001000000000000112
1099994,2144,7099,129652,-7168,4804,127248,275,19180,1126,0,1101,0.0009999999999998899
1100994,-5678,22289,128337,-6268,17037,118336,295,19180,1126,0,1102,0.001000000000000112
1101994,-1548,8428,124625,-202,3386,126003,284,19185,1208,1,1103,0.0009999999999998899
1102994,3333,5363,132517,-8131,5188,127685,284,19207,1163,1,1104,0.001000000000000112
1103994,4763,-9827,131162,-5720,-12621,140268,291,19177,1192,0,1105,0.0009999999999998899
1104994,-3541,-1511,133255,8971,-5640,133766,408,19185,1671,0,1106,0.001000000000000112
1105996,-5211,1749,133942,-16009,-195,132776,338,19182,1384,1,1107,0.0010019999999999474
1106994,-106,3917,129808,-13234,-3253,138508,207,19182,848,1,1108,0.0009980000000000544
1107994,5561,11633,129868,15212,6706,127597,285,19205,848,0,1109,0.0009999999999998899
1108994,8379,2638,131925,-3467,3632,130801,362,19185,1167,0,1110,0.001000000000000112
1109994,4044,-10554,129841,2132,-13052,134375,362,19175,1483,1,1111,0.0009999999999998899
1110995,-1406,-10406,129704,15943,-13964,138842,374,19201,1532,1,1112,0.0010010000000000296
1111994,7473,-9509,126702,-9539,-14089,125713,270,19186,1106,0,1113,0.0009989999999999721
1112994,1942,27744,132339,-9691,18542,114917,297,19186,1216,0,1114,0.001000000000000112
1113994,1248,3975,123837,25399,-12766,130177,301,19182,1216,1,1115,0.0009999999999998899
1114994,2521,-11485,123328,-1466,-8638,120429,288,19200,1233,1,1116,0.001000000000000112
1115994,4380,-6944,126581,-14182,-10963,131747,288,19178,1180,0,1117,0.0009999999999998899
1116994,3203,743,123463,20709,8005,111617,392,19185,1606,0,1118,0.001000000000000112
1117994,-1614,18587,127415,-16959,8935,118644,347,19182,1421,1,1119,0.0009999999999998899
1118994,-955,-563,121523,-1942,-6011,130360,210,19205,860,1,1120,0.001000000000000112
1119994,725,10636,120069,8493,10774,109385,299,19205,860,0,1121,0.0009999999999998899
1120994,844,9730,127167,-8948,4020,120500,366,19187,1225,0,1122,0.001000000000000112
1121994,-2138,1059,127334,-5303,-4177,124428,366,19174,1499,1,1123,0.0009999999999998899
1122994,-4547,-8067,126133,-3036,-10135,132522,391,19201,1601,1,1124,0.001000000000000112
1123994,1387,9248,130299,-3114,10917,125051,268,19183,1098,0,1125,0.0009999999999998899
1124994,-8061,19047,127017,-13266,10172,119686,292,19188,1196,0,1126,0.001000000000000112
1125994,-2987,10083,127010,-7994,6728,126458,318,19188,1196,1,1127,0.0009999999999998899
1126995,4455,3552,132413,876,-3362,135160,286,19203,1302,1,1128,0.0010010000000000296
1127994,1544,-9952,130655,-4597,-10347,135630,286,19178,1171,0,1129,0.0009989999999999721
1128994,-2881,-592,132772,-3662,-2118,131218,401,19181,1642,0,1130,0.001000000000000112
1129994,-34,3787,133513,-5586,791,135579,339,19183,1388,1,1131,0.0009999999999998899
1130994,1786,10596,131710,-2579,5118,132020,198,19203,811,1,1132,0.001000000000000112
1131994,4203,4431,130243,1388,-1010,132209,287,19203,811,0,1133,0.0009999999999998899
1132994,3776,-2978,131184,4027,-5869,131136,356,19188,1175,0,1134,0.001000000000000112
1133994,3882,-8456,130845,-149,-11922,134285,356,19173,1458,1,1135,0.0009999999999998899
1134994,-789,-10787,128569,17316,-11367,135071,368,19205,1507,1,1136,0.001000000000000112
1135994,8793,6146,128127,-11906,2462,125922,272,19180,1114,0,1137,0.0009999999999998899
1136995,6425,19648,129819,-3575,16279,116282,289,19188,1184,0,1138,0.0010010000000000296
1137994,-728,5455,126906,30713,-3514,128860,334,19188,1184,1,1139,0.0009989999999999721
1138994,4919,-24947,120399,-10538,-25599,130687,287,19204,1368,1,1140,0.0009999999999998899
1139994,-3230,1314,129486,-11087,643,120343,287,19179,1175,0,1141,0.001000000000000112
1140994,7232,2206,124194,15964,468,124049,410,19180,1679,0,1142,0.0009999999999998899
1141995,-2787,14862,124338,3101,11598,112221,347,19177,1421,1,1143,0.0010010000000000296
1142994,651,8339,122787,-17010,1864,123488,199,19211,815,1,1144,0.0009989999999999721
1143994,972,8601,120029,7423,4763,115796,288,19211,815,0,1145,0.001000000000000112
1144994,1219,5872,126774,4871,4241,118050,363,19184,1180,0,1146,0.0009999999999998899
1145994,-2520,-3967,128130,-9661,-5879,126901,363,19171,1487,1,1147,0.001000000000000112
1146994,-10841,-3271,126520,-9531,-6507,128392,438,19204,1794,1,1148,0.0009999999999998899
1147994,4000,10399,129565,-6965,6824,126191,266,19175,1089,0,1149,0.001000000000000112
1148995,-6426,19631,127871,-3673,14761,119010,277,19185,1135,0,1150,0.0010010000000000296
1150002,-1412,4630,123949,-2831,-354,127672,331,19185,1356,1,1151,0.0010069999999999801
1150994,2542,7377,133142,-9211,6458,127076,288,19204,1356,1,1152,0.0009919999999998819
1151994,5843,-9144,131937,-4302,-10905,140186,422,19181,1180,0,1153,0.001000000000000112
1152994,-5440,-663,133112,9450,-4363,132999,422,19189,1728,0,1154,0.0009999999999998899
1153994,-4405,825,133188,-17544,-1896,133600,339,19182,1388,1,1155,0.001000000000000112
1154994,4547,4043,130274,-8664,-2380,137194,198,19207,811,1,1156,0.0009999999999998899
1155994,3122,10337,129772,15092,5339,127878,281,19207,1151,0,1157,0.001000000000000112
1156994,7817,1778,131842,-4716,1897,131015,349,19182,1151,0,1158,0.0009999999999998899
1157994,3847,-9560,130868,2074,-11683,132808,403,19172,1429,1,1159,0.001000000000000112
1158994,-713,-9156,129964,16853,-12548,139909,403,19205,1651,1,1160,0.0009999999999998899
1159994,8975,-7509,126131,-9821,1062,122703,267,19179,1094,0,1161,0.001000000000000112
1160994,3520,28757,132785,-6396,21639,116868,278,19190,1139,0,1162,0.0009999999999998899
1161994,631,-1721,123122,27332,-15834,131554,335,19190,1372,1,1163,0.001000000000000112
1162994,1196,-9133,124908,-5278,-7373,119477,277,19211,1372,1,1164,0.0009999999999998899
1163995,5615,-6470,127113,-11901,-10280,132247,438,19180,1135,0,1165,0.0010010000000000296
1164994,747,2869,123284,14707,10042,109972,438,19179,1794,0,1166,0.0009989999999999721
1165995,-1146,17848,127259,-16913,8442,119814,340,19175,1393,1,1167,0.0010010000000000296
1166994,2700,-1715,120960,706,-5801,129738,192,19204,786,1,1168,0.0009989999999999721
1167994,4,10410,119767,5626,10829,108672,278,19184,1139,0,1169,0.001000000000000112
1168994,1565,9094,127506,-7264,3776,122327,355,19184,1139,0,1170,0.0009999999999998899
1169997,-1314,-1886,126345,-5123,-6816,126366,434,19177,1454,1,1171,0.0010030000000000872
1170994,-3660,-6352,126497,-4500,-6527,130843,434,19205,1778,1,1172,0.0009969999999999146
1171994,334,12957,130079,-4348,12851,124193,266,19183,1089,0,1173,0.001000000000000112
1172994,-5734,17160,126494,-11234,8750,120954,285,19187,1167,0,1174,0.0009999999999998899
1173995,-3200,7440,127773,-6847,4353,128237,325,19210,1331,1,1175,0.0010010000000000296
1174994,3241,1867,131516,-1393,-4672,135442,282,19210,1331,1,1176,0.0009989999999999721
1175996,1671,-7573,131129,-4918,-7909,134404,442,19179,1155,0,1177,0.0010020000000001694
1176996,-5276,751,133895,-2996,-65,130543,442,19190,1810,0,1178,0.0009999999999998899
1177994,-40,5577,133004,-8504,927,136104,339,19176,1388,1,1179,0.0009980000000000544
1178994,5190,6835,131398,-2254,1663,133662,206,19202,844,1,1180,0.0009999999999998899
1179994,765,4326,131347,4265,644,129834,280,19186,1147,0,1181,0.001000000000000112
1180997,3533,-5112,130226,-489,-8867,133076,360,19186,1147,0,1182,0.0010029999999998651
1181994,5343,-9254,131389,1176,-11888,134199,454,19174,1474,1,1183,0.0009970000000001367
1182994,-1294,-7007,129133,17081,-7649,133245,454,19208,1859,1,1184,0.0009999999999998899
1183994,9941,8437,126746,-14052,4361,123646,260,19180,1065,0,1185,0.001000000000000112
1184994,7081,19723,130904,311,15125,117300,276,19182,1130,0,1186,0.0009999999999998899
1185994,-422,-6296,124800,28296,-12772,132569,326,19209,1335,1,1187,0.001000000000000112
1186994,2622,-18271,121753,-11614,-19845,127369,264,19209,1335,1,1188,0.0009999999999998899
1187994,-166,2777,129954,-10243,1559,121730,425,19185,1081,0,1189,0.001000000000000112
1188996,5565,4510,123745,16461,3456,120465,425,19185,1741,0,1190,0.0010019999999999474
1189996,-3629,15812,124003,394,11682,114085,348,19176,1425,1,1191,0.001000000000000112
1190994,4561,4592,121475,-15320,-1075,124557,220,19201,901,1,1192,0.0009979999999998324
1191994,-532,9037,120973,9397,5852,113638,273,19186,1118,0,1193,0.001000000000000112
1192994,2359,2033,125872,1468,-150,122043,355,19186,1454,0,1194,0.0009999999999998899
1193994,-2709,-626,128260,-8481,-2149,124667,463,19177,1454,1,1195,0.001000000000000112
1194994,-8396,-2493,126694,-8514,-4892,129296,264,19206,1896,1,1196,0.0009999999999998899
1195994,2400,11705,128352,-7666,6710,126160,264,19180,1081,0,1197,0.001000000000000112
1196994,-3505,18275,127983,-1665,14391,118438,289,19189,1184,0,1198,0.0009999999999998899
1197994,-1476,4606,125630,-4092,537,128148,325,19205,1331,1,1199,0.001000000000000112
1198994,2167,5070,132279,-9661,2674,129041,297,19205,1216,1,1200,0.0009999999999998899
1199994,6474,-9815,132249,-2333,-11255,140477,419,19183,1216,0,1201,0.001000000000000112
1200996,-7624,2867,133978,7806,-194,130443,338,19188,1716,0,1202,0.0010019999999999474
1201994,-4793,2305,131906,-19626,-1527,138367,338,19179,1384,1,1203,0.0009980000000000544
1202994,6988,5524,130942,-4794,-555,131200,222,19206,909,1,1204,0.0009999999999998899
1203994,3743,7466,130710,13706,3833,129954,258,19186,1057,0,1205,0.001000000000000112
1204994,7028,-2274,131155,-5026,-2911,132255,347,19186,1421,0,1206,0.0009999999999998899
1205995,4172,-8665,131691,5558,-10906,132578,443,19174,1421,1,1207,0.0010010000000000296
1206994,648,-8689,129772,13804,-13898,139764,262,19209,1814,1,1208,0.0009989999999999721
1207994,7187,221,126657,-11595,7944,119463,262,19181,1073,0,1209,0.001000000000000112
1208994,4694,26245,131841,-972,16493,119586,298,19179,1221,0,1210,0.0009999999999998899
1209994,-838,-7091,122331,25189,-17231,131139,320,19197,1311,1,1211,0.001000000000000112
1210994,1883,-7472,125338,-18825,-7858,120687,284,19180,1163,1,1212,0.0009999999999998899
1211994,6242,-7539,126831,12445,-8245,131005,428,19180,1163,0,1213,0.001000000000000112
1212994,709,8368,124622,9842,13483,108454,349,19188,1753,0,1214,0.0009999999999998899
1213994,-2021,15906,126226,-18256,4992,122334,349,19176,1429,1,1215,0.001000000000000112
1214994,4613,-1128,120483,2705,-3380,126335,237,19205,971,1,1216,0.0009999999999998899
1216000,1132,10087,121086,5891,8542,111282,264,19184,1081,0,1217,0.0010060000000000624
1216995,155,6129,126812,-8259,1749,122313,345,19171,1413,0,1218,0.0009950000000000792
1217994,-38,-1611,126413,-6423,-5721,126033,444,19171,1413,1,1219,0.0009989999999999721
1218994,-3977,-4473,126738,-2944,-4217,131347,258,19201,1818,1,1220,0.0009999999999998899
1219994,-781,16242,128885,-6326,14733,121169,258,19186,1057,0,1221,0.001000000000000112
1220994,-5078,15621,126352,-13999,8184,122863,298,19191,1221,0,1222,0.0009999999999998899
1221994,-1420,5694,128669,-4813,2758,128940,321,19202,1315,1,1223,0.001000000000000112
1222997,2345,-1672,130394,3677,-7452,135468,267,19185,1094,1,1224,0.0010029999999998651
1223996,2371,-6889,131183,-8398,-7431,134925,405,19185,1094,0,1225,0.0009989999999999721
1224994,-3966,3506,134817,-6167,2883,129576,333,19184,1659,0,1226,0.0009980000000000544
1226006,147,9274,133092,-7052,4062,135667,333,19175,1364,1,1227,0.0010120000000000129
1226994,6786,2498,130963,1587,-3083,135952,213,19207,872,1,1228,0.0009879999999999889
1227994,-1464,968,131396,1601,-1106,128224,257,19187,1053,0,1229,0.001000000000000112
1228994,3324,-5694,129323,-3549,-9672,134337,356,19173,1458,0,1230,0.0009999999999998899
1229994,5699,-5649,131787,5083,-7805,133746,451,19173,1458,1,1231,0.001000000000000112
1230994,3413,-4361,129476,15170,-5083,131385,260,19206,1847,1,1232,0.0009999999999998899
1231996,5087,13627,127221,-14445,9540,120498,260,19189,1065,0,1233,0.0010019999999999474
1232994,9222,9766,128675,-2308,3902,123664,305,19187,1249,0,1234,0.0009980000000000544
1233994,-1043,-8575,126227,31594,-12354,131292,316,19204,1294,1,1235,0.001000000000000112
1234994,3477,-16747,121379,-13624,-19796,126993,261,19183,1069,1,1236,0.0009999999999998899
1235994,-2189,8714,130506,-10827,7510,118470,403,19183,1069,0,1237,0.001000000000000112
1236994,4750,2147,123614,14310,260,123705,344,19181,1651,0,1238,0.0009999999999998899
1237997,-3144,15696,122391,1028,11630,113639,344,19177,1409,1,1239,0.0010030000000000872
1238994,4960,10436,122890,-11682,5719,120229,233,19210,954,1,1240,0.0009969999999999146
1239994,3442,3432,121295,4648,1201,117030,257,19182,1053,0,1241,0.001000000000000112
1240996,-1238,-1412,125585,4918,-3826,123056,341,19177,1397,0,1242,0.0010019999999999474
1241996,-813,-2459,128244,-9943,-4670,127158,436,19177,1786,1,1243,0.0009999999999998899
1242994,-6840,2234,127497,-8213,274,126442,261,19202,1786,1,1244,0.0009980000000000544
1243994,1546,10898,127092,-9490,5053,128211,310,19186,1069,0,1245,0.001000000000000112
1244999,-2506,20882,127289,-1206,16352,117989,310,19187,1270,1,1246,0.0010049999999999226
1245996,160,5458,126762,-2783,3389,125568,313,19201,1282,1,1247,0.0009969999999999146
1246994,1933,-448,131086,-9675,-3183,131591,273,19185,1118,1,1248,0.0009980000000000544
1247994,4048,-11094,132212,-2449,-13196,140676,403,19185,1651,0,1249,0.001000000000000112
1248994,-6017,3385,134860,4885,-217,128418,341,19174,1651,0,1250,0.0009999999999998899
1249994,-7952,7395,132121,-16947,3548,137627,244,19180,1397,1,1251,0.001000000000000112
1250994,9443,4076,130009,-7878,-1365,131070,244,19209,999,1,1252,0.0009999999999998899
1251995,5697,6742,131604,13660,4190,129304,249,19188,1020,0,1253,0.0010010000000000296
1252994,6246,-5022,130212,-517,-13215,133763,346,19173,1417,0,1254,0.0009989999999999721
1253994,4825,-10233,130697,5862,-11729,132796,437,19200,1790,1,1255,0.001000000000000112
1254995,1219,-9970,128965,9335,-13325,139748,260,19200,1790,1,1256,0.0010009999999998076
1255994,6910,9338,127668,-15339,18010,114798,300,19191,1065,0,1257,0.0009989999999999721
1256994,856,26427,131278,8833,10868,122803,300,19186,1229,1,1258,0.001000000000000112
1257994,2110,-15765,120973,-621,-20276,130969,315,19197,1290,1,1259,0.0009999999999998899
1258994,1066,-6912,126584,-11189,-9470,122511,252,19188,1032,1,1260,0.001000000000000112
1259997,9136,-7089,126538,15268,-5492,128946,386,19179,1581,0,1261,0.0010030000000000872
1260994,-576,12106,125812,3283,13139,108912,347,19179,1581,0,1262,0.0009969999999999146
1261994,-4842,10814,125074,-20726,2463,126468,270,19179,1421,1,1263,0.0009999999999998899
1263001,4597,5300,120097,3540,4517,119523,270,19211,1106,1,1264,0.0010070000000002022
1263996,306,11900,122509,4797,8890,112253,252,19186,1032,0,1265,0.0009949999999998571
1264996,80,3821,126636,-7124,-981,123001,345,19172,1413,0,1266,0.001000000000000112
1265994,-92,-8490,124891,-6364,-11742,128239,434,19192,1778,1,1267,0.0009979999999998324
1266994,-134,-1494,128181,-1926,388,129865,274,19192,1778,1,1268,0.001000000000000112
1267994,-4366,19945,129182,-13385,16266,120096,312,19190,1122,0,1269,0.0009999999999998899
1268994,-3034,11554,125575,-13998,7134,124422,312,19185,1278,1,1270,0.001000000000000112
1269994,-1582,8078,130029,5443,3215,129548,314,19198,1286,1,1271,0.0009999999999998899
1270994,1171,-7006,127695,-4026,-10972,134882,263,19186,1077,1,1272,0.001000000000000112
1271994,4444,-1650,132166,-8855,-2549,131844,387,19177,1585,0,1273,0.0009999999999998899
1272994,-700,4363,135573,-1750,836,133495,343,19177,1585,0,1274,0.001000000000000112
1273994,-1160,4610,132070,-7233,867,134555,278,19180,1405,1,1275,0.0009999999999998899
1274994,1296,3802,130544,-31,-1283,136074,278,19209,1139,0,1276,0.001000000000000112
1275994,4532,-2279,129341,-3773,-4840,130809,241,19188,987,0,1277,0.0009999999999998899
1276994,2894,2309,130618,4380,-309,127628,332,19177,1360,0,1278,0.001000000000000112
1277994,8720,-6032,131645,886,-10396,136682,419,19195,1716,1,1279,0.0009999999999998899
1278994,6630,-10568,128719,15845,-11873,134002,257,19195,1716,1,1280,0.001000000000000112
1279994,-1582,11231,128447,-6384,7393,122207,318,19188,1053,0,1281,0.0009999999999998899
1280994,8030,5808,125631,-16002,1321,125559,313,19188,1302,1,1282,0.001000000000000112
1281997,-1977,6612,129038,32481,4685,122280,313,19193,1282,1,1283,0.0010029999999998651
1282994,4993,-17255,119916,-7387,-20633,129933,271,19187,1110,1,1284,0.0009970000000001367
1283994,-2202,5053,128890,-14530,2904,117642,383,19183,1569,0,1285,0.0009999999999998899
1284994,8181,-4158,124562,14489,-6786,128076,350,19183,1433,0,1286,0.001000000000000112
1285994,-3059,14220,122550,4924,10087,113960,296,19183,1433,1,1287,0.0009999999999998899
1286994,853,16540,124270,-15160,12885,117178,247,19213,1212,0,1288,0.001000000000000112
1287994,3846,2794,121754,-991,657,121147,247,19186,1012,0,1289,0.0009999999999998899
1288994,-3673,1794,124700,6616,-467,118842,334,19177,1368,0,1290,0.001000000000000112
1289995,1290,-2053,128094,-8689,-4951,127919,416,19196,1704,1,1291,0.0010010000000000296
1290996,-4089,1470,127496,-5548,-789,125064,255,19196,1044,1,1292,0.0010010000000000296
1291996,2179,8014,127451,-10395,2109,129458,317,19193,1044,0,1293,0.0009999999999998899
1292994,-3752,21275,128941,-2634,17166,120720,306,19189,1298,1,1294,0.0009980000000000544
1293994,-1466,4389,127161,-2175,3835,124321,306,19196,1253,1,1295,0.0009999999999998899
1294994,-434,-364,131121,-10999,-3140,137189,248,19189,1016,1,1296,0.001000000000000112
1295994,3791,-10111,131797,-5702,-13188,137492,364,19179,1491,0,1297,0.0009999999999998899
1296994,-53,4763,134925,7235,-329,128293,339,19179,1388,0,1298,0.001000000000000112
1297994,-7452,5403,131971,-10370,2949,138036,275,19185,1388,1,1299,0.0009999999999998899
1298994,7483,2038,129520,-11559,-4282,130771,244,19208,1126,0,1300,0.001000000000000112
1299995,4542,7267,132080,10112,3016,129457,244,19190,999,0,1301,0.0010010000000000296
1300994,4814,-3703,129965,2117,-10902,132932,323,19172,1323,0,1302,0.0009989999999999721
1301994,5454,-8760,130239,1846,-11358,131958,402,19189,1646,1,1303,0.0009999999999998899
1302994,4282,-9943,129140,12944,-13942,139442,255,19190,1044,1,1304,0.001000000000000112
1303994,8420,5492,127619,-13852,12325,117099,312,19190,1044,0,1305,0.0009999999999998899
1304994,-895,24564,131364,21005,12868,121971,313,19187,1278,1,1306,0.001000000000000112
1305994,2547,-12712,121711,3596,-17708,130820,313,19194,1282,1,1307,0.0009999999999998899
1306994,-962,-6267,125523,-16089,-7998,121023,247,19185,1012,1,1308,0.001000000000000112
1307994,6789,-3983,126826,15840,-4557,128592,363,19172,1487,0,1309,0.0009999999999998899
1308994,1682,8909,124666,6842,9607,110023,342,19179,1401,0,1310,0.001000000000000112
1309994,-4529,10957,125164,-22504,3363,124116,304,19179,1401,1,1311,0.0009999999999998899
1310994,4320,5272,121773,3082,3748,121550,238,19210,1245,0,1312,0.001000000000000112
1311994,1014,9185,122090,5896,7416,113449,238,19187,975,0,1313,0.0009999999999998899
1312997,-1547,4732,126781,-7736,649,121953,323,19177,1323,0,1314,0.0010030000000000872
1313996,-1421,-7112,125170,-8959,-10821,128601,407,19182,1667,1,1315,0.0009989999999999721
1314994,2947,-2074,126891,-131,-977,129687,257,19190,1053,1,1316,0.0009980000000000544
1315994,-2658,19299,129320,-9536,16157,120409,316,19190,1053,0,1317,0.0009999999999998899
1316994,-4764,12632,125698,-18091,8948,123277,307,19187,1294,1,1318,0.001000000000000112
1317994,862,8420,130170,3970,4037,129874,307,19191,1257,1,1319,0.0009999999999998899
1318995,-450,-8340,128855,2169,-12414,137464,235,19188,962,1,1320,0.0010010000000000296
1319994,2415,-3971,131343,-13558,-5477,131935,351,19170,1438,0,1321,0.0009989999999999721
1320996,-418,5537,135553,-2260,1711,132553,338,19182,1384,0,1322,0.0010019999999999474
1321996,230,4809,131896,-3779,851,135204,284,19182,1384,1,1323,0.001000000000000112
1322994,1344,5252,131151,-3654,2139,133270,239,19211,1163,0,1324,0.0009980000000000544
1323994,3395,-568,130411,-4037,-4638,132239,239,19189,979,0,1325,0.0009999999999998899
1324994,857,-2221,130290,7838,-3894,128687,329,19173,1347,0,1326,0.001000000000000112
1325994,7828,-7259,130770,-2217,-11051,135994,402,19183,1646,1,1327,0.0009999999999998899
1326994,6029,-7103,128592,15579,-9886,133776,250,19189,1024,1,1328,0.001000000000000112
1327994,3650,9717,127752,-11079,5985,121669,325,19189,1331,0,1329,0.0009999999999998899
1328997,5370,10520,128206,-7398,7339,122617,309,19190,1331,1,1330,0.0010030000000000872
1329995,-661,-705,126532,29864,-2905,126781,237,19192,1266,1,1331,0.0009980000000000544
1330994,3950,-16297,120547,-13155,-19833,127935,237,19191,971,1,1332,0.0009989999999999721
1331995,-2982,5702,129940,-10487,3640,119374,352,19170,1442,0,1333,0.0010010000000000296
1332994,9458,-2007,122689,15635,-5480,126460,343,19179,1405,0,1334,0.0009989999999999721
1333994,-4795,16579,123326,2243,12549,111741,330,19179,1352,1,1335,0.0009999999999998899
1334994,3593,9926,123044,-17044,7027,121447,234,19212,1352,0,1336,0.001000000000000112
1335995,2001,7659,122061,4202,5169,116853,308,19186,958,0,1337,0.0010010000000000296
1336994,-2232,872,125483,2927,-490,120850,308,19175,1261,0,1338,0.0009989999999999721
1337994,-3043,-2379,128022,-9940,-5686,127993,399,19179,1634,1,1339,0.0009999999999998899
1338994,-2898,-1222,126575,-6665,-4150,128024,268,19194,1098,1,1340,0.001000000000000112
1339994,2211,12308,128638,-10705,5780,127202,335,19194,1372,0,1341,0.0009999999999998899
1340994,-4908,19640,128483,-1195,17382,119695,307,19191,1372,1,1342,0.001000000000000112
1341994,1533,4279,126973,-3740,3022,128576,240,19195,1257,1,1343,0.0009999999999998899
1342994,860,-1682,131933,-11563,-2663,137850,240,19186,983,1,1344,0.001000000000000112
1343994,1780,-8666,132264,-3285,-12331,137126,350,19171,1433,0,1345,0.0009999999999998899
1344994,-2105,5408,134279,5336,275,129613,340,19184,1393,1,1346,0.001000000000000112
1345995,-5999,2836,132339,-13490,-41,138596,311,19208,1274,1,1347,0.0010009999999998076
1346994,6885,3042,130478,-8593,2522,130675,229,19208,1274,0,1348,0.0009990000000001942
1347994,4481,7943,131271,10947,5526,127142,313,19193,938,0,1349,0.0009999999999998899
1348994,7345,-3807,130038,-1442,-11821,133589,313,19174,1282,0,1350,0.001000000000000112
1349994,-279,-9516,129749,7034,-11217,132104,395,19182,1618,1,1351,0.0009999999999998899
1350994,7059,-9536,127508,-10243,-13625,138697,249,19194,1020,0,1352,0.001000000000000112
1351994,7070,6972,129298,-7678,12786,117967,313,19188,1282,0,1353,0.0009999999999998899
1352994,-1671,21318,131239,27610,9856,122427,308,19188,1282,1,1354,0.001000000000000112
1353994,2635,-14681,119510,-6548,-17706,130034,220,19188,1261,1,1355,0.0009999999999998899
1354999,1379,-3937,126792,-13128,-5531,121317,220,19191,901,1,1356,0.0010049999999999226
1355994,7380,-2930,125594,21334,-4117,127537,339,19174,1388,0,1357,0.0009950000000000792
1356994,-1008,12879,124208,-728,12692,107605,341,19181,1397,1,1358,0.001000000000000112
1357994,-2587,8150,125582,-22046,-1335,127955,332,19210,1360,1,1359,0.0009999999999998899
1358994,1287,1056,121361,10999,1392,121599,236,19210,1360,0,1360,0.001000000000000112
1359994,-383,13006,123233,-290,11773,111205,307,19191,967,0,1361,0.0009999999999998899
1360996,-598,5822,128164,-8674,1067,123213,307,19169,1257,0,1362,0.0010019999999999474
1361994,-3635,-9284,124375,-5947,-12731,128943,392,19183,1606,1,1363,0.0009980000000000544
1362994,4462,1569,127642,-2372,2592,127900,252,19194,1032,0,1364,0.001000000000000112
1363994,-4532,19159,129439,-12702,13865,121162,322,19185,1319,0,1365,0.0009999999999998899
1364996,-3282,9972,126462,-12306,7557,122559,309,19185,1319,1,1366,0.0010019999999999474
1365995,-1433,7757,129840,5819,3579,132137,237,19191,1266,1,1367,0.0009989999999999721
1366996,2050,-9157,128834,-6468,-12423,137522,237,19188,971,1,1368,0.0010010000000000296
1367994,1557,378,133168,-9452,-647,129520,341,19178,1397,0,1369,0.0009980000000000544
1368994,283,3805,133832,3677,-831,134811,337,19186,1380,1,1370,0.001000000000000112
1369994,1201,2520,130799,-9010,-2415,134721,347,19208,1421,1,1371,0.0009999999999998899
1370995,236,4023,132699,-5772,2207,133299,244,19208,1421,0,1372,0.0010010000000000296
1371994,5614,110,129198,3325,-3762,133730,302,19187,999,0,1373,0.0009989999999999721
1372995,450,-11,130087,5615,-2286,126820,302,19174,1237,0,1374,0.0010010000000000296
1373996,7805,-8785,130558,-4449,-11221,136636,384,19185,1573,1,1375,0.0010010000000000296
1374994,4225,-3932,127675,18266,-7506,133194,247,19195,1012,0,1376,0.0009979999999998324
1375994,7870,5002,126857,-16514,362,122843,324,19186,1327,0,1377,0.001000000000000112
1376994,2740,17937,132271,1866,15980,118461,307,19186,1257,1,1378,0.0009999999999998899
1377994,726,-10712,123116,26397,-12491,132046,222,19185,1257,1,1379,0.001000000000000112
1378997,2199,-8496,124836,-15842,-11971,123287,333,19192,909,1,1380,0.0010030000000000872
1379994,-1188,-182,128411,-7178,-1568,124339,333,19173,1364,0,1381,0.0009969999999999146
1380994,7131,6124,121868,17825,919,120147,342,19179,1401,1,1382,0.0009999999999998899
1381994,-4256,15733,124727,-4400,12715,112193,363,19213,1487,1,1383,0.001000000000000112
1382994,4986,2604,122243,-14632,135,126141,235,19213,962,0,1384,0.0009999999999998899
1383994,-1598,11085,122510,7849,8113,113356,293,19185,962,0,1385,0.001000000000000112
1384997,327,489,126091,-1975,-432,122798,383,19172,1200,0,1386,0.0010030000000000872
1385994,-5414,-1385,127101,-9988,-3495,126762,383,19175,1569,1,1387,0.0009969999999999146
