t_us,ax,ay,az,ax1,ay1,az1,shunt_raw,bus_raw,curr_raw,pg_rpm,seq,dt
0,15717,-801,124195,13029,6338,117444,313,19203,1282,0,40873,
998,7200,6031,121879,30464,4315,122679,316,19187,1294,1,40874,0.000998
1998,-4273,-2126,121675,-37456,-2430,119978,215,19187,881,1,40875,0.0009999999999999998
2998,9444,3716,121143,-2670,4437,119936,271,19227,881,0,40876,0.001
3998,9538,5504,119896,24131,13008,117034,296,19200,1110,0,40877,0.001
4998,11261,17189,126537,-4911,14626,107493,296,19197,1212,1,40878,0.001
5998,1767,-13437,123531,-12010,-19671,135018,310,19224,1270,1,40879,0.001
6998,7496,-5112,126225,893,1556,127794,252,19195,1032,0,40880,0.001
7998,1365,16375,130839,-8075,15383,120493,284,19195,1163,0,40881,0.001
8998,-526,13636,129766,-8708,12716,123698,323,19211,1163,1,40882,0.0009999999999999992
9998,212,-1636,129431,-10635,-8572,136124,240,19219,1323,1,40883,0.0010000000000000009
10998,7568,-6407,130811,-8184,-3824,134319,240,19204,983,0,40884,0.0009999999999999992
11998,11780,11866,135257,5656,12511,125442,326,19200,1335,0,40885,0.0010000000000000009
12998,4864,-3649,132401,4244,-5230,137995,313,19188,1282,1,40886,0.0009999999999999992
14001,4072,-3305,133850,-23340,-2649,136107,192,19225,786,1,40887,0.0010030000000000004
14998,12663,-4439,133608,4699,-4439,139342,263,19225,786,0,40888,0.0009969999999999996
16000,10364,4956,130282,12243,1551,129843,286,19205,1077,0,40889,0.0010020000000000012
17000,9367,1336,133375,-2040,-2828,128280,286,19200,1171,1,40890,0.0009999999999999974
17999,6561,-9169,131084,-5710,-8083,135566,352,19222,1442,1,40891,0.0009989999999999999
18998,18144,1074,130225,10709,1542,131642,243,19195,995,0,40892,0.0009989999999999999
19998,7049,-4341,127761,5819,-5890,130058,260,19213,1065,0,40893,0.0010000000000000009
20999,14952,2014,124833,-7,4369,111179,324,19213,1065,1,40894,0.0010010000000000019
22000,16660,7818,122877,25315,3201,130518,221,19216,1327,1,40895,0.0010009999999999984
22998,13896,-19181,121810,3875,-17698,125530,221,19211,905,0,40896,0.0009979999999999989
23998,21087,9088,128414,-21300,11384,109999,311,19207,1274,0,40897,0.0010000000000000009
24998,2658,-3067,123987,47632,-4774,129881,303,19189,1241,1,40898,0.0010000000000000009
25998,-3947,5456,125396,-26746,4937,120328,234,19228,958,1,40899,0.0010000000000000009
26999,10895,-13623,118397,-18498,-15006,130056,261,19228,958,0,40900,0.0010009999999999984
27998,3363,16907,120655,23212,13746,94955,294,19199,1069,0,40901,0.0009989999999999999
28998,16988,28559,126271,-8808,29439,120115,294,19206,1204,1,40902,0.0010000000000000009
29998,330,-16430,123780,-5376,-15600,134619,326,19224,1335,1,40903,0.0010000000000000009
30998,8769,-14130,128649,2094,-1010,131708,241,19201,987,0,40904,0.0009999999999999974
31998,-3916,5822,129221,-16679,18351,115143,290,19211,1188,0,40905,0.0010000000000000009
32999,2696,25764,132555,-8984,12463,126275,315,19211,1188,1,40906,0.0010010000000000019
33998,1548,-9460,127012,-965,-22238,144378,220,19221,1290,1,40907,0.0009989999999999999
35001,5687,-830,130880,-19625,10554,121213,220,19214,901,0,40908,0.001002999999999997
35999,12993,7790,137073,11848,-545,135800,311,19207,1274,0,40909,0.0009979999999999989
37000,-936,3650,132348,-4369,3624,130060,308,19195,1261,1,40910,0.0010010000000000019
37998,7132,-2919,133792,-20290,-13624,146321,226,19225,926,1,40911,0.0009979999999999989
38998,7426,-8829,133356,14716,4878,131184,259,19225,926,0,40912,0.0010000000000000009
40001,12726,11096,131348,4018,-3730,130739,286,19202,1061,0,40913,0.001002999999999997
40998,8012,-11268,133194,-2119,-8462,131839,286,19202,1171,1,40914,0.0009970000000000048
41998,7323,380,132280,-3296,-3316,133427,371,19230,1520,1,40915,0.0010000000000000009
42998,16574,-10881,129596,11956,-5588,133521,238,19199,975,0,40916,0.0010000000000000009
43998,5742,9659,128304,3597,2459,119336,273,19209,1118,0,40917,0.000999999999999994
44998,18929,27,128437,21387,-3894,126796,310,19209,1270,1,40918,0.0010000000000000009
45998,9242,1037,121181,8329,-7225,122468,219,19210,1270,1,40919,0.0010000000000000009
46998,22276,-6981,126559,-20309,-5660,123109,320,19216,897,0,40920,0.0010000000000000009
48000,13917,-2526,121600,33713,2953,119113,320,19203,1311,0,40921,0.0010020000000000029
49000,1483,2852,122479,9406,1961,122342,310,19189,1270,1,40922,0.000999999999999994
49999,51,-4494,118885,-38903,-1687,119936,264,19228,1081,1,40923,0.0009989999999999999
50998,6321,2734,120885,17011,5518,118882,255,19228,1044,0,40924,0.0009989999999999999
51999,15392,12789,121862,13629,11740,114718,290,19206,1044,0,40925,0.0010010000000000019
53000,5431,8542,122761,-6908,4813,111310,298,19198,1188,1,40926,0.0010010000000000019
53998,6539,-12019,124877,-14363,-11634,134825,298,19221,1221,1,40927,0.0009979999999999989
54998,8821,-628,126886,6670,3917,123734,245,19197,1003,0,40928,0.0010000000000000009
55998,-2932,21992,131510,-11190,20603,120757,282,19205,1155,0,40929,0.0010000000000000009
56998,2817,6735,131093,-15211,1938,128788,313,19205,1282,1,40930,0.0010000000000000009
57998,-1728,-5543,127589,-2680,-7506,135035,217,19215,1282,1,40931,0.000999999999999994
58998,12631,-3671,132262,-9615,-2312,134588,321,19214,889,0,40932,0.0010000000000000009
59998,7186,3695,132939,1654,4524,125882,321,19205,1315,0,40933,0.0010000000000000009
60998,4686,2318,133074,-276,-353,138599,307,19190,1257,1,40934,0.0010000000000000009
61998,2170,-6072,134160,-15236,-6551,137207,229,19231,938,1,40935,0.0010000000000000009
62998,12108,-1060,132205,3842,-214,135573,249,19202,1020,0,40936,0.0010000000000000009
63998,10227,7844,131391,7228,4956,132676,284,19202,1020,0,40937,0.0010000000000000009
64998,7141,-3703,129977,-4769,-8520,131476,387,19198,1163,1,40938,0.0010000000000000009
65998,8328,-5512,134390,-155,-2508,132478,387,19224,1585,1,40939,0.0010000000000000009
66999,14683,-3914,131322,12772,-3875,134684,234,19202,958,0,40940,0.0010010000000000019
67998,9582,-11574,124668,-762,-11405,131282,285,19209,1167,0,40941,0.0009989999999999999
68998,14557,19430,130184,10811,20610,106309,307,19207,1257,1,40942,0.0010000000000000009
69998,16766,-2916,118976,17617,-7710,134054,226,19207,1257,1,40943,0.000999999999999987
70998,15868,-4365,125309,-9671,-3724,115734,328,19214,926,0,40944,0.0010000000000000009
71998,17671,-4625,125770,9720,-3841,124673,328,19210,1343,0,40945,0.0010000000000000009
72998,3503,3526,123071,29193,2976,107779,309,19195,1266,1,40946,0.0010000000000000009
74000,-625,6179,124700,-33165,5420,138018,285,19224,1167,1,40947,0.0010020000000000029
74999,8797,-14966,118489,1149,-16759,107761,253,19199,1036,0,40948,0.0009989999999999999
75998,10626,35867,122927,9025,32185,110022,291,19199,1036,0,40949,0.0009989999999999999
76999,11496,1687,125006,2812,3481,123976,352,19201,1192,1,40950,0.0010010000000000019
77998,-184,-13294,121925,-12403,-8003,130350,352,19224,1442,1,40951,0.0009989999999999999
79001,7833,-13397,130878,-379,-4161,135970,239,19201,979,0,40952,0.0010030000000000039
79998,-1896,22918,129944,-10638,32014,104166,291,19210,1192,0,40953,0.0009969999999999979
80999,1259,14599,132458,-5227,-11538,146905,306,19213,1253,1,40954,0.0010010000000000019
82000,237,-17220,126194,-16296,-6410,127546,215,19213,1253,1,40955,0.001000999999999988
82998,11633,13461,133035,-5554,8639,128864,319,19215,881,0,40956,0.0009980000000000128
83999,7551,-753,134071,11271,3476,133078,319,19203,1307,0,40957,0.001000999999999988
84998,3549,1898,134800,-14810,-1076,134157,301,19191,1233,1,40958,0.0009989999999999999
85998,3849,-18600,133454,-6881,-14839,150155,248,19227,1016,1,40959,0.0010000000000000009
86998,11738,8785,134052,10916,13359,121146,243,19201,995,0,40960,0.0010000000000000009
87998,11238,2074,130347,2170,-12106,138607,285,19201,995,0,40961,0.0010000000000000009
88998,8484,-4360,129589,-7860,1861,123700,397,19199,1167,1,40962,0.0010000000000000009
89998,10106,-1453,135834,5694,-9205,141034,397,19224,1626,1,40963,0.0010000000000000009
90998,14471,-12189,127644,9477,-8242,129516,230,19203,942,0,40964,0.0010000000000000009
91998,8849,12196,128793,-1213,7177,118297,290,19211,1188,0,40965,0.0010000000000000009
92998,17760,-5767,125366,24719,-5110,129823,305,19211,1249,1,40966,0.0010000000000000009
93998,8898,7321,121691,-180,1117,117863,217,19211,889,1,40967,0.0010000000000000009
95000,24732,-13229,123141,-17833,-10556,126691,331,19218,889,0,40968,0.0010020000000000029
95998,13594,9389,127228,41046,13466,109860,304,19205,1356,0,40969,0.0009979999999999989
96998,4001,-2109,123763,-285,-9861,131621,304,19193,1245,1,40970,0.0010000000000000009
98025,-2810,-8145,122768,-35625,-6549,118451,301,19225,1233,1,40971,0.0010270000000000001
98998,6719,9880,124745,17554,6270,121036,244,19203,999,0,40972,0.0009729999999999878
99998,15749,21113,122806,8440,19485,106637,290,19203,1188,0,40973,0.0010000000000000009
100999,9015,12422,127330,-7940,1899,116370,338,19198,1188,1,40974,0.0010010000000000019
101998,6932,-30364,121329,-691,-28866,144223,243,19225,1384,1,40975,0.0009989999999999999
102998,4149,9894,127975,-8271,18860,112061,243,19202,995,0,40976,0.0010000000000000009
103998,1838,18954,133057,-9801,15691,127316,299,19207,1225,0,40977,0.0010000000000000009
104998,506,4145,131043,-7590,-655,127962,296,19212,1212,1,40978,0.0010000000000000009
106000,1961,-11707,128620,-7830,-14949,141080,213,19215,872,1,40979,0.0010020000000000029
106998,6487,-2128,131241,-8785,758,128630,334,19215,872,0,40980,0.0009979999999999989
107998,6801,15273,133182,-439,14528,124884,310,19201,1368,0,40981,0.0010000000000000009
108998,4645,-9343,134303,-1498,-8885,142774,310,19195,1270,1,40982,0.0010000000000000009
109998,8472,4772,134358,-12869,3868,132160,268,19226,1098,1,40983,0.0010000000000000009
110998,11767,-7872,132420,10762,-10343,139613,233,19205,954,0,40984,0.0010000000000000009
111998,10745,6220,130005,4809,8574,124440,279,19200,1143,0,40985,0.0010000000000000009
113000,10577,-9809,130747,-11299,-14523,139998,398,19200,1143,1,40986,0.001001999999999989
113999,5601,-9107,131233,4526,-5848,131981,236,19225,1630,1,40987,0.0009989999999999999
114998,13308,9160,133620,13827,8870,128831,236,19207,967,0,40988,0.0009989999999999999
115998,7196,-17673,122052,-5357,-18992,133323,304,19208,1245,0,40989,0.0010000000000000009
116998,17522,17703,128759,10783,19025,106299,300,19206,1229,1,40990,0.0010000000000000009
117998,19582,-5758,118165,24871,-10436,139121,222,19213,909,1,40991,0.0010000000000000009
118998,17739,9601,125157,-16860,9795,105974,339,19213,909,0,40992,0.0010000000000000009
119998,14490,-6618,128217,11336,-4757,140882,310,19202,1388,0,40993,0.0010000000000000009
120998,-2269,-9481,122345,27041,-11022,109237,310,19190,1270,1,40994,0.0010000000000000009
121998,1226,5014,126690,-36724,5930,135400,320,19228,1311,1,40995,0.0010000000000000009
122998,7981,-5244,118920,6871,-7455,103275,243,19200,995,0,40996,0.0010000000000000009
123998,15204,38965,121751,9806,35291,110330,287,19197,1175,0,40997,0.0010000000000000009
124998,9146,-7878,121848,2206,-15704,126374,385,19197,1175,1,40998,0.0010000000000000009
125998,5335,-5708,125262,-14710,-8670,126619,233,19225,1577,1,40999,0.0010000000000000009
126998,7314,-11477,129477,5945,-6105,137168,233,19205,954,0,41000,0.0010000000000000009
127998,-3644,21285,132136,-9889,30829,107352,309,19209,1266,0,41001,0.0010000000000000009
128998,1471,11071,130428,-5790,-12852,145778,297,19214,1216,1,41002,0.0010000000000000009
129998,-1686,-12477,126349,-14925,-617,125274,224,19219,917,1,41003,0.0010000000000000009
130998,13601,13451,134219,-5241,7134,130816,342,19219,917,0,41004,0.0010000000000000009
131998,5973,-5778,131529,9689,2782,133591,303,19205,1401,0,41005,0.0010000000000000009
132998,6020,5208,136816,-17842,-2507,135611,303,19196,1241,1,41006,0.0010000000000000009
134001,5825,-20047,131300,-4797,-16756,149212,290,19226,1188,1,41007,0.0010029999999999761
134998,10642,7794,134755,8646,10513,124930,234,19212,958,0,41008,0.0009970000000000256
135998,11256,-706,129089,2655,-11530,137031,280,19206,1147,0,41009,0.0009999999999999731
136999,7044,-1165,130055,-12100,3649,123811,395,19206,1618,1,41010,0.0010010000000000019
138001,12325,1772,134103,8574,-4358,140488,239,19217,1618,1,41011,0.0010020000000000029
138998,11779,-16302,126878,10316,-8600,129353,307,19206,979,0,41012,0.0009969999999999979
139998,13044,10911,127672,-3341,10830,116602,307,19210,1257,0,41013,0.0010000000000000009
141004,17542,-8860,123440,31673,-12018,134209,299,19205,1225,1,41014,0.0010060000000000069
142000,8979,3502,120824,-9379,2637,116788,222,19219,909,1,41015,0.0009959999999999969
142998,28884,-6171,124881,-15750,-2899,121300,343,19219,1405,0,41016,0.0009979999999999989
144001,7766,10227,126531,49234,8869,116159,300,19207,1405,0,41017,0.0010030000000000039
144998,2967,-3814,124559,-24873,-12678,128199,315,19201,1229,1,41018,0.0009969999999999979
145998,1073,-7135,122223,-19991,-2532,120837,315,19229,1290,1,41019,0.0010000000000000009
146998,8384,14979,122798,27364,13013,118227,232,19205,950,0,41020,0.0010000000000000009
148000,18543,18083,122915,-9764,16190,104786,284,19201,1163,0,41021,0.0010020000000000029
148998,7332,2669,123844,-5216,-5836,123463,367,19201,1503,1,41022,0.0009979999999999989
149998,6685,-24343,125534,-1767,-22355,141825,247,19224,1503,1,41023,0.0010000000000000009
151000,4309,12346,127674,-1846,17680,112312,317,19205,1012,0,41024,0.0010020000000000029
151998,-9159,19515,133638,-18319,12300,126857,317,19209,1298,0,41025,0.0009979999999999989
152998,5151,4787,129658,-25925,-1011,128460,289,19211,1184,1,41026,0.0010000000000000009
154000,3799,-5186,130026,14350,-8458,138416,209,19220,856,1,41027,0.0010020000000000029
154998,11730,-1929,132029,-8439,-704,131712,341,19204,1397,0,41028,0.0009979999999999989
155998,5572,1239,132420,-9230,546,124151,303,19204,1397,0,41029,0.0010000000000000009
156998,3476,1585,135462,-1185,1493,143591,256,19199,1241,1,41030,0.0010000000000000009
157998,14425,-206,134006,-10881,-993,136490,256,19228,1049,1,41031,0.0010000000000000009
158998,4397,-2806,131402,10014,-5421,133830,221,19208,905,0,41032,0.0010000000000000009
159998,9181,-1801,130083,-3414,-5160,133920,273,19204,1118,0,41033,0.0010000000000000009
161005,9207,-15433,127500,-5872,-15478,131624,388,19226,1589,1,41034,0.0010069999999999801
161998,14810,6984,134967,12719,8619,132529,227,19226,1589,1,41035,0.0009930000000000216
162998,14892,-1095,128942,6145,-1999,130398,319,19209,930,0,41036,0.0010000000000000009
163998,7197,-9072,122727,-9074,-8967,124863,319,19210,1307,0,41037,0.0010000000000000009
165000,17138,11530,128036,24044,10171,132178,293,19203,1200,1,41038,0.0010019999999999751
166000,13075,-13654,113203,15784,-17058,117569,204,19219,836,1,41039,0.0010000000000000009
166998,19394,8424,126607,-28718,9733,110847,335,19205,1372,0,41040,0.0009979999999999989
167998,13256,-2214,122909,29763,-2451,127829,303,19205,1372,0,41041,0.0010000000000000009
168998,1133,5027,124304,16286,5467,112551,309,19197,1241,1,41042,0.0010000000000000009
169998,3027,-7555,122838,-37060,-7908,137779,309,19227,1266,1,41043,0.0010000000000000009
170998,7801,-3337,119647,12601,-6133,101787,235,19207,962,0,41044,0.0010000000000000009
171998,15116,39452,124185,8548,15851,114741,284,19209,1163,0,41045,0.0010000000000000009
172998,5243,-6732,124010,-3633,-15220,127486,380,19224,1556,1,41046,0.0010000000000000009
173998,6812,-11256,123978,-13466,-11841,132063,248,19224,1556,1,41047,0.0010000000000000009
174998,2326,-3308,131132,2706,9774,125754,332,19202,1016,0,41048,0.0010000000000000009
175998,2155,28844,131245,-14302,25922,112035,332,19211,1360,1,41049,0.0010000000000000009
176999,1082,-1349,129045,-4613,-16931,147408,299,19203,1225,1,41050,0.0010010000000000019
177998,1942,-9852,126892,-18178,645,124668,211,19217,864,1,41051,0.0009989999999999999
178998,15170,3673,132102,2160,1944,131775,328,19207,1343,0,41052,0.0010000000000000009
179998,2874,3292,133860,8056,4407,131299,304,19207,1343,0,41053,0.0010000000000000009
181000,6153,-549,134560,-22967,-10810,140521,282,19199,1245,1,41054,0.0010020000000000029
181998,7189,-12467,131921,-4344,-1809,140576,282,19228,1155,1,41055,0.0009979999999999989
182998,13390,13812,131611,10366,8507,127301,224,19202,917,0,41056,0.0010000000000000009
183999,9000,-7723,127516,2705,-13388,135298,278,19208,1139,0,41057,0.0010010000000000019
184998,8415,-4531,131701,-10648,-306,128244,385,19226,1577,1,41058,0.0009989999999999999
186000,16324,-6211,132392,7505,-9285,142226,229,19226,938,1,41059,0.0010020000000000029
186998,12108,-6339,125880,5456,-2109,126652,315,19209,938,0,41060,0.0009979999999999989
187998,9123,2132,124139,1829,6407,114897,290,19207,1290,0,41061,0.0010000000000000009
188998,17099,7408,121997,16431,-17,131363,290,19200,1188,1,41062,0.0010000000000000009
189999,11052,-10381,118391,2958,-9363,121024,208,19220,852,1,41063,0.0010010000000000019
190998,22851,619,126214,-14678,5001,117673,329,19206,1347,0,41064,0.0009989999999999999
191998,14194,4830,124301,42280,4367,120765,306,19206,1253,0,41065,0.0010000000000000009
192998,-5052,3731,125015,-19018,-2335,121721,344,19202,1253,1,41066,0.0010000000000000009
193998,8105,-10415,122318,-29187,-10774,130609,233,19227,1409,1,41067,0.0010000000000000009
194998,7428,6176,121084,35952,13025,111914,233,19201,954,0,41068,0.0010000000000000009
195998,13275,32654,125747,-14105,26822,105567,280,19202,1147,1,41069,0.0009999999999999731
196998,12399,-10628,121866,-17516,-16959,127044,385,19226,1577,1,41070,0.0010000000000000009
197998,919,-15164,123756,22117,-13907,137370,240,19205,983,1,41071,0.0010000000000000009
199002,4229,8049,130038,-24358,8464,121292,320,19205,983,0,41072,0.0010040000000000049
199998,-776,24419,131443,-19387,23959,114163,290,19206,1311,1,41073,0.0009959999999999969
200998,2074,2841,131287,10351,-6116,142691,290,19207,1188,1,41074,0.0010000000000000009
201998,4089,-11921,126329,-16861,-9944,131548,205,19218,840,0,41075,0.0010000000000000009
202998,10839,9560,134881,-17554,9723,124056,318,19203,1302,0,41076,0.0010000000000000009
203998,3632,-634,132821,20044,-3731,137373,305,19199,1249,0,41077,0.0010000000000000009
204998,6903,-4233,134164,-20405,-4148,135347,289,19199,1249,1,41078,0.0010000000000000009
205998,8749,-5165,134478,-11228,-6021,140892,223,19222,1184,0,41079,0.0010000000000000009
206998,7174,4998,130230,14168,393,132317,223,19204,913,0,41080,0.0010000000000000009
207998,10526,-2931,129597,-8807,-4836,130053,275,19203,1126,0,41081,0.0010000000000000009
208998,9375,-5935,131330,-1230,-5653,133764,369,19214,1511,1,41082,0.0010000000000000009
209998,14339,-5755,129506,12263,-5322,133282,228,19218,934,1,41083,0.0010000000000000009
210998,13512,3217,127786,-3289,2241,127478,311,19218,934,0,41084,0.0010000000000000009
211998,9020,-8137,122619,6000,-9288,127112,291,19205,1274,1,41085,0.0010000000000000009
212998,16517,2947,122659,13372,1389,122604,291,19203,1192,1,41086,0.0010000000000000009
213998,11784,-7078,121848,9207,-8064,125398,214,19217,876,0,41087,0.0010000000000000009
214998,20409,-582,122869,-19078,426,117249,322,19206,1319,0,41088,0.0010000000000000009
215998,12060,178,123073,28035,-705,124118,304,19201,1245,0,41089,0.0010000000000000009
216998,-4539,5162,124299,12791,4057,118045,351,19201,1245,1,41090,0.0010000000000000009
217998,9734,-6149,121130,-42507,-4995,124912,226,19224,1438,0,41091,0.0010000000000000009
218998,7852,8580,120509,18536,15777,111070,226,19198,926,0,41092,0.0010000000000000009
219999,16350,23749,122618,12585,11239,112958,281,19209,1151,1,41093,0.0010010000000000019
220998,4577,-8799,121905,-11923,-9712,126338,379,19220,1552,1,41094,0.0009989999999999999
221998,5199,-6287,126344,-10753,-8055,132860,235,19210,962,1,41095,0.0010000000000000009
222998,6790,994,129911,2832,11998,121386,336,19210,962,0,41096,0.0010000000000000009
224000,-2648,26647,131458,-13317,18214,120218,284,19209,1376,1,41097,0.0010019999999999751
225000,1903,-4028,129284,-11299,-17491,141145,284,19204,1163,1,41098,0.0010000000000000009
225998,864,-6414,127574,-8194,-1146,127604,204,19218,836,0,41099,0.0009979999999999989
226998,14691,10033,135921,-840,5041,132162,311,19202,1274,0,41100,0.0010000000000000009
227998,3214,2423,131458,8305,588,130866,304,19201,1245,1,41101,0.0010000000000000009
228998,4527,-2666,137420,-27180,-7222,142706,320,19201,1311,1,41102,0.0010000000000000009
229998,10927,-9957,131131,2704,-5158,137549,214,19228,1311,0,41103,0.0010000000000000009
230998,12706,7619,131894,10642,6026,129374,269,19203,876,0,41104,0.0010000000000000009
232001,10142,-5718,129603,-1586,-10272,134804,269,19202,1102,1,41105,0.0010030000000000039
233000,6779,-11378,131581,-6999,-8385,129095,361,19210,1479,1,41106,0.0009989999999999999
234000,15616,-375,132449,11163,-3215,139336,229,19213,938,0,41107,0.0010000000000000009
234998,10815,-5548,127490,2756,-7620,128226,315,19213,1290,0,41108,0.0009979999999999989
236000,11012,-2485,121441,-1077,9112,114323,284,19205,1290,1,41109,0.0010020000000000029
237000,18943,10615,122702,22656,1978,130526,195,19196,1163,1,41110,0.0010000000000000009
237999,8137,-16646,116066,3677,-12276,121762,195,19216,799,0,41111,0.0009989999999999999
238998,21501,7324,127781,-21588,10584,114748,305,19197,1249,0,41112,0.0009989999999999999
239999,11692,-5162,121576,45082,-44,126519,304,19198,1245,0,41113,0.0010010000000000019
240998,-2742,5142,124135,-20962,1250,115044,372,19198,1524,1,41114,0.0009989999999999999
241998,9512,-10695,121462,-25794,-13045,134257,222,19224,1524,0,41115,0.0010000000000000009
242998,4995,7584,118522,27733,14055,108653,269,19203,909,0,41116,0.0010000000000000009
243998,14970,35146,125965,-11767,29774,103831,269,19202,1102,1,41117,0.0010000000000000009
244998,9169,-12825,121921,-6393,-18297,131991,362,19218,1483,1,41118,0.0010000000000000009
245999,2129,-10919,124345,5207,-8538,133468,233,19214,954,0,41119,0.0010010000000000019
246998,2630,5336,128674,-22640,6971,127221,347,19210,1421,0,41120,0.0009989999999999999
247999,-2487,29291,132127,-8302,28706,110077,285,19210,1421,1,41121,0.0010010000000000019
249000,3877,-7292,129470,879,-16000,146990,221,19205,1167,1,41122,0.0010010000000000019
249998,1459,-11503,128948,-17554,-6591,129087,221,19219,905,0,41123,0.0009979999999999989
250998,12015,11869,135294,-8752,10939,125269,312,19203,1278,0,41124,0.0010000000000000009
251998,3848,834,130998,15080,-634,135032,305,19197,1249,1,41125,0.0010000000000000009
252998,5154,1036,136100,-22817,-2877,134692,339,19228,1388,1,41126,0.0010000000000000009
253998,9980,-13644,133031,-4617,-12309,148332,216,19228,1388,0,41127,0.0010000000000000009
254998,11089,11697,132594,13693,9009,124597,266,19201,885,0,41128,0.0010000000000000009
255998,10662,-9067,129019,-3369,-11029,136032,266,19205,1089,1,41129,0.0010000000000000009
256998,7745,-1806,131637,-5725,-1112,128458,349,19203,1429,1,41130,0.0010000000000000009
258000,14744,-4523,128601,8922,-6333,136161,241,19213,987,0,41131,0.0010020000000000029
258999,11261,-1410,127605,-414,-1779,128230,324,19205,1327,0,41132,0.0009989999999999721
259998,10753,-4685,120988,5540,-7363,121742,281,19205,1327,1,41133,0.0009990000000000276
260998,15618,788,123250,18420,-154,127924,189,19195,1151,1,41134,0.0010000000000000009
261998,13951,313,121673,2211,-344,122460,189,19224,774,0,41135,0.0010000000000000009
262998,22282,-7667,126751,-15661,-5853,120154,292,19197,1196,0,41136,0.0010000000000000009
263998,9160,8189,122635,32817,6109,120163,303,19205,1241,1,41137,0.0010000000000000009
265001,-5110,-643,123593,4393,-1361,122992,388,19227,1589,1,41138,0.0010029999999999761
266000,8422,476,120930,-43086,5304,117378,216,19227,885,0,41139,0.0009990000000000276
267001,10389,3394,119089,19710,8124,120068,269,19203,885,0,41140,0.0010009999999999741
267999,12840,17426,123155,13213,16531,105869,269,19200,1102,1,41141,0.0009979999999999989
268998,6525,-4224,122836,-16899,-15791,132481,350,19211,1433,1,41142,0.0009990000000000276
269999,5073,-12891,123296,-6020,-2125,130260,232,19213,950,0,41143,0.0010009999999999741
270998,5889,13685,130363,-6419,15150,119205,352,19209,1442,0,41144,0.0009989999999999721
271999,-2075,16885,130144,-12524,12262,124755,280,19209,1147,1,41145,0.0010010000000000296
272998,-101,4038,128779,-11087,-12246,135112,190,19200,1147,1,41146,0.0009989999999999721
273998,3792,-10576,129127,-5500,-4859,134203,289,19218,778,0,41147,0.0010000000000000009
274998,13303,9276,134600,-58,13888,124494,289,19196,1184,0,41148,0.0010000000000000009
275998,5785,2510,132858,6020,-5363,136198,304,19203,1245,1,41149,0.0010000000000000009
277000,3699,-4771,135182,-24448,-4194,138187,359,19225,1470,1,41150,0.0010020000000000029
277999,11385,-5353,133514,3365,-5360,139887,219,19225,897,0,41151,0.0009990000000000276
279000,10966,3925,130462,11962,3420,129514,258,19204,897,0,41152,0.0010009999999999741
279998,9230,1962,131809,-4077,-8559,130173,345,19208,1057,1,41153,0.0009979999999999989
280998,5509,-12262,131145,-10074,-11058,134800,345,19206,1413,1,41154,0.0010000000000000009
281998,16950,-312,130253,12299,-1158,134219,226,19213,926,0,41155,0.0010000000000000009
282999,10398,-2779,129069,6736,-7334,131570,323,19210,1323,0,41156,0.0010010000000000296
283998,12316,-429,120983,-2399,10211,109142,276,19210,1130,1,41157,0.0009989999999999721
285001,17675,12260,123677,23715,2493,130293,194,19195,1130,1,41158,0.0010030000000000316
286000,9057,-20453,118724,1939,-15133,124185,287,19220,795,0,41159,0.0009989999999999721
286998,22022,3755,128038,-16589,3541,115071,287,19194,1175,0,41160,0.0009979999999999989
287998,5438,-4240,122982,46114,-3514,127312,302,19200,1237,1,41161,0.0010000000000000009
288998,-2022,7228,125320,-29252,4660,111910,409,19226,1675,1,41162,0.0010000000000000009
289998,9652,-10182,119293,-15007,-12357,137612,218,19226,893,0,41163,0.0010000000000000009
290998,4180,8290,120207,19253,14992,106652,258,19205,893,0,41164,0.0010000000000000009
291998,17051,33271,123479,-7318,26904,104727,346,19201,1057,1,41165,0.0010000000000000009
292998,1563,-12691,123581,-3916,-15924,131809,346,19216,1417,1,41166,0.0010000000000000009
293998,8441,-14876,123742,-690,-8299,132574,232,19214,950,0,41167,0.0010000000000000009
294998,-617,3205,128706,-14260,5039,127155,333,19209,1364,0,41168,0.0010000000000000009
295998,602,28011,131615,-9393,28721,111979,278,19201,1139,1,41169,0.0010000000000000009
296998,3205,-6876,128501,-2505,-16794,145230,185,19201,1139,1,41170,0.0010000000000000009
297998,1806,-5625,129910,-14548,-1960,127769,285,19221,758,0,41171,0.0010000000000000009
298998,12814,7744,136591,-6817,7787,128897,285,19197,1167,0,41172,0.0010000000000000009
299998,-997,2627,131013,13166,3352,132042,302,19200,1237,1,41173,0.0010000000000000009
300998,6249,2724,134950,-28288,-2338,139457,322,19227,1319,1,41174,0.0010000000000000009
301999,7035,-11737,132266,582,-9997,142405,211,19207,864,0,41175,0.0010009999999999741
303000,11599,13056,132985,7702,10102,125689,255,19207,864,0,41176,0.0010010000000000296
303998,9368,-13838,132474,963,-13866,135688,338,19207,1044,1,41177,0.0009979999999999989
304998,8157,-517,131977,-4782,210,127580,338,19204,1384,1,41178,0.0010000000000000009
305998,17004,-8687,126952,6731,-11432,141118,228,19219,934,0,41179,0.0010000000000000009
306998,7739,2994,127478,1471,3011,121407,335,19209,1372,0,41180,0.0010000000000000009
307998,13573,421,125058,4923,-828,125364,282,19191,1155,1,41181,0.0010000000000000009
308998,12068,1013,122588,17176,-906,121179,207,19191,1155,1,41182,0.0010000000000000009
309998,18778,-2394,126113,-3371,-391,124192,288,19223,848,0,41183,0.0010000000000000009
310998,21349,-3311,124119,-6706,-3001,114525,288,19198,1180,0,41184,0.0010000000000000009
311998,5356,7366,123140,35072,6647,125094,304,19202,1245,1,41185,0.0010000000000000009
312998,-2685,-8607,122070,-12609,-4583,123085,423,19229,1732,1,41186,0.0010000000000000009
313998,7550,-1120,118761,-28148,8549,119130,219,19204,897,0,41187,0.0010000000000000009
314998,12776,9488,120906,20273,14986,115233,260,19204,897,0,41188,0.0010000000000000009
315998,8006,17587,120261,9354,8994,107210,340,19204,1065,1,41189,0.0010000000000000009
316998,3300,-9260,123896,-19852,-15094,136705,340,19205,1393,1,41190,0.0010000000000000009
318000,9650,-9487,123223,6266,1211,124911,236,19217,967,0,41191,0.0010020000000000029
318998,2121,16212,130269,-10672,16398,120883,365,19208,1495,0,41192,0.0009979999999999989
319998,1637,14760,130379,-12692,9510,126357,283,19195,1159,1,41193,0.0010000000000000009
320998,-3679,59,127215,-6174,-10556,136951,182,19195,745,1,41194,0.0010000000000000009
321998,6808,-8147,130111,-9487,-2294,133556,279,19224,745,0,41195,0.0010000000000000009
322998,9992,6822,136167,3780,7580,126225,300,19201,1143,0,41196,0.0010000000000000009
324002,6167,13,131659,3237,-4215,139607,300,19202,1229,1,41197,0.0010040000000000049
325000,3750,-4222,134430,-20176,-3902,134970,379,19227,1552,1,41198,0.0009979999999999989
325998,10425,-1822,131948,4476,-1434,138011,207,19213,848,0,41199,0.0009979999999999989
326998,12562,6569,132288,10695,-1111,129634,285,19213,1167,0,41200,0.0010000000000000009
327998,8378,-316,131215,-2217,-4554,130343,331,19209,1167,1,41201,0.0010000000000000009
328998,7442,-8010,131841,-7776,-5551,133186,224,19200,1356,1,41202,0.0010000000000000009
329998,16046,-1692,129168,15058,-2490,133681,224,19215,917,0,41203,0.0009999999999999454
331000,10278,-7754,127493,2997,-11373,131074,332,19212,1360,0,41204,0.0010020000000000029
331998,14564,8086,125699,6041,18261,106329,275,19194,1126,1,41205,0.0009979999999999989
332998,15537,6357,122522,22157,-7617,135706,219,19194,897,1,41206,0.0010000000000000009
333998,13169,-18501,123108,-10543,-10160,117259,280,19226,897,0,41207,0.0010000000000000009
334998,20155,8347,127074,2390,3175,117627,304,19197,1147,0,41208,0.0010000000000000009
335999,4895,-2802,123101,35350,979,123464,304,19199,1245,1,41209,0.0010010000000000296
336998,-2158,10316,126355,-37631,4213,113600,415,19226,1700,1,41210,0.0009989999999999721
337998,10874,-18449,118030,3905,-19915,138850,213,19210,872,0,41211,0.0010000000000000009
338998,5643,23531,120959,11725,28797,97355,269,19204,1102,0,41212,0.0010000000000000009
339998,15391,20741,126860,-7933,13416,113940,336,19204,1102,1,41213,0.0010000000000000009
340998,-818,-19460,122172,-2878,-20316,131592,233,19213,1376,1,41214,0.0010000000000000009
341998,7963,-11278,127894,-1537,-9326,135397,233,19214,954,0,41215,0.0010000000000000009
342998,-1984,10525,128727,-17392,13511,119391,348,19205,1425,0,41216,0.0010000000000000009
343998,859,29454,132028,-2621,26250,117214,277,19197,1135,1,41217,0.0010000000000000009
344998,257,-19117,127012,-7580,-24450,147764,184,19224,754,1,41218,0.0010000000000000009
345998,8828,5201,130216,-15152,7783,120630,268,19224,754,0,41219,0.0010000000000000009
346998,9280,4255,135120,5344,2495,133873,301,19199,1098,0,41220,0.0010000000000000009
348002,1433,3661,132520,4364,5782,128496,301,19203,1233,1,41221,0.0010040000000000049
348998,4765,-9941,134957,-25607,-13370,146573,362,19229,1483,1,41222,0.0009959999999999969
349998,8965,-2940,132383,9120,-921,136801,207,19207,848,0,41223,0.0010000000000000009
350998,11395,10382,132671,5843,7029,128448,272,19208,1114,0,41224,0.0010000000000000009
351998,8756,-12320,130642,-2533,-12962,133576,319,19208,1114,1,41225,0.0010000000000000009
352998,8138,4300,134102,-755,5050,125941,224,19199,1307,1,41226,0.0010000000000000009
353999,17189,-10291,126225,6473,-11901,143369,224,19216,917,0,41227,0.0010010000000000296
355000,6267,8574,128357,-1252,8281,116439,344,19207,1409,0,41228,0.0010009999999999741
355998,16415,-4291,124531,11589,-4281,129226,281,19205,1151,1,41229,0.0009979999999999989
356998,11218,5381,124053,17288,3772,119900,230,19224,942,1,41230,0.0010000000000000009
357998,19630,-7843,126092,-12025,-6104,126437,266,19224,942,0,41231,0.0010000000000000009
358998,18182,-1591,124947,2085,-328,110745,296,19197,1089,0,41232,0.0010000000000000009
360000,4994,8427,123131,37377,-2398,128168,296,19200,1212,1,41233,0.0010020000000000029
360998,-3079,-12396,121059,-23042,-6929,120260,402,19224,1646,1,41234,0.0009979999999999989
361998,6156,5591,119933,-24413,7795,119415,214,19209,876,0,41235,0.0010000000000000009
362998,11940,12142,121759,19141,16624,111771,282,19204,1155,0,41236,0.0010000000000000009
363998,9201,19462,125505,8627,8611,111157,331,19204,1356,1,41237,0.0010000000000000009
364998,4795,-20053,122037,-10066,-24706,141459,228,19206,1356,1,41238,0.0010000000000000009
365998,8019,-6270,126099,498,12682,118223,347,19217,934,0,41239,0.0010000000000000009
366999,1392,20812,131406,-10268,16387,123719,347,19211,1421,0,41240,0.0010009999999999741
367998,2464,7591,130090,-14791,8965,128225,277,19196,1135,1,41241,0.0009990000000000276
368998,-1954,-7012,127640,-6083,-14788,138963,223,19220,913,1,41242,0.0010000000000000009
369998,7729,-8347,129108,-6418,1058,128991,274,19220,1122,0,41243,0.0010000000000000009
370998,9068,16314,133845,-1072,12872,124377,301,19196,1122,0,41244,0.0010000000000000009
371998,5964,-4072,132979,1613,-8730,142174,379,19206,1233,1,41245,0.0010000000000000009
373000,3389,-2402,133637,-13854,-2020,135353,379,19227,1552,1,41246,0.0010020000000000029
373998,11083,-4315,134094,3822,-4816,138747,210,19210,860,0,41247,0.0009979999999999989
375000,7168,3169,130007,8358,2024,128162,280,19207,1147,0,41248,0.0010020000000000029
376000,8950,390,131668,-7474,-6974,134044,320,19207,1311,1,41249,0.0010000000000000009
377000,6684,-10214,131326,-1611,-1903,130861,234,19194,1311,1,41250,0.0010000000000000009
377998,17917,4528,130962,17200,2220,130568,343,19217,958,0,41251,0.0009979999999999989
378998,6458,-14363,125316,350,-18279,133531,343,19206,1405,0,41252,0.0010000000000000009
379998,14873,9237,126085,5869,19942,107387,282,19201,1155,1,41253,0.0010000000000000009
380998,14912,3027,121898,24412,-18244,140142,262,19220,1073,1,41254,0.0010000000000000009
381998,16201,-7019,125652,-14776,7726,108343,271,19199,1110,0,41255,0.0010000000000000009
382998,19515,8660,130024,11800,-2008,123814,299,19199,1110,0,41256,0.0010000000000000009
383998,1933,-11305,119721,28518,-5808,125089,393,19204,1225,1,41257,0.0010000000000000009
384998,-2007,13098,127944,-39577,5936,112386,393,19227,1610,1,41258,0.0010000000000000009
385998,10689,-19636,116610,9466,-18131,135999,216,19213,885,0,41259,0.0010000000000000009
386998,9575,37048,124670,8454,38948,92113,288,19205,1180,0,41260,0.0010000000000000009
387998,12402,2351,124864,2320,-8909,128049,324,19208,1327,1,41261,0.0010000000000000009
388999,1308,-13121,121169,-13648,-9810,122874,235,19208,1327,1,41262,0.0010009999999999741
389998,9237,-3764,130036,1615,-5631,135367,335,19217,962,0,41263,0.0009989999999999721
390998,-3625,11148,128271,-10309,16736,116921,335,19205,1372,0,41264,0.0010000000000000009
391998,3988,27307,133641,-10126,20416,120340,281,19201,1151,1,41265,0.0010000000000000009
392998,-4495,-23708,125557,-7148,-26856,149274,224,19223,917,1,41266,0.0010000000000000009
394001,10905,14710,133332,-13043,16412,114728,260,19193,1065,0,41267,0.0010030000000000316
394999,6526,-8173,132948,7894,-9135,140852,294,19193,1065,0,41268,0.0009979999999999989
395998,4342,6908,135687,-4592,7607,123475,372,19201,1204,1,41269,0.0009989999999999721
396998,4997,-15149,133308,-16792,-17313,150571,372,19226,1524,1,41270,0.0010000000000000009
397998,9539,5302,134963,9030,6714,130875,201,19210,823,0,41271,0.0010000000000000009
398998,10741,4008,129664,5545,-904,131026,284,19200,1163,0,41272,0.0010000000000000009
400001,5496,-9876,130568,-3813,-10802,133866,319,19191,1307,1,41273,0.0010030000000000316
401026,11581,6103,133369,-4162,7243,140337,218,19191,893,1,41274,0.0010249999999999981
401998,15455,-16117,127056,15471,-16354,146651,317,19223,893,0,41275,0.0009719999999999729
402998,7697,10709,128900,-5858,10193,117933,317,19208,1298,0,41276,0.0010000000000000009
403998,20038,-4659,126625,16822,-3534,131027,273,19204,1118,1,41277,0.0010000000000000009
404998,7840,3226,121709,20931,-151,119523,266,19224,1089,1,41278,0.0010000000000000009
405998,22562,-10344,123537,-19924,-9628,124239,256,19194,1049,0,41279,0.0010000000000000009
407001,11113,8659,126131,15031,12952,111800,299,19194,1225,0,41280,0.0010030000000000316
408000,6043,2240,123914,27349,-16541,130257,378,19205,1225,1,41281,0.0009989999999999721
408998,-533,-7088,123090,-32173,-3277,119855,208,19214,1548,1,41282,0.0009979999999999989
410001,5814,6528,121113,5737,5587,121536,208,19217,852,0,41283,0.0010030000000000316
411000,14594,21425,125067,5830,27428,99418,291,19203,1192,0,41284,0.0009989999999999721
411998,10357,17289,126717,-278,-8386,126491,324,19206,1327,1,41285,0.0009979999999999989
412998,6236,-32182,124224,-607,-25478,139864,228,19206,934,1,41286,0.0010000000000000009
413998,5159,5146,128523,-9546,16687,116041,326,19216,934,0,41287,0.0010000000000000009
414998,-1489,14687,132253,-13852,11653,126256,275,19204,1335,0,41288,0.0010000000000000009
415998,2291,17618,131371,-8089,8349,125140,275,19207,1126,1,41289,0.0010000000000000009
416998,1780,-9595,129899,-6797,-18504,143829,235,19229,962,1,41290,0.0010000000000000009
417998,7198,-2660,131529,-13711,8277,124084,251,19197,1028,0,41291,0.0010000000000000009
418999,7301,4973,133319,9781,-84,133900,295,19197,1208,0,41292,0.0010009999999999741
419999,2773,-7221,131736,-5661,-1367,135829,371,19202,1208,1,41293,0.0010000000000000009
420998,5773,7538,134928,-20209,842,135506,204,19219,1520,1,41294,0.0009990000000000276
422000,15400,-9202,133374,13628,578,137223,204,19216,836,0,41295,0.0010020000000000029
422999,11944,5541,131039,10565,34,125380,289,19203,1184,0,41296,0.0009989999999999721
423998,6113,-13328,129408,-11532,-17188,139937,312,19189,1278,1,41297,0.0009990000000000276
424998,6674,-6986,130300,786,-1919,131172,214,19223,876,1,41298,0.0010000000000000009
425999,13083,3082,131959,17864,2241,133125,308,19223,876,0,41299,0.0010009999999999741
426998,7329,1489,127240,-8834,-1106,123447,280,19199,1261,0,41300,0.0009990000000000276
428000,16551,2205,126239,5621,7795,112211,280,19208,1147,1,41301,0.0010020000000000029
428998,16803,5158,119822,37672,-5289,135805,286,19219,1171,1,41302,0.0009979999999999989
429998,13636,-16506,121489,-19704,-7606,113638,260,19195,1065,0,41303,0.0010000000000000009
430998,19810,11146,128187,-5985,11958,115826,295,19206,1208,0,41304,0.0010000000000000009
431998,2942,-2842,126029,48345,-2214,128528,372,19206,1208,1,41305,0.0010000000000000009
432998,-3413,5856,125495,-37861,1718,113529,216,19209,1524,1,41306,0.0010000000000000009
433998,6631,-16236,121523,-4096,-17157,135396,216,19214,885,0,41307,0.0010000000000000009
434998,5463,24844,122192,16077,26072,98207,304,19202,1245,0,41308,0.0010000000000000009
435998,16285,27247,128427,-1135,21175,112693,316,19197,1294,1,41309,0.0010000000000000009
436998,2978,-13354,125545,-9250,-12889,131629,220,19220,901,1,41310,0.0010000000000000009
437998,7963,-13374,128146,8,-13608,134087,310,19220,901,0,41311,0.0010000000000000009
438998,-5400,8575,131865,-11521,11443,123121,283,19198,1270,0,41312,0.0010000000000000009
439998,5791,22030,133824,-10331,18514,118058,283,19206,1159,1,41313,0.0010000000000000009
440998,-964,-13140,127444,708,-17142,144616,252,19223,1032,1,41314,0.0010000000000000009
442004,10162,2043,131142,-19652,2338,123308,248,19199,1016,0,41315,0.0010059999999999514
443000,11941,2936,133972,7008,2851,131706,291,19201,1192,0,41316,0.0009960000000000524
443998,1495,7502,133302,8988,6857,131121,363,19201,1192,1,41317,0.0009979999999999989
444998,6837,-13002,134356,-25330,-14332,143045,206,19217,1487,1,41318,0.0010000000000000009
445998,8054,725,133288,6344,797,134988,206,19217,844,0,41319,0.0010000000000000009
446999,13980,2897,131593,11855,-891,132583,293,19208,1200,0,41320,0.0010009999999999741
447999,4916,-5935,128732,1660,-7746,128747,310,19185,1270,1,41321,0.0010000000000000009
448998,9275,845,133746,-13704,3074,127095,212,19219,868,1,41322,0.0009989999999999721
449998,16628,-17669,127420,14106,-18049,126192,303,19219,1241,0,41323,0.0010000000000000009
451000,6613,11941,129993,6117,12353,120249,277,19199,1241,0,41324,0.0010020000000000029
451998,21474,-3488,124372,9051,-3197,128176,277,19203,1135,1,41325,0.0009979999999999989
452998,6595,2461,119928,21407,-2195,119338,279,19228,1143,1,41326,0.0010000000000000009
453998,26114,-10914,122459,-20936,-10075,125752,248,19200,1016,0,41327,0.0010000000000000009
454998,12646,8923,125622,25859,12161,109031,293,19201,1200,0,41328,0.0010000000000000009
455999,1264,3133,124505,18893,-9706,130965,365,19201,1495,1,41329,0.0010010000000000296
456998,2588,-8880,121367,-44251,-1935,116733,210,19210,1495,1,41330,0.0009989999999999721
457999,1934,7264,123459,21210,5199,125271,301,19217,860,0,41331,0.0010010000000000296
459000,16161,15401,123000,-18246,21406,101004,301,19205,1233,0,41332,0.0010009999999999741
459998,8530,17463,126298,918,-1760,122235,314,19197,1286,1,41333,0.0009979999999999989
460998,7401,-27878,124813,4551,-27123,145739,217,19222,889,1,41334,0.0010000000000000009
461998,9355,7176,127829,-14279,15075,108745,307,19222,1257,0,41335,0.0010000000000000009
462998,-7309,20897,132630,-13418,12458,129799,283,19194,1257,0,41336,0.0010000000000000009
463998,6282,10815,130758,-12978,5198,123524,264,19202,1159,1,41337,0.0010000000000000009
464998,1560,-4816,130437,-1037,-10054,141032,264,19223,1081,1,41338,0.0010000000000000009
465998,7628,-6276,132551,-16116,-3152,132586,248,19201,1016,0,41339,0.0010000000000000009
466998,7381,5251,132634,6825,1723,125469,289,19205,1184,0,41340,0.0010000000000000009
467998,472,-2935,135758,-4806,1282,141686,357,19205,1462,1,41341,0.0010000000000000009
468998,12292,-2662,133611,-19110,-7870,135805,206,19215,1462,1,41342,0.0010000000000000009
469998,10226,1275,131683,15904,2745,134343,282,19220,844,0,41343,0.0010000000000000009
471000,12381,7315,132507,-1025,-1807,130838,282,19206,1155,0,41344,0.0010020000000000029
471998,6329,-17903,125579,-3049,-16070,133123,302,19187,1237,1,41345,0.0009979999999999989
472998,8407,-3273,135039,2160,1280,136758,200,19224,819,1,41346,0.0010000000000000009
473998,14728,-1443,128635,8674,-4331,132245,288,19205,1180,0,41347,0.0010000000000000009
474998,6825,-479,126019,-2729,-2212,119638,277,19205,1180,0,41348,0.0010000000000000009
475998,18695,4188,126736,11319,13248,116555,280,19205,1135,1,41349,0.0010000000000000009
476998,14726,-1098,118190,29614,-12556,131907,280,19224,1147,1,41350,0.0010000000000000009
477998,15292,-12509,123203,-20926,-4805,118128,240,19197,983,0,41351,0.0010000000000000009
478998,20436,8245,127842,6163,6176,116912,284,19205,1163,0,41352,0.0010000000000000009
479998,-634,2014,124016,34474,3479,123259,352,19204,1442,1,41353,0.0010000000000000009
480998,-689,4046,128140,-37172,-1920,119719,208,19204,1442,1,41354,0.0010000000000000009
481998,5396,-17259,117655,2510,-13904,130044,306,19224,852,0,41355,0.0010000000000000009
482998,12866,34429,122401,10758,37036,97313,306,19204,1253,0,41356,0.0010000000000000009
483998,12794,19170,126410,3052,11801,116336,313,19189,1282,1,41357,0.0010000000000000009
484998,4815,-18732,122879,-13937,-17738,133366,207,19220,848,1,41358,0.0010000000000000009
485998,4546,-9299,131464,-3092,-8147,132172,294,19197,1204,0,41359,0.0010000000000000009
486998,-3271,14725,133017,-8182,17611,119779,279,19197,1204,0,41360,0.0010000000000000009
487998,5765,17521,133751,-6899,11786,123927,280,19209,1143,1,41361,0.0010000000000000009
488999,-3942,-12272,127202,-6754,-17040,142880,280,19218,1147,1,41362,0.0010009999999999741
490000,11575,7375,133252,-21239,9163,122140,256,19196,1049,0,41363,0.0010010000000000296
491000,7655,8719,135121,12396,8830,130403,289,19203,1184,0,41364,0.0010000000000000009
491998,5543,-2630,137534,730,-3249,135811,352,19215,1442,1,41365,0.0009979999999999989
492999,7797,-14196,131701,-18171,-15072,143642,209,19215,1442,1,41366,0.0010009999999999741
493998,8690,3463,135546,6046,2338,133424,281,19225,856,0,41367,0.0009990000000000276
494998,14974,2261,128376,10547,-1090,132245,281,19204,1151,0,41368,0.0010000000000000009
495998,5007,-9679,129866,306,-11054,129315,300,19189,1229,1,41369,0.0010000000000000009
496998,12946,1983,135517,-11974,4031,131391,220,19216,901,1,41370,0.0010000000000000009
497999,13683,-14734,126482,17305,-13445,127941,294,19198,1204,0,41371,0.0010009999999999741
498998,9679,5556,127077,6545,4305,117037,278,19198,1204,0,41372,0.0009990000000000276
499998,20141,2813,122801,10472,2416,130717,287,19204,1139,1,41373,0.0010000000000000009
500998,7141,-5059,118726,19216,-10365,118838,287,19227,1175,1,41374,0.0009999999999999454
502000,28890,-3377,125010,-23684,-4069,123009,239,19199,979,0,41375,0.0010020000000000584
503000,13334,467,124354,33999,6137,117991,277,19206,1135,0,41376,0.0010000000000000009
503998,-4318,8840,125927,16926,-1887,122844,346,19206,1417,1,41377,0.0009979999999999434
504998,4275,-12337,122535,-50822,-9049,125884,209,19206,856,1,41378,0.0010000000000000009
505998,5084,10374,122313,28587,15722,117086,308,19221,856,0,41379,0.0010000000000000009
506998,18316,19628,124232,-17199,12939,106246,307,19201,1261,0,41380,0.0010000000000000009
507998,8714,3013,121610,-13233,-6604,123368,307,19186,1257,1,41381,0.0010000000000000009
508998,6328,-19633,127990,13842,-22464,144014,201,19218,823,1,41382,0.0010000000000000009
510000,2320,3648,125693,-9418,20163,113171,286,19192,1171,0,41383,0.0010020000000000584
510998,-7975,30080,134418,-33325,21631,121025,279,19192,1143,0,41384,0.0009979999999999434
511998,4773,1039,128576,4160,-7930,134809,268,19209,1143,1,41385,0.0010000000000000009
512998,3220,-3212,129231,-305,-5784,134389,240,19229,1098,1,41386,0.0010000000000000009
513998,14634,-5689,133691,-20150,-3939,131695,240,19191,983,0,41387,0.0010000000000000009
514998,3395,3789,134159,14573,3675,125660,278,19202,1139,0,41388,0.0010000000000000009
515998,5482,690,137222,-14234,-8277,145465,339,19205,1388,1,41389,0.0010000000000000009
516999,7866,-2232,134515,-16466,-2391,132556,216,19220,885,1,41390,0.0010010000000000296
517998,6601,7399,133878,17016,4268,132997,289,19220,885,0,41391,0.0009989999999999721
518999,11777,-6000,128021,-3881,-9164,133306,301,19205,1184,0,41392,0.0010010000000000296
520000,10199,-4472,130337,-8301,-3166,127016,301,19185,1233,1,41393,0.0010010000000000296
521000,14984,-7139,133020,16961,-9427,141794,221,19221,905,1,41394,0.0010000000000000009
522000,12911,629,129712,-1094,4352,121745,280,19198,1147,0,41395,0.0010000000000000009
522998,8427,-7015,123940,-4633,-11113,128694,272,19207,1114,0,41396,0.0009979999999999434
523998,14181,5086,126815,25782,4786,123103,304,19207,1114,1,41397,0.0010000000000000009
524998,14023,-8017,115192,3155,-13377,125256,242,19223,1245,1,41398,0.0010000000000000009
525999,18251,3911,125258,-21622,9066,116991,242,19200,991,0,41399,0.0010010000000000296
526998,14646,252,123865,35659,-3702,119914,277,19206,1135,0,41400,0.0009989999999999721
528000,1138,1882,124274,5295,2529,121280,345,19201,1413,1,41401,0.0010020000000000584
528998,2687,-3776,122848,-38137,-6751,125643,210,19218,860,1,41402,0.0009979999999999434
529999,7130,-2220,120222,20259,6175,116843,289,19218,860,0,41403,0.0010010000000000296
530998,15422,31975,124129,6599,27239,108875,300,19204,1184,0,41404,0.0009989999999999721
531998,8737,-8820,121967,-9128,-11846,122128,300,19193,1229,1,41405,0.0010000000000000009
532998,3444,-6197,126244,-7930,-7503,130599,204,19219,836,1,41406,0.0010000000000000009
533998,6689,-4819,127546,-1700,-3557,132483,284,19193,1163,0,41407,0.0010000000000000009
534998,-2797,25264,132241,-11691,25756,111341,277,19209,1135,0,41408,0.0010000000000000009
535998,2448,4938,129643,-6269,-987,138468,271,19209,1135,1,41409,0.0010000000000000009
536998,3082,-5446,127330,-11926,-4821,130097,231,19228,1110,1,41410,0.0010000000000000009
537998,13304,6054,134085,-8309,6386,128173,231,19198,946,0,41411,0.0010000000000000009
539002,5540,-2250,133131,12408,-2580,134838,272,19205,1114,0,41412,0.0010040000000000049
539998,3193,3668,136815,-13027,2691,129486,338,19210,1384,1,41413,0.0009959999999999969
541002,9093,-13436,134245,-14619,-13220,148814,204,19220,836,1,41414,0.0010040000000000049
542001,10997,10233,132612,11588,7391,126022,290,19220,836,0,41415,0.0009989999999999721
542998,10407,-2740,129993,4975,-5180,137665,292,19203,1188,0,41416,0.0009970000000000256
543998,7596,-6438,131370,-7185,-5714,125443,292,19190,1196,1,41417,0.0010000000000000009
544998,14486,2466,133936,2259,2863,143446,242,19222,991,1,41418,0.0010000000000000009
545998,12519,-9920,129234,10505,-9449,124532,273,19199,1118,0,41419,0.0010000000000000009
546998,10110,730,123700,1524,-563,114014,279,19207,1143,0,41420,0.0010000000000000009
547998,17919,8718,125013,12110,8453,134165,322,19207,1319,1,41421,0.0010000000000000009
548998,8938,-14125,115728,17760,-18167,117518,248,19223,1319,1,41422,0.0010000000000000009
549998,21990,465,127371,-21765,10097,118933,273,19197,1016,0,41423,0.0010000000000000009
550998,15769,-351,122873,26545,-1713,121182,273,19203,1118,0,41424,0.0010000000000000009
551998,-5230,3526,125134,18716,1785,117690,336,19201,1376,1,41425,0.0010000000000000009
552998,9208,-9238,121094,-47697,-14178,133500,211,19222,864,1,41426,0.0010000000000000009
553998,4484,5233,120722,35366,21591,105581,300,19222,1229,0,41427,0.0010000000000000009
554998,12399,35238,125154,-25406,18410,110063,305,19209,1229,0,41428,0.0010000000000000009
555998,14281,-11066,122762,-8254,-15989,129606,198,19192,1249,1,41429,0.0010000000000000009
556998,1228,-14521,123155,21238,-5300,136330,198,19219,811,1,41430,0.0010000000000000009
557998,5227,1385,128537,-34850,10449,118793,276,19202,1130,0,41431,0.0010000000000000009
558998,-4448,27246,128778,-10714,26317,112697,278,19204,1139,1,41432,0.0010000000000000009
559998,3616,2732,132304,8144,-16499,150494,288,19204,1180,1,41433,0.0010000000000000009
561000,4502,-15061,125796,-18670,-3797,123749,234,19231,1180,0,41434,0.0010019999999999474
562001,11215,10921,135378,-10133,5643,130404,285,19200,958,0,41435,0.0010010000000000296
562998,2161,1325,132759,17666,-2538,133438,285,19205,1167,0,41436,0.0009970000000000256
563998,4598,3364,135280,-26789,363,135559,336,19200,1376,1,41437,0.0010000000000000009
564998,10148,-7038,135377,-390,-7348,144821,206,19220,844,1,41438,0.0010000000000000009
565998,9408,6296,130185,12212,2525,125734,292,19204,1196,0,41439,0.0010000000000000009
566998,11140,-6337,131757,-8207,-10622,135390,298,19204,1196,0,41440,0.0010000000000000009
567998,9973,-4453,132421,-559,-2116,130381,259,19193,1221,1,41441,0.0010000000000000009
568998,13941,-6859,130091,12556,-7157,136750,259,19231,1061,1,41442,0.0010000000000000009
569998,13417,-2669,127799,-6581,-2302,124455,273,19196,1118,0,41443,0.0010000000000000009
570998,11150,-4008,122080,10637,-5324,124996,279,19207,1143,0,41444,0.0010000000000000009
571998,15767,6790,122487,18699,5105,125341,327,19223,1339,1,41445,0.0010000000000000009
572998,13705,-3450,121215,-1855,-4700,119608,232,19223,1339,1,41446,0.0010000000000000009
573998,20441,-3212,123827,-13506,-1363,121574,289,19200,950,0,41447,0.0010000000000000009
574998,13290,-473,123779,35325,-1221,121416,289,19202,1184,0,41448,0.0010000000000000009
575998,-4046,1815,124329,-2343,233,119679,337,19199,1380,1,41449,0.0010000000000000009
576998,6552,-2271,120945,-38416,-3875,121440,213,19228,872,1,41450,0.0010000000000000009
577998,8828,5584,121995,22498,7046,115915,325,19202,1331,0,41451,0.0010000000000000009
578998,14266,22319,122110,7840,18916,111742,300,19202,1331,1,41452,0.0010000000000000009
579998,7436,-7544,122244,-14445,-10277,123978,236,19189,1229,1,41453,0.0010000000000000009
580998,2655,-8743,123685,-6424,-10394,130822,236,19218,967,1,41454,0.0010000000000000009
581998,7833,3222,128895,-2869,5321,127943,272,19195,1114,0,41455,0.0010000000000000009
582999,-2427,23794,131018,-9159,22925,115933,284,19210,1163,1,41456,0.0010009999999999186
584000,1522,-604,128723,-11410,-3885,138338,300,19228,1229,1,41457,0.0010010000000000296
585000,1819,-10124,126776,-12237,-9712,133072,231,19228,1229,0,41458,0.0010000000000000009
585998,12936,8233,135902,-7134,8636,126980,288,19198,946,0,41459,0.0009980000000000544
586998,5930,476,131707,11807,-1679,134875,288,19203,1180,1,41460,0.0010000000000000009
587998,2756,354,136682,-13923,430,132388,326,19203,1335,1,41461,0.0010000000000000009
588998,10971,-11076,133045,-14298,-11114,146448,203,19224,831,0,41462,0.0010000000000000009
589998,12123,9523,131676,15429,6610,127885,294,19205,1204,0,41463,0.0010000000000000009
590998,10282,272,131821,2751,-913,134077,296,19205,1212,1,41464,0.0010000000000000009
592010,7007,-10836,130122,-8991,-10358,127603,277,19194,1212,1,41465,0.0010119999999999019
593001,15253,-377,132855,5336,-969,139708,257,19224,1135,1,41466,0.0009910000000000752
593998,12516,-5555,127477,11518,-6376,126547,257,19199,1053,0,41467,0.0009970000000000256
594998,9192,-1495,122969,-5240,-2370,111749,275,19205,1126,1,41468,0.0010000000000000009
595998,20175,11455,124780,14870,11184,133604,378,19222,1548,1,41469,0.0010000000000000009
596998,9296,-16042,116786,23190,-13144,118703,242,19222,991,0,41470,0.0009999999999998899
597998,20551,7042,125818,-25967,7089,117185,313,19200,991,0,41471,0.0010000000000000009
598999,11888,-887,122270,25899,-3948,124225,327,19207,1282,0,41472,0.0010010000000000296
599998,-2739,4958,123913,17979,5284,115219,327,19196,1339,1,41473,0.0009989999999999721
600998,9824,-11072,123295,-17253,-17509,136251,220,19219,901,0,41474,0.0010000000000000009
601998,2866,3077,118545,24351,21356,104936,329,19207,1347,0,41475,0.0010000000000000009
602999,15727,35335,125434,-10229,21986,108594,299,19207,1225,1,41476,0.0010010000000000296
603998,8184,-9064,122957,-4610,-12261,129168,244,19191,1225,1,41477,0.0009989999999999721
604998,4407,-11867,123235,3858,-11856,135424,261,19226,999,1,41478,0.0010000000000000009
605998,5167,-4484,128381,-17904,8211,123150,261,19191,1069,0,41479,0.0010000000000000009
606998,-3301,30006,130048,-6765,25475,114007,278,19205,1139,1,41480,0.0010000000000000009
607998,3179,-3803,130052,-3262,-17686,147246,313,19221,1282,1,41481,0.0010000000000000009
608998,-69,-9463,127236,-16841,937,124273,238,19203,975,0,41482,0.0010000000000000009
609998,11840,10132,135021,-5013,7730,131271,297,19203,975,0,41483,0.0010000000000000009
611000,4734,-1146,129506,15352,5259,129709,322,19201,1216,1,41484,0.0010020000000000584
611998,5364,2278,135427,-25023,-6902,139204,322,19200,1319,1,41485,0.0009979999999999434
612998,10902,-12247,129986,-218,-3217,139403,204,19223,836,0,41486,0.0010000000000000009
614001,10210,12786,133397,9888,4252,128786,293,19206,1200,0,41487,0.0010030000000000872
614998,9938,-10770,129975,-251,-13028,136293,293,19193,1200,1,41488,0.0009969999999999146
615998,7172,-2382,133320,-4166,990,126228,305,19193,1200,1,41489,0.0010000000000000009
616998,15790,-5174,129117,6146,-9726,141471,262,19217,1249,0,41490,0.0010000000000000009
617998,9796,1400,127008,40,2931,118809,262,19202,1073,0,41491,0.0010000000000000009
618998,13291,202,123139,9796,-951,125622,277,19207,1135,1,41492,0.0010000000000000009
619998,14492,-292,122962,19150,-2756,126321,370,19226,1515,1,41493,0.0010000000000000009
620999,11720,-3798,121519,-6598,-4074,119618,226,19203,926,0,41494,0.0010010000000000296
621998,25560,-5652,125522,-9258,-2091,123096,320,19203,926,0,41495,0.0009989999999999721
622998,10119,10872,123767,39413,10115,114014,317,19202,1311,1,41496,0.0010000000000000009
623998,-1278,-6597,123198,-10936,-12578,126214,317,19198,1298,1,41497,0.0010000000000000009
624999,5403,-4373,122444,-34085,-3916,121186,200,19224,819,0,41498,0.0010010000000000296
625998,10610,10432,121615,24379,7962,118747,314,19205,1286,0,41499,0.0009989999999999721
626998,11667,20707,123678,9285,20922,108478,299,19196,1225,1,41500,0.0010000000000000009
627998,5604,-5291,121435,-23201,-9615,124395,263,19196,1225,1,41501,0.0010000000000000009
628998,5095,-15384,122190,-3091,-14930,135666,257,19219,1077,0,41502,0.0010000000000000009
629998,5660,13912,130265,463,14862,120592,257,19195,1053,0,41503,0.0010000000000000009
630998,2122,13183,129295,-10974,11075,121110,275,19208,1126,1,41504,0.0010000000000000009
631998,-3187,2611,128415,-10662,-2144,132523,323,19225,1323,1,41505,0.0010000000000000009
632998,3653,-12981,128605,-14642,-13066,139109,229,19204,938,0,41506,0.0010000000000000009
633998,10949,11242,134945,-5717,12219,124736,300,19204,938,0,41507,0.0010000000000000009
634998,4604,2156,132456,12341,122,134323,319,19203,1229,1,41508,0.0010000000000000009
635998,4720,-5798,133410,-18757,-6598,136979,319,19199,1307,1,41509,0.0010000000000000009
636998,10778,-409,133766,-10414,-794,138533,217,19226,889,0,41510,0.0010000000000000009
637998,12798,2471,130875,14250,369,136002,305,19207,1249,0,41511,0.0010000000000000009
638999,7525,725,130363,180,-515,129524,297,19193,1216,1,41512,0.0010010000000000296
639998,4620,-13013,131643,-11448,-12211,135725,310,19193,1270,1,41513,0.0009989999999999721
640998,16520,-781,129743,4752,-2960,131838,254,19224,1270,0,41514,0.0010000000000000009
641998,9769,-3694,129054,12025,-2715,131237,271,19200,1040,0,41515,0.0010000000000000009
642998,12469,-1295,122666,-4274,-5306,107052,271,19211,1110,1,41516,0.0010000000000000009
643998,18017,16408,123988,17228,-11817,134124,350,19226,1433,1,41517,0.0010000000000000009
644998,10547,-22956,119378,15412,-7805,118148,221,19214,905,0,41518,0.0010000000000000009
645999,22884,11595,128230,-23959,5420,115751,334,19214,1368,0,41519,0.0010010000000000296
646998,5682,-4795,121279,34058,-3239,125444,322,19203,1368,1,41520,0.0009989999999999721
647998,-2322,11827,127505,-2861,4333,113418,201,19186,1319,1,41521,0.0010000000000000009
648998,12110,-17371,119611,9889,-21297,138664,201,19223,823,0,41522,0.0010000000000000009
649998,3945,15310,121046,7604,33340,96024,296,19208,1212,0,41523,0.0010000000000000009
650998,15699,25032,125186,-7462,5277,117335,292,19194,1196,1,41524,0.0010000000000000009
651998,2312,-15755,122197,-1960,-14684,130352,279,19194,1143,1,41525,0.0010000000000000009
652998,8308,-3038,125111,-2900,-5063,132903,257,19224,1143,0,41526,0.0010000000000000009
653999,-48,-603,127673,-10747,14626,119678,277,19193,1053,0,41527,0.0010010000000000296
654998,968,32301,132441,-10288,22363,117633,277,19207,1135,1,41528,0.0009989999999999721
655998,2475,-15749,126906,-4437,-28759,149992,323,19228,1323,1,41529,0.0010000000000000009
656998,3888,1464,130462,-13489,13846,117785,222,19204,909,0,41530,0.0010000000000000009
657999,10567,3317,134455,4909,-442,137444,305,19203,1249,0,41531,0.0010010000000000296
658998,-463,3443,131952,2625,6751,126042,319,19203,1249,1,41532,0.0009989999999999721
659998,9052,-5578,134805,-22624,-14895,148171,200,19199,1307,1,41533,0.0010000000000000009
661000,7857,-9081,131374,11295,1369,133748,200,19224,819,0,41534,0.0010019999999999474
662003,12637,14380,132035,2666,3684,129281,288,19208,1180,0,41535,0.0010030000000000872
663000,8414,-14662,130281,575,-13006,134589,289,19196,1184,1,41536,0.0009969999999999146
663998,7075,5020,132939,-3349,7939,125604,309,19224,1266,1,41537,0.0009980000000000544
664998,17032,-10304,127527,11668,-10031,143811,245,19224,1266,0,41538,0.0010000000000000009
665998,7598,1547,127278,-2290,5807,115416,271,19199,1003,0,41539,0.0010000000000000009
666998,16014,-994,122403,11160,-3709,127511,271,19213,1110,1,41540,0.0010000000000000009
667998,12387,216,123053,19504,82,123141,350,19224,1433,1,41541,0.0010000000000000009
668998,17840,-1048,124067,-6950,-4026,120314,224,19208,917,0,41542,0.0010000000000000009
669998,18898,-5458,126316,-3741,-1991,119769,324,19208,1327,0,41543,0.0010000000000000009
670998,8815,15551,123645,35624,10524,117025,312,19208,1327,1,41544,0.0010000000000000009
671998,-3205,-12795,121727,-17095,-15087,129234,194,19185,1278,1,41545,0.0010000000000000009
672998,5796,3266,119573,-29356,5323,115180,194,19228,795,0,41546,0.0010000000000000009
673998,13290,6754,122990,23144,4655,122687,291,19200,1192,0,41547,0.0010000000000000009
674998,9676,23415,122358,8344,23136,103221,297,19204,1216,1,41548,0.0010000000000000009
675998,6204,-12918,123547,-21422,-16843,133231,296,19222,1212,1,41549,0.0010000000000000009
676999,5884,-10775,121861,-1115,-7676,128945,252,19222,1212,0,41550,0.0010010000000000296
677998,4768,17138,132481,-2556,14277,119247,269,19190,1032,0,41551,0.0009989999999999721
678999,629,9872,130658,-9863,7956,127464,269,19205,1102,1,41552,0.0010010000000000296
679998,-3079,1173,128930,-10211,-4194,131008,340,19230,1393,1,41553,0.0009989999999999721
680998,5958,-13616,129026,-11534,-14371,140885,227,19205,930,0,41554,0.0010000000000000009
681999,10618,14658,134649,-4331,15669,118724,318,19205,1302,0,41555,0.0010010000000000296
682998,5045,-1689,130983,10139,-4313,140619,314,19205,1286,1,41556,0.0009989999999999721
683998,3710,-4220,133962,-19659,-4865,136225,195,19192,1286,1,41557,0.0010000000000000009
684999,13162,-4901,132154,-4782,-5373,137479,277,19227,799,0,41558,0.0010009999999999186
685999,11426,1230,130417,14238,-1693,136027,277,19204,1135,0,41559,0.0010000000000000009
686998,8590,193,130580,-845,-806,133254,290,19197,1188,1,41560,0.0009990000000000832
687998,4947,-11116,130012,-9019,-12474,134340,315,19221,1290,1,41561,0.0010000000000000009
688998,16387,634,129978,5223,-1303,130279,246,19221,1008,0,41562,0.0010000000000000009
690000,9719,-4859,128014,9518,-4207,133364,269,19204,1008,0,41563,0.0010019999999999474
690999,12200,1711,124088,-1959,17877,104622,336,19211,1102,1,41564,0.0009989999999999721
692000,14536,14252,123473,19139,-12629,138961,336,19216,1376,1,41565,0.0010010000000000296
692998,12459,-19598,122970,5537,-2601,114072,222,19213,909,0,41566,0.0009980000000000544
693998,22088,8496,127504,-21984,-1685,120570,320,19201,1311,0,41567,0.0010000000000000009
694998,4142,-6153,123121,42302,-366,123911,313,19201,1282,1,41568,0.0010000000000000009
695998,-3533,14329,126763,-41824,3753,113679,203,19193,1282,1,41569,0.0010000000000000009
696998,10694,-18526,119053,12799,-15185,137422,287,19225,831,0,41570,0.0010000000000000009
697998,6558,18569,121691,10582,30350,94635,287,19201,1175,0,41571,0.0010000000000000009
698999,13997,21749,125952,-5002,2533,119317,297,19198,1216,1,41572,0.0010009999999999186
699998,743,-13482,123203,-5976,-11675,128805,301,19220,1233,1,41573,0.0009990000000000832
700998,10000,-7888,126223,481,-7796,134661,249,19192,1020,0,41574,0.0010000000000000009
701998,-1344,6641,130196,-12901,20279,115759,266,19192,1020,0,41575,0.0010000000000000009
702998,2870,30038,131938,-7760,17131,121756,331,19211,1089,1,41576,0.0010000000000000009
704000,-1641,-17286,126121,-5724,-25224,145802,331,19231,1356,1,41577,0.0010019999999999474
705000,6638,552,130131,-15578,8016,119883,224,19210,917,0,41578,0.0010000000000000009
705998,10575,3767,137376,11041,-1980,135208,308,19203,1261,0,41579,0.0009980000000000544
707000,1033,8943,132636,-2881,9376,127193,312,19193,1278,1,41580,0.0010019999999999474
708000,7034,-12683,134723,-22375,-18270,151226,189,19193,1278,1,41581,0.0010000000000000009
708998,8054,-3494,130217,12142,8194,128681,265,19226,774,0,41582,0.0009980000000000544
709999,12191,9072,131878,6471,-2383,133308,265,19204,1085,0,41583,0.0010009999999999186
710998,8063,-10806,130380,-3140,-8015,129276,291,19193,1192,1,41584,0.0009990000000000832
711998,7377,1024,131719,-2815,2567,131983,334,19219,1368,1,41585,0.0010000000000000009
712998,14676,-14368,127733,12463,-12085,139537,249,19193,1020,0,41586,0.0010000000000000009
713998,7651,10006,128240,-2426,11329,113986,263,19193,1020,0,41587,0.0010000000000000009
714998,16172,-5060,124764,14144,-5812,130867,326,19210,1077,1,41588,0.0010000000000000009
716004,12666,953,122381,17806,-763,120986,326,19211,1335,1,41589,0.0010059999999999514
717000,18749,-4333,126188,-9865,-6719,124288,236,19211,967,0,41590,0.0009959999999999969
717998,15390,-499,123429,3161,4330,115422,334,19202,1368,0,41591,0.0009979999999999434
718998,8105,11760,123989,34943,7855,122933,311,19190,1274,1,41592,0.0010000000000000009
719998,-4657,-13185,119626,-23108,-13375,127010,219,19190,1274,1,41593,0.0010000000000000009
721000,7398,5913,119814,-20081,7304,114318,272,19224,897,0,41594,0.0010020000000000584
722001,12980,8136,121539,21766,6116,122113,272,19202,1114,0,41595,0.0010010000000000296
723000,9657,21075,124453,7554,20769,101928,289,19203,1184,1,41596,0.0009989999999999721
723998,4141,-14814,124688,-20305,-16897,136040,302,19223,1237,1,41597,0.0009979999999999434
724998,9248,-6383,126516,736,-4161,127023,243,19192,995,0,41598,0.0010000000000000009
725998,2588,18393,131316,-310,16900,121255,277,19192,1135,0,41599,0.0010000000000000009
726998,-969,13007,130641,-13421,11108,125988,319,19209,1135,1,41600,0.0010000000000000009
728000,-316,-2862,129635,-14241,-6946,130550,228,19224,1307,1,41601,0.0010020000000000584
728998,6552,-5760,130221,-1956,-6525,137928,228,19212,934,0,41602,0.0009979999999999434
729999,11265,11654,135073,-7283,12545,121628,308,19203,1261,0,41603,0.0010010000000000296
730998,6381,-3137,131807,5921,-4899,139113,306,19187,1253,1,41604,0.0009989999999999721
731998,1042,-7099,135087,-12547,-8479,137500,188,19187,770,1,41605,0.0010000000000000009
732998,11852,-4553,132484,-6385,-5232,137403,260,19225,770,0,41606,0.0010000000000000009
733998,8070,3386,132259,7984,888,127570,285,19206,1065,0,41607,0.0010000000000000009
734998,9644,-1120,129791,3055,-3511,134726,285,19202,1167,1,41608,0.0010000000000000009
735998,6121,-8918,131129,-6650,-8503,129056,349,19216,1429,1,41609,0.0010000000000000009
736998,16242,2908,128644,3958,-83,134259,246,19197,1008,0,41610,0.0010000000000000009
737998,8336,-12864,124957,8515,-11830,127640,259,19197,1061,0,41611,0.0010000000000000009
738998,14894,7175,126400,4792,23725,109794,320,19215,1061,1,41612,0.0010000000000000009
739998,17636,4448,121324,14591,-21293,137194,219,19213,1311,1,41613,0.0010000000000000009
740998,13314,-10841,123283,4976,9864,109072,219,19209,897,0,41614,0.0010000000000000009
741998,21172,7077,127666,-15452,-11004,128790,311,19202,1274,0,41615,0.0010000000000000009
742999,867,-8155,122184,19494,5547,117330,304,19189,1245,1,41616,0.0010010000000000296
743998,-2030,12371,127880,-39013,-4604,125230,232,19230,950,1,41617,0.0009989999999999721
744998,9396,-17955,117054,15860,-7362,123070,259,19230,950,0,41618,0.0010000000000000009
745998,7919,40405,123086,7534,39730,97576,293,19201,1061,0,41619,0.0010000000000000009
746998,14069,4112,125193,-2222,-11197,127490,293,19198,1200,1,41620,0.0010000000000000009
747998,660,-11707,122250,-10883,-8116,122790,326,19223,1335,1,41621,0.0010000000000000009
748999,11778,-9434,131755,2656,-9967,140611,244,19192,999,0,41622,0.0010010000000000296
749998,-4042,15087,129858,-11647,25414,107336,287,19213,1175,0,41623,0.0009989999999999721
751000,1928,24550,134143,-10710,5590,134176,317,19213,1175,1,41624,0.0010020000000000584
752000,-4074,-22994,125570,-6330,-22415,138703,219,19221,1298,1,41625,0.0010000000000000009
752998,10920,13722,134011,-8455,13805,120780,219,19212,897,0,41626,0.0009979999999999434
753998,10932,-2053,134934,13030,-4389,139028,319,19205,1307,0,41627,0.0010000000000000009
754998,3018,8775,134822,-11516,7819,124289,310,19190,1270,1,41628,0.0010000000000000009
755998,5126,-15816,133550,-15156,-21583,155300,217,19223,889,1,41629,0.0010000000000000009
756998,9120,4175,133958,11513,12563,123587,264,19223,889,0,41630,0.0010000000000000009
758000,11106,2914,130093,6522,-8133,136493,288,19209,1081,0,41631,0.0010020000000000584
758998,7642,-14148,128852,-5651,-8631,126616,288,19199,1180,1,41632,0.0009979999999999434
759998,10244,6048,134343,650,2277,130940,366,19224,1499,1,41633,0.0010000000000000009
760998,15515,-16269,126765,11985,-14268,141950,243,19199,995,0,41634,0.0010000000000000009
761998,6807,8460,129849,-5395,10810,113865,265,19212,1085,0,41635,0.0010000000000000009
762998,19977,-2395,124208,23674,-2481,129220,311,19212,1085,1,41636,0.0010000000000000009
763998,6539,5621,120569,12641,392,120927,228,19211,1274,1,41637,0.0010000000000000009
764998,22236,-12569,123959,-24361,-13191,125026,228,19213,934,0,41638,0.0010000000000000009
765998,14182,5923,124458,30660,13967,113249,324,19206,1327,0,41639,0.0010000000000000009
766998,5671,5024,123454,19342,-335,124978,317,19189,1298,1,41640,0.0010000000000000009
767998,-3795,-11338,122799,-38774,-10334,122195,258,19223,1057,1,41641,0.0010000000000000009
768999,5881,5334,121546,6910,4405,122089,260,19223,1057,0,41642,0.0010010000000000296
769998,14873,20216,125421,12640,21376,107703,288,19200,1065,0,41643,0.0009989999999999721
770998,8961,17997,126750,-788,13288,108943,288,19200,1180,1,41644,0.0010000000000000009
771998,5374,-27933,122720,-4972,-26635,144834,329,19228,1347,1,41645,0.0010000000000000009
772998,6977,7210,128083,-5500,9484,119490,242,19198,991,0,41646,0.0010000000000000009
773998,560,21202,132637,-6208,21102,121529,306,19216,1253,0,41647,0.0010000000000000009
774998,766,8612,131056,-10758,5955,126448,317,19216,1298,1,41648,0.0010000000000000009
775998,-703,-12921,129807,-10482,-16117,140764,215,19222,1298,1,41649,0.0010000000000000009
776998,8684,-1006,130952,-6260,-1758,130213,315,19216,881,0,41650,0.0010000000000000009
777998,8966,12974,133977,4711,14080,121435,315,19206,1290,0,41651,0.0010000000000000009
778998,4841,-4420,133498,-561,-4734,139443,305,19191,1249,1,41652,0.0010000000000000009
779998,6495,1416,134481,-21483,-508,136122,222,19234,909,1,41653,0.0010000000000000009
781001,12279,-3593,134331,9254,-3584,136787,251,19234,1028,0,41654,0.0010029999999999761
781998,6205,3302,131713,12929,-592,129339,284,19205,1028,0,41655,0.0009970000000000256
782999,6205,-12179,130200,-12451,-12935,137316,376,19204,1163,1,41656,0.0010010000000000296
783998,9283,-5678,132122,-3593,-5565,129069,376,19219,1540,1,41657,0.0009989999999999721
784998,18473,6600,130468,19488,7249,130866,234,19205,958,0,41658,0.0010000000000000009
785999,5739,-9943,124041,-6439,-8901,123776,282,19210,1155,0,41659,0.0010010000000000296
786998,14296,8387,128821,3577,11966,118134,313,19210,1282,1,41660,0.0009989999999999721
788000,13335,-5420,120180,16444,-22032,137428,220,19209,1282,1,41661,0.0010019999999999474
788998,18714,-5683,124310,-12357,7975,111593,324,19213,901,0,41662,0.0009980000000000544
789998,17720,2122,127894,36088,-7322,125678,324,19201,1327,0,41663,0.0010000000000000009
790998,2952,3277,121962,6429,11233,113810,305,19188,1249,1,41664,0.0010000000000000009
792001,-422,7671,125883,-35822,-7479,127200,277,19228,1135,1,41665,0.0010029999999999761
792998,6174,-19570,118532,21137,-3343,122763,252,19204,1032,0,41666,0.0009970000000000256
793998,12731,33560,123576,3281,35116,98636,290,19204,1032,0,41667,0.0010000000000000009
794998,7867,9050,125628,-3646,-4630,123271,316,19197,1188,1,41668,0.0010000000000000009
795998,4877,-15683,124828,-9684,-16922,132715,316,19221,1294,1,41669,0.0010000000000000009
796999,6945,-14553,127636,1364,-8090,134913,245,19204,1003,0,41670,0.0010010000000000296
797998,-3618,25096,133726,-17264,32636,107079,288,19208,1180,0,41671,0.0009989999999999721
798998,5699,20234,130978,-2209,794,134843,308,19211,1261,1,41672,0.0010000000000000009
799999,-4093,-12635,126715,-13560,-14224,137344,215,19211,1261,1,41673,0.0010010000000000296
801000,12549,3516,133638,-12524,6952,126724,325,19214,881,0,41674,0.0010009999999999186
801998,7052,2238,135564,15784,1179,131088,325,19205,1331,0,41675,0.0009980000000000544
802998,4732,5641,136397,-13654,932,133586,307,19195,1257,1,41676,0.0010000000000000009
803998,6803,-19023,133732,-12611,-19205,148297,208,19231,852,1,41677,0.0010000000000000009
804998,10525,12882,135580,12351,16477,124673,246,19198,1008,0,41678,0.0010000000000000009
806001,12137,-517,130044,5979,-12976,136094,283,19198,1008,0,41679,0.0010029999999999761
806999,5295,-4951,130855,-9446,-4004,125902,398,19204,1159,1,41680,0.0009979999999999434
807998,10212,-3375,134913,4438,-6588,141583,398,19222,1630,1,41681,0.0009990000000000832
808998,14580,-15907,128494,11733,-11074,132713,232,19208,950,0,41682,0.0010000000000000009
809998,10256,13080,128211,-2196,12129,114958,294,19211,1204,0,41683,0.0010000000000000009
810998,18066,-6545,123762,22127,-8507,131904,309,19207,1266,1,41684,0.0010000000000000009
811998,8041,6603,119626,7673,4426,116579,217,19207,1266,1,41685,0.0010000000000000009
812998,28234,-16464,122941,-19912,-16436,127658,327,19217,889,0,41686,0.0010000000000000009
813998,12065,6088,125535,41953,11472,110210,327,19205,1339,0,41687,0.0010000000000000009
814998,348,-3010,123824,2525,-9000,129547,304,19195,1245,1,41688,0.0010000000000000009
815998,-627,-6943,120393,-42330,-3337,121952,301,19224,1233,1,41689,0.0010000000000000009
816998,6672,12808,122759,29070,12146,118250,250,19201,1024,0,41690,0.0010000000000000009
817998,16424,19395,121693,2047,18487,108076,292,19201,1196,0,41691,0.0010000000000000009
818998,10109,13611,126085,-14979,9172,108069,373,19200,1196,1,41692,0.0010000000000000009
819999,4566,-30304,124242,9603,-28133,150444,240,19224,1528,1,41693,0.0010009999999999186
820998,6558,5530,126943,-3804,7474,116910,240,19201,983,0,41694,0.0009990000000000832
821998,-7262,18563,132569,-11900,18051,122039,323,19206,1323,0,41695,0.0010000000000000009
822998,3899,11353,130409,-19033,9365,124774,305,19208,1249,1,41696,0.0010000000000000009
823998,2708,-1727,131703,-6419,-4753,134227,219,19208,897,1,41697,0.0010000000000000009
825000,11752,-9923,132256,1424,-10599,140313,334,19213,897,0,41698,0.0010019999999999474
825998,1269,8729,134017,4123,9616,121252,309,19205,1368,0,41699,0.0009980000000000544
826998,1943,-4418,133797,-14232,-4499,143778,309,19195,1266,1,41700,0.0010000000000000009
828000,13517,5950,135908,-11924,6222,131191,265,19228,1085,1,41701,0.0010019999999999474
828998,12666,4734,133387,15157,3222,139571,236,19203,967,0,41702,0.0009980000000000544
829998,13408,-6545,131976,-3867,-7405,128063,284,19203,1163,0,41703,0.0010000000000000009
830998,1511,-14925,129234,7390,-17691,137991,411,19202,1163,1,41704,0.0010000000000000009
831998,9021,-5049,134851,-3583,-3952,135099,235,19223,1683,1,41705,0.0010000000000000009
832998,15907,1309,128995,3660,6741,122851,235,19210,962,0,41706,0.0010000000000000009
834001,7533,11102,130061,5650,1567,125407,299,19209,1225,0,41707,0.0010029999999999761
835001,20094,-2686,124304,343,801,113230,299,19209,1225,1,41708,0.0010000000000000009
835998,14818,555,121129,33530,-17047,139881,212,19216,868,1,41709,0.0009969999999999146
836998,12049,-25217,120108,-31751,-8226,117910,330,19216,868,0,41710,0.0010000000000000009
837998,18338,19159,128336,10649,22711,105517,307,19204,1352,0,41711,0.0010000000000000009
838998,5933,9019,127527,34940,605,133415,307,19198,1257,1,41712,0.0010000000000000009
839998,-5075,-8893,120061,-38416,-8372,116157,315,19226,1290,1,41713,0.0010000000000000009
840998,3154,-18086,121189,410,-14319,132693,240,19197,983,0,41714,0.0010000000000000009
842000,12040,21110,121462,14724,33712,96678,286,19205,1171,0,41715,0.0010020000000000584
842998,12412,33434,127543,1226,15281,116593,383,19205,1171,1,41716,0.0009979999999999434
843998,4514,-22770,124797,-18460,-26158,141562,241,19227,1569,1,41717,0.0010000000000000009
844998,5439,-7912,126851,-3321,-563,124554,241,19203,987,0,41718,0.0010000000000000009
845998,-3704,11885,132611,-7697,15173,125796,335,19214,1372,0,41719,0.0010000000000000009
846998,7387,18406,132058,-5572,13455,120928,298,19210,1221,1,41720,0.0010000000000000009
847998,-535,-8482,129535,-8673,-16256,144581,232,19217,950,1,41721,0.0010000000000000009
849002,10665,-1065,131019,-20013,9055,123083,345,19217,950,0,41722,0.0010040000000000049
849998,8954,11816,135567,14827,3909,129805,307,19203,1413,0,41723,0.0009959999999999969
850998,3567,-6574,132796,-3024,-7914,141189,307,19196,1257,1,41724,0.0010000000000000009
851998,6072,-5283,134697,-19946,-5660,134429,288,19225,1180,1,41725,0.0010000000000000009
853000,11082,3507,135277,8432,1408,139343,232,19207,950,0,41726,0.0010020000000000584
854000,16071,6722,130724,12883,-702,128385,281,19206,1151,0,41727,0.0010000000000000009
855000,3501,-8451,129861,-3528,-6566,130499,395,19206,1151,1,41728,0.0010000000000000009
855998,10817,-2199,135854,-14441,-2221,133219,240,19218,1618,1,41729,0.0009979999999999434
856998,15021,-10772,126905,20656,-11636,135075,240,19202,983,0,41730,0.0010000000000000009
857998,9363,5979,129899,4032,8272,119316,308,19211,1261,0,41731,0.0010000000000000009
858998,23035,1726,122113,8906,-2388,123356,296,19203,1212,1,41732,0.0010000000000000009
859999,6229,-1361,121708,16359,-4312,123313,210,19220,860,1,41733,0.0010010000000000296
860999,26709,-10927,122314,-22859,-11801,124896,339,19220,860,0,41734,0.0010000000000000009
861998,12560,4375,125338,36902,6149,115314,301,19204,1388,0,41735,0.0009989999999999721
862998,-3195,2938,125899,2053,-341,124094,301,19197,1233,1,41736,0.0010000000000000009
863998,6616,-6025,120662,-41041,-4486,119998,314,19228,1286,1,41737,0.0010000000000000009
864998,1820,9407,122133,33076,8015,121267,230,19201,942,0,41738,0.0010000000000000009
865998,19286,15742,121921,-2806,14784,110059,283,19204,1159,0,41739,0.0010000000000000009
866998,9000,3257,124184,-16784,60,110760,371,19204,1520,1,41740,0.0010000000000000009
868000,6137,-23595,126112,13705,-24011,147629,251,19220,1520,1,41741,0.0010020000000000584
868998,4154,2042,125055,-7029,3011,119638,332,19205,1028,0,41742,0.0009979999999999434
869998,-9803,29679,132619,-21578,28414,117495,332,19206,1360,0,41743,0.0010000000000000009
870998,6259,2653,128617,-12524,467,131995,293,19209,1200,1,41744,0.0010000000000000009
871998,4657,-2000,128055,8058,-4532,131320,208,19217,852,1,41745,0.0010000000000000009
873001,12106,-7656,133127,-14453,-8628,138992,339,19217,1388,0,41746,0.0010029999999999761
873998,5144,5971,132359,1087,6352,122228,305,19210,1388,0,41747,0.0009970000000000256
874998,3328,-890,136692,1610,-972,148989,311,19194,1249,1,41748,0.0010000000000000009
876000,8324,-3912,132801,-20055,-5408,129039,311,19226,1274,1,41749,0.0010020000000000584
876998,7069,6029,133493,9705,5053,135862,232,19209,950,0,41750,0.0009979999999999434
877998,12464,-1036,129549,3649,-3982,127956,276,19197,1130,0,41751,0.0010000000000000009
878998,8774,-6995,130219,-4658,-6377,132481,388,19223,1589,1,41752,0.0010000000000000009
879998,12485,-3998,135494,5084,-10567,138194,233,19223,1589,1,41753,0.0010000000000000009
880998,14612,1310,130716,6941,386,123908,316,19211,954,0,41754,0.0010000000000000009
881998,8471,-6297,126298,-513,-7588,127626,316,19209,1294,0,41755,0.0010000000000000009
882999,15322,9583,127231,15100,8612,121791,288,19204,1180,1,41756,0.0010010000000000296
883998,14268,-9510,117504,14578,-14221,124854,203,19219,831,1,41757,0.0009989999999999721
884998,20438,271,123402,-14384,9524,115304,329,19206,1347,0,41758,0.0010000000000000009
885998,13776,487,124519,38085,-4122,124271,306,19206,1347,0,41759,0.0010000000000000009
886999,677,-784,122671,-10181,3103,116214,328,19201,1253,1,41760,0.0010010000000000296
887998,2161,283,125052,-31352,-8685,129403,328,19229,1343,1,41761,0.0009989999999999721
888998,8927,-5074,119545,20916,8508,115153,229,19202,938,0,41762,0.0010000000000000009
889998,17261,30148,123935,6067,24283,108843,280,19200,1147,0,41763,0.0010000000000000009
890998,6980,-3805,121170,-15424,-12894,124819,380,19227,1556,1,41764,0.0010000000000000009
891998,3890,-8487,124952,-7359,-7347,129060,240,19227,1556,1,41765,0.0010000000000000009
892998,5801,-1596,129637,-20,3736,131895,323,19204,983,0,41766,0.0010000000000000009
893998,-1904,19504,130476,-14657,24436,114262,323,19208,1323,0,41767,0.0010000000000000009
894998,693,3835,129314,-11289,-8458,139767,289,19208,1184,1,41768,0.0010000000000000009
895998,3134,-11304,127158,-10795,-8096,131192,204,19220,836,1,41769,0.0010000000000000009
896998,13999,11007,133402,-3501,10295,127481,326,19205,1335,0,41770,0.0010000000000000009
897998,4443,487,133532,9628,-2388,134144,306,19205,1335,0,41771,0.0010000000000000009
898998,3756,-711,135346,-19453,-2785,135722,284,19200,1253,1,41772,0.0010000000000000009
899998,8713,-9942,133844,-9959,-8248,146063,284,19226,1163,1,41773,0.0010000000000000009
900998,11310,9334,133043,12659,6348,129653,223,19206,913,0,41774,0.0010000000000000009
901999,9305,-66,129331,2375,-6178,133462,276,19202,1130,0,41775,0.0010010000000000296
902998,8544,-9124,131606,-9398,-6390,128276,379,19222,1552,1,41776,0.0009989999999999721
904001,15624,-2368,133245,7484,-3626,136875,230,19222,1552,1,41777,0.0010029999999999761
905000,12935,-6028,128747,8526,-7614,131944,315,19209,942,0,41778,0.0009989999999999721
905998,8521,-853,124205,-2348,1991,115890,315,19209,1290,0,41779,0.0009980000000000544
906998,18793,12187,125779,17985,4623,128604,294,19204,1204,1,41780,0.0010000000000000009
908000,9525,-12779,116826,11502,-13628,126474,208,19217,852,1,41781,0.0010019999999999474
908999,23194,3832,125536,-24871,6380,116676,324,19206,1327,0,41782,0.0009990000000000832
909999,13357,-1104,123002,39845,-2041,121225,304,19206,1245,0,41783,0.0010000000000000009
910998,-3582,6159,124965,-1354,5596,114759,338,19197,1245,1,41784,0.0009989999999999721
911998,8423,-9607,122956,-39148,-10840,131919,230,19225,1384,1,41785,0.0010000000000000009
912998,4331,4275,120420,32579,4688,115577,230,19199,942,0,41786,0.0010000000000000009
913998,15086,29401,124685,-8796,27346,103776,282,19205,1155,0,41787,0.0010000000000000009
914998,11349,-5808,122398,-14749,-8216,121381,384,19225,1573,1,41788,0.0010000000000000009
915998,2873,-16635,124094,15970,-18521,137180,237,19225,971,1,41789,0.0010000000000000009
916998,4038,146,127783,-17707,485,128083,316,19209,971,0,41790,0.0010000000000000009
917998,-2348,27669,131270,-19498,26778,110118,289,19214,1294,1,41791,0.0010000000000000009
918998,1729,1144,128632,5417,-2927,140344,289,19209,1184,1,41792,0.0010000000000000009
919998,2727,-11153,126412,-14370,-12606,134768,205,19218,840,1,41793,0.0010000000000000009
920998,11205,2757,133019,-17819,2295,126434,318,19204,1302,0,41794,0.0010000000000000009
922006,3506,4032,132769,15878,2729,130686,300,19204,1229,0,41795,0.0010080000000000089
923002,5568,-5194,134574,-14156,-4404,142351,288,19203,1229,1,41796,0.0009959999999999969
923999,10158,-5572,133249,-12490,-7067,136882,222,19227,1180,1,41797,0.0009969999999999146
925000,9089,7620,130740,16545,3842,129717,222,19201,909,0,41798,0.0010010000000000296
925998,11032,-4488,129851,-5568,-5407,133031,275,19205,1126,0,41799,0.0009980000000000544
926998,7210,-4981,132006,-4130,-3284,132233,371,19215,1520,1,41800,0.0010000000000000009
927998,15465,-6407,129817,9971,-7296,135831,228,19213,934,1,41801,0.0010000000000000009
928998,12340,1038,129040,3528,6468,120751,309,19213,934,0,41802,0.0010000000000000009
929998,13406,-1656,121927,531,-5954,126460,288,19205,1266,0,41803,0.0010000000000000009
930998,16227,763,123605,21989,2044,123981,288,19198,1180,1,41804,0.0010000000000000009
931998,11610,-128,120460,-4961,-8629,122094,208,19216,852,1,41805,0.0010000000000000009
932999,20683,-4358,125487,-5378,1607,118007,320,19200,1311,0,41806,0.0010009999999999186
933998,11765,7074,124726,35510,-1133,122522,304,19199,1245,0,41807,0.0009990000000000832
934998,-1859,-1644,125793,-15648,-6401,123203,351,19199,1245,1,41808,0.0010000000000000009
935998,4441,1447,122603,-27709,676,120153,225,19225,1438,1,41809,0.0010000000000000009
936998,11263,5004,124687,22323,7862,118771,225,19204,922,0,41810,0.0010000000000000009
937998,15103,19132,121645,8006,15607,108961,279,19206,1143,1,41811,0.0010000000000000009
938998,8445,-4574,123897,-20102,-12371,128070,377,19218,1544,1,41812,0.0010000000000000009
939998,2957,-13783,122960,-3513,-8329,132070,237,19205,971,1,41813,0.0010000000000000009
940999,6932,6463,130188,-2255,10124,122350,314,19205,971,0,41814,0.0010009999999999186
941998,-639,19364,131484,-10713,17818,120727,283,19208,1286,1,41815,0.0009990000000000832
942998,-423,4445,128561,-11814,-8656,135122,283,19209,1159,1,41816,0.0010000000000000009
943998,3876,-14623,127391,-9935,-7849,136426,202,19218,827,0,41817,0.0010000000000000009
944998,11965,7129,133917,-5299,9987,124938,312,19203,1278,0,41818,0.0010000000000000009
945998,5369,3944,132814,9570,315,134762,309,19199,1266,0,41819,0.0010000000000000009
946998,2696,-1884,134997,-16280,-4084,136764,319,19199,1266,1,41820,0.0010000000000000009
948000,9835,-8397,132237,-13034,-3337,140972,215,19224,1307,0,41821,0.0010019999999999474
948998,13248,388,129588,10786,517,132700,215,19206,881,0,41822,0.0009980000000000544
949998,8944,2239,130379,3828,-3124,128945,267,19201,1094,0,41823,0.0010000000000000009
950998,7108,-10481,130015,-9209,-10410,134672,364,19210,1491,1,41824,0.0010000000000000009
951998,13746,-203,132883,4682,-1725,131849,232,19213,950,1,41825,0.0010000000000000009
953001,13088,-5190,127974,8868,-6377,135525,318,19213,950,0,41826,0.0010029999999999761
953998,10517,-5303,122019,-1648,-855,116555,285,19207,1302,1,41827,0.0009969999999999146
954998,18108,20769,124828,15784,13230,123624,285,19197,1167,1,41828,0.0010000000000000009
955998,10695,-20173,116298,10680,-19926,130541,197,19219,807,0,41829,0.0010000000000000009
956998,19171,5155,125879,-23401,7648,113358,305,19206,1249,0,41830,0.0010000000000000009
957998,10345,-6897,122465,37618,-7959,129231,305,19199,1249,0,41831,0.0010000000000000009
958998,-1898,12655,124757,-6081,12453,108272,373,19199,1528,1,41832,0.0010000000000000009
959998,10740,-11621,121780,-29338,-13865,137085,222,19226,1528,0,41833,0.0010000000000000009
960998,4596,6984,120688,21662,7049,111569,268,19197,909,0,41834,0.0010000000000000009
961998,16061,32941,124772,-3939,31165,106219,268,19206,1098,1,41835,0.0010000000000000009
962998,7043,-11235,124179,-5362,-11689,126164,364,19216,1491,1,41836,0.0010000000000000009
963998,4892,-10212,123090,-2136,-13156,131047,237,19213,971,1,41837,0.0010000000000000009
964998,4035,-2294,129707,-9507,-1580,133328,344,19213,1409,0,41838,0.0010000000000000009
966000,-1899,32032,130604,-12059,30043,105929,284,19208,1409,1,41839,0.0010020000000000584
966999,2234,-8758,128591,-5170,-11558,144756,211,19201,1163,1,41840,0.0009989999999999721
967998,1422,-9082,127366,-15996,-10418,130020,211,19218,864,0,41841,0.0009989999999999721
968998,12309,6863,134514,-7317,8217,128014,306,19200,1253,0,41842,0.0010000000000000009
969998,1664,7414,130697,11095,3743,126195,307,19200,1257,1,41843,0.0010000000000000009
970998,5408,-5799,135325,-19325,-4335,150481,333,19227,1364,1,41844,0.0010000000000000009
971998,9934,-13310,131401,-6413,-15271,131879,214,19227,1364,0,41845,0.0010000000000000009
972998,12317,13995,131646,12613,11532,131893,263,19204,876,0,41846,0.0010000000000000009
973998,9483,-11257,129457,-684,-11605,130644,263,19208,1077,1,41847,0.0010000000000000009
974999,5737,-2940,131135,-7796,4737,129368,347,19204,1421,1,41848,0.0010010000000000296
975998,15527,-8314,130770,1793,-13609,143344,242,19211,991,0,41849,0.0009989999999999721
976998,8644,-2706,125821,7993,6596,114338,320,19209,1311,0,41850,0.0010000000000000009
977998,14232,4573,123787,1043,-2714,128664,279,19209,1311,1,41851,0.0010000000000000009
978999,15573,-1100,121014,20337,2244,121079,188,19195,1143,1,41852,0.0010010000000000296
979998,12379,-2095,122668,-13628,-10814,124685,188,19221,770,0,41853,0.0009989999999999721
980998,25234,-8894,123553,4475,4244,116831,291,19197,1192,0,41854,0.0010000000000000009
981998,7195,19199,124590,37443,9531,117940,303,19198,1241,0,41855,0.0010000000000000009
982998,-578,-13893,121703,-29969,-14604,128804,384,19224,1573,1,41856,0.0010000000000000009
983998,4114,59,121825,-16524,1360,117078,213,19224,1573,0,41857,0.0010000000000000009
984998,12212,7356,121756,19549,9735,120129,266,19200,872,0,41858,0.0010000000000000009
985998,15153,27508,122642,2957,24721,99824,266,19199,1089,1,41859,0.0010000000000000009
987000,5803,-11577,123167,-9391,-24762,140156,351,19211,1438,1,41860,0.0010020000000000584
988000,5322,-16112,121931,-8694,-7024,125817,233,19213,954,0,41861,0.0010000000000000009
988998,4953,23953,133548,-3992,20622,118872,351,19207,1438,0,41862,0.0009979999999999434
990001,-166,13025,129558,-8206,10214,127939,281,19207,1438,1,41863,0.0010029999999999761
990999,-17,-336,130621,-19230,-11040,133323,190,19202,1151,1,41864,0.0009980000000000544
991998,2669,-14940,128620,-1972,-11004,140338,190,19222,778,0,41865,0.0009989999999999721
993000,10758,12694,134439,-2459,15131,118297,286,19200,1171,0,41866,0.0010020000000000584
993999,5513,2089,131092,3639,-1931,138561,302,19198,1237,1,41867,0.0009989999999999721
995000,5675,-5101,134819,-18397,-5646,136179,358,19224,1466,1,41868,0.0010010000000000296
995998,12247,-494,132984,-4440,-2762,138934,224,19224,1466,0,41869,0.0009979999999999434
996999,10165,-3200,130749,14334,-5525,134754,259,19206,917,0,41870,0.0010010000000000296
997998,7307,-522,130923,-1719,-2937,128656,259,19206,1061,1,41871,0.0009989999999999721
998998,5506,-17578,130173,-11483,-16522,139620,343,19206,1405,1,41872,0.0010000000000000009
999998,16449,5871,128963,10247,8656,126331,227,19218,930,0,41873,0.0010000000000000009
1000998,11748,2874,128767,7892,-1823,133726,323,19212,1323,0,41874,0.001000000000000112
1001998,12620,-14546,118754,-6708,-4666,115639,276,19212,1130,1,41875,0.0009999999999998899
1002999,18968,18308,124837,26420,11021,125568,184,19193,1130,1,41876,0.0010010000000000296
1004000,10060,-27196,115953,4977,-24722,132020,280,19223,754,0,41877,0.0010010000000000296
1004998,19853,15571,126480,-23181,16177,109290,280,19199,1147,0,41878,0.0009980000000000544
1005999,5492,-10711,121953,42698,-11290,132723,302,19197,1237,1,41879,0.0010009999999998076
1006998,368,16540,124544,-15633,16602,103934,409,19230,1675,1,41880,0.0009990000000001942
1007998,5793,-13738,120970,-25093,-15999,140760,216,19230,885,0,41881,0.0009999999999998899
1008998,8152,11872,120052,14325,12596,110038,278,19200,885,0,41882,0.001000000000000112
1009998,14171,29988,125215,3337,29234,104566,345,19202,1139,1,41883,0.0009999999999998899
1010998,3904,-12874,124447,-10356,-13337,129784,345,19210,1413,1,41884,0.001000000000000112
1011998,9114,-11189,124427,-5472,-12738,129564,233,19216,954,0,41885,0.0009999999999998899
1012998,-509,704,129242,-1689,-106,133937,360,19207,1474,0,41886,0.001000000000000112
1014000,4390,35079,133139,-18321,34099,104507,281,19207,1151,1,41887,0.0010019999999999474
1015000,-1798,-11537,126565,-1459,-13972,145872,181,19198,1151,1,41888,0.0009999999999998899
1015998,4990,-3323,131391,-18528,-4790,131750,280,19221,741,0,41889,0.0009980000000000544
1016998,11244,3805,134522,-4390,5144,134957,280,19198,1147,0,41890,0.0009999999999998899
1017998,1290,2980,131897,12784,434,129967,305,19203,1249,1,41891,0.001000000000000112
1018998,7158,-5401,133857,-21665,-5711,147429,371,19225,1520,1,41892,0.0009999999999998899
1020000,7459,-7769,130762,-5107,-10788,129624,212,19203,868,0,41893,0.0010020000000001694
1021000,14344,14078,131724,8450,-1130,132685,255,19203,868,0,41894,0.0009999999999998899
1021998,6542,-14860,128443,3557,-8913,131563,332,19207,1044,1,41895,0.0009980000000000544
1022998,10183,556,133737,-10070,-71,132142,332,19200,1360,1,41896,0.0009999999999998899
1023998,15026,-12236,126323,10349,-14661,139423,226,19221,926,0,41897,0.001000000000000112
1025000,7901,3990,128266,4072,11794,115340,332,19209,1360,0,41898,0.0010019999999999474
1025998,15733,2220,122248,18756,-2279,128265,282,19193,1155,1,41899,0.0009980000000000544
1027000,11379,-1669,122100,14273,-1115,123235,235,19193,1155,1,41900,0.0010019999999999474
1027998,20301,-790,124364,-15444,-3662,121914,273,19220,962,0,41901,0.0009980000000000544
1028998,19523,-7450,123265,21645,1256,120569,273,19191,1118,0,41902,0.0009999999999998899
1029998,2421,7621,122619,19227,4217,121337,300,19202,1229,1,41903,0.001000000000000112
1030998,-155,-10379,122509,-32390,-14070,126234,417,19229,1708,1,41904,0.0009999999999998899
1031998,3608,3750,119036,4668,8871,117855,226,19206,926,0,41905,0.001000000000000112
1033000,15641,13969,121667,7516,12590,113029,288,19206,926,0,41906,0.0010019999999999474
1034001,7657,18608,122563,-1734,17314,106268,336,19204,1180,1,41907,0.0010010000000000296
1034998,8477,-9935,125499,-3992,-21091,138965,336,19205,1376,1,41908,0.0009969999999999146
1035998,8506,-14481,123692,2887,-4747,127329,228,19216,934,0,41909,0.001000000000000112
1036998,905,19396,131197,-11238,20006,118107,357,19209,1462,0,41910,0.0009999999999998899
1037999,658,14862,131286,-14512,10708,126124,282,19205,1155,1,41911,0.0010010000000000296
1038998,793,329,128312,-8509,-6893,133077,180,19205,1155,1,41912,0.0009989999999999721
1039999,3589,-6702,132401,-7152,-7304,138233,271,19223,737,0,41913,0.0010010000000000296
1040998,8446,4473,132601,-3547,6814,123696,271,19191,1110,0,41914,0.0009989999999999721
1041998,4998,2565,133242,7324,-5498,136357,302,19202,1237,1,41915,0.001000000000000112
1042998,4195,269,133987,-19039,-1279,137669,381,19227,1560,1,41916,0.0009999999999998899
1044001,16055,-851,131624,-5238,40,134268,208,19211,852,0,41917,0.0010030000000000872
1044998,10433,1798,132721,18208,-13,133048,263,19211,1077,0,41918,0.0009969999999999146
1045998,8848,-4650,129944,-4733,-9728,131617,324,19204,1077,1,41919,0.001000000000000112
1046998,3636,-15236,130739,-7257,-13323,135582,217,19194,1327,1,41920,0.0009999999999998899
1047998,12970,2363,130647,11256,3472,132609,217,19218,889,0,41921,0.001000000000000112
1048999,11477,-691,127551,-1293,-2996,127969,333,19208,1364,0,41922,0.0010010000000000296
1049998,11669,-3815,120128,-999,-2752,118603,277,19199,1135,1,41923,0.0009989999999999721
1050998,22536,10272,124956,26743,5496,122428,253,19199,1036,1,41924,0.0009999999999998899
1051998,10403,-21036,114997,12370,-20944,131959,265,19226,1036,0,41925,0.001000000000000112
1052998,15571,5339,126897,-34931,7710,114600,298,19198,1085,0,41926,0.0009999999999998899
1053998,7843,-2540,119575,41014,-5425,125746,298,19199,1221,1,41927,0.001000000000000112
1054998,-1925,10527,123875,-2650,9435,116168,403,19223,1651,1,41928,0.0009999999999998899
1055998,7518,-17671,117840,-35306,-17857,132979,219,19202,897,0,41929,0.001000000000000112
1056998,4841,3022,118465,17007,3050,115041,291,19202,1192,0,41930,0.0009999999999998899
1057998,18219,36884,124013,5406,35934,101462,331,19202,1192,1,41931,0.001000000000000112
1058998,4646,-4108,125983,-5708,-3986,125825,229,19206,1356,1,41932,0.0009999999999998899
1059998,7075,-16067,121489,-11394,-17959,134650,229,19216,938,0,41933,0.001000000000000112
1060998,-1111,1105,132281,-1108,731,131392,350,19208,1433,0,41934,0.0009999999999998899
1061998,1099,26362,130374,-15161,24464,110902,278,19198,1139,1,41935,0.001000000000000112
1062998,591,699,128891,-4848,-1843,139587,184,19198,754,1,41936,0.0009999999999998899
1063998,3038,-11325,129520,-12884,-13322,125137,265,19219,754,0,41937,0.001000000000000112
1064998,13905,11015,134372,-13057,12097,128875,300,19199,1085,0,41938,0.0009999999999998899
1065998,-168,4169,133061,17294,3071,134024,300,19204,1229,1,41939,0.001000000000000112
1066998,7427,-6676,134157,-18888,-5772,144605,393,19228,1610,1,41940,0.0009999999999998899
1067998,8389,-10661,131470,-11515,-14185,133236,208,19213,852,0,41941,0.001000000000000112
1069001,12631,11694,133548,10217,-4198,132011,269,19207,1102,0,41942,0.0010029999999998651
1070000,8886,-11048,130407,7278,-9428,128539,323,19207,1102,1,41943,0.0009990000000001942
1070999,4425,4186,133516,-11878,755,132107,226,19203,1323,1,41944,0.0009989999999999721
1071998,19722,-12294,129264,-2711,-13222,142322,226,19221,926,0,41945,0.0009989999999999721
1072998,4334,624,125384,8878,11663,111676,339,19203,1388,0,41946,0.0009999999999998899
1074000,21190,6174,125141,9694,-4711,131051,282,19198,1155,1,41947,0.0010019999999999474
1074998,7330,-5021,120079,18840,-958,118343,280,19220,1147,1,41948,0.0009980000000000544
1075998,18373,-3145,124711,-26856,-7503,127035,272,19220,1147,0,41949,0.001000000000000112
1076998,26377,-9314,123795,34529,4852,114778,300,19197,1114,0,41950,0.0009999999999998899
1077998,-6494,14837,122569,17944,4011,120213,300,19202,1229,1,41951,0.001000000000000112
1078998,6173,-15816,120703,-51485,-12837,127102,393,19221,1610,1,41952,0.0009999999999998899
1079998,600,9297,120797,28916,12163,115674,225,19213,922,0,41953,0.001000000000000112
1080998,13037,7996,121242,4767,8616,121200,303,19200,1241,0,41954,0.0009999999999998899
1081998,13396,22089,124473,-22407,25281,95334,326,19200,1241,1,41955,0.001000000000000112
1082998,2643,-14211,125792,19314,-28131,153028,224,19209,1335,1,41956,0.0009999999999998899
1083998,12614,-18947,120774,-11577,-1745,121190,224,19216,917,0,41957,0.001000000000000112
1085000,-5048,27662,132801,-4895,23673,114803,335,19208,1372,0,41958,0.0010019999999999474
1085998,-3118,12512,130365,-18952,8692,131833,280,19201,1147,1,41959,0.0009980000000000544
1086998,4150,4918,130535,-18543,-2905,125881,216,19220,885,1,41960,0.0009999999999998899
1087998,5763,-18596,131636,18090,-17668,149270,268,19220,885,0,41961,0.001000000000000112
1088998,6668,12667,133756,-6980,13215,115271,300,19197,1098,0,41962,0.0009999999999998899
1089998,3283,-6649,131064,-14576,-8713,140948,300,19204,1229,1,41963,0.001000000000000112
1090998,9180,8255,137903,-2202,9873,136660,386,19231,1581,1,41964,0.0009999999999998899
1091998,15813,-3640,129750,5487,-6458,138172,207,19209,848,0,41965,0.001000000000000112
1092998,4655,-10,131912,3403,-2583,128856,275,19203,1126,0,41966,0.0009999999999998899
1093998,5111,-4733,129963,196,-10259,131052,313,19203,1282,1,41967,0.001000000000000112
1094998,7646,-15480,129629,-9637,-12324,139116,231,19199,1282,1,41968,0.0009999999999998899
1095998,18354,12352,133081,14729,12678,121611,330,19217,946,0,41969,0.001000000000000112
1096998,9837,4929,128149,3135,-1409,131238,330,19211,1352,0,41970,0.0009999999999998899
1097998,13136,-8152,122239,-1228,-2941,110715,277,19196,1135,1,41971,0.001000000000000112
1098998,14629,1665,124535,31748,-5121,137217,249,19224,1020,1,41972,0.0009999999999998899
1099999,14670,-29086,118344,-651,-24238,126338,258,19224,1057,0,41973,0.0010010000000000296
1100998,15852,31378,128901,-20173,32771,100823,294,19199,1057,0,41974,0.0009989999999999721
1101998,9295,-8024,121311,43506,-9337,137189,379,19208,1204,1,41975,0.001000000000000112
1102998,-6500,6129,121712,-19629,4595,104859,379,19218,1552,1,41976,0.0009999999999998899
1103998,5116,-25554,118764,-21180,-27059,147085,211,19221,864,0,41977,0.001000000000000112
1104998,8942,19444,120659,11703,20090,97611,309,19200,1266,0,41978,0.0009999999999998899
1105998,13095,31469,128017,11371,29879,109833,323,19200,1323,1,41979,0.001000000000000112
1106998,3667,-17855,124038,-16727,-17359,134295,220,19200,1323,1,41980,0.0009999999999998899
1107998,7612,-7711,125824,-4643,-7614,125024,321,19217,901,0,41981,0.001000000000000112
1108998,-2845,1779,129465,-3349,77,136571,321,19207,1315,0,41982,0.0009999999999998899
1109998,6644,30392,132055,-13052,29092,103660,277,19206,1135,1,41983,0.001000000000000112
1110998,-2391,-17168,128660,-3322,-19758,146470,228,19223,934,1,41984,0.0009999999999998899
1111998,8734,4504,129947,-17655,1431,115435,260,19197,1065,0,41985,0.001000000000000112
1112998,9310,5344,135414,615,8725,140980,295,19197,1065,0,41986,0.0009999999999998899
1113998,4058,1794,130885,9253,-1661,126780,373,19205,1208,1,41987,0.001000000000000112
1114999,4001,-7480,136105,-19734,-3962,149808,373,19223,1528,1,41988,0.0010009999999998076
1116005,10165,-4122,132477,-5962,5481,128554,215,19216,881,0,41989,0.0010060000000000624
1116998,11559,14814,133200,9771,-3619,132013,286,19199,1171,0,41990,0.0009930000000000216
1118000,5233,-16277,129738,9650,-11652,134312,317,19189,1298,1,41991,0.0010019999999999474
1118999,9628,1811,133891,-16794,1385,128621,220,19189,1298,1,41992,0.0009989999999999721
1119998,14922,-8706,129105,16994,-12019,143261,315,19218,901,0,41993,0.0009990000000001942
1120998,8739,-1364,127467,707,7088,110034,315,19208,1290,0,41994,0.0009999999999998899
1121998,20942,15785,128588,14015,6638,126939,272,19201,1114,1,41995,0.001000000000000112
1123000,11599,-14294,118708,17881,-22522,129046,260,19225,1065,1,41996,0.0010019999999999474
1123998,16166,-1921,124124,-23620,-192,116968,248,19201,1016,0,41997,0.0009980000000000544
1124998,16583,-2510,124125,31052,-2793,124218,296,19201,1016,0,41998,0.0009999999999998899
1125998,-2028,7279,122426,14447,13959,112114,377,19204,1212,1,41999,0.001000000000000112
1126998,3076,-5680,122018,-46520,-11910,131488,377,19217,1544,1,42000,0.0009999999999998899
1127998,6786,-4086,118159,28043,9516,113854,209,19218,856,0,42001,0.001000000000000112
1129000,9702,27976,123562,8593,20612,109812,306,19204,1253,0,42002,0.0010019999999999474
1129998,13830,1610,125697,-24655,2390,113773,316,19197,1294,1,42003,0.0009980000000000544
1130998,6036,-11936,125081,11275,-16983,137257,221,19197,1294,1,42004,0.0009999999999998899
1131998,7622,-14420,126322,7681,-3227,133596,321,19218,905,0,42005,0.001000000000000112
1132999,-8612,29006,128724,-36126,29662,105532,321,19205,1315,0,42006,0.0010009999999998076
1133998,2749,11031,131672,-7844,2985,136241,281,19202,1151,1,42007,0.0009989999999999721
1134999,3487,-4335,127846,11708,-6847,132273,237,19227,971,1,42008,0.0010010000000000296
1136000,10629,-3233,133049,-19176,-1442,132637,250,19195,1024,0,42009,0.0010010000000000296
1137000,8213,1444,132235,-147,4019,130802,292,19195,1196,0,42010,0.001000000000000112
1137998,2201,3370,134297,3731,479,135278,371,19200,1196,1,42011,0.0009979999999998324
1138999,4757,-8066,133994,-20798,-6206,141985,208,19221,1520,1,42012,0.0010010000000000296
1139998,10157,6324,134520,10460,4657,129729,208,19221,852,0,42013,0.0009989999999999721
1140998,7431,-1542,130032,6378,-6696,135841,291,19203,1192,0,42014,0.001000000000000112
1141998,11399,-4667,130538,-10711,-4903,125176,311,19190,1274,1,42015,0.0009999999999998899
1142998,9253,-5703,133251,12312,-6493,137822,213,19190,872,1,42016,0.001000000000000112
1143998,15505,-1947,130842,5616,22,131239,306,19221,872,0,42017,0.0009999999999998899
1144998,7578,262,128476,-2870,-1764,125848,278,19208,1253,0,42018,0.001000000000000112
1145998,14161,-1593,126571,17543,380,122197,278,19209,1139,1,42019,0.0009999999999998899
1146998,16113,4666,120047,15191,-491,123562,279,19221,1143,1,42020,0.001000000000000112
1147998,13403,-8207,123393,-8854,-7185,120951,251,19195,1028,0,42021,0.0009999999999998899
1148998,21011,3656,126063,3645,5162,115874,293,19195,1200,0,42022,0.001000000000000112
1149998,2806,-3963,122309,37889,-5347,124696,366,19206,1200,1,42023,0.0009999999999998899
1150999,-3031,6078,125551,-35021,4537,116882,212,19209,1499,1,42024,0.0010010000000000296
1151998,9002,-8766,119616,-4907,-9572,125935,212,19214,868,0,42025,0.0009989999999999721
1153000,9302,22449,124218,18895,20722,108545,303,19205,1241,0,42026,0.0010020000000001694
1154000,14812,10910,124133,-354,10160,112747,320,19193,1311,1,42027,0.0009999999999998899
1154998,-829,-13025,123129,-12065,-12596,129968,217,19215,889,1,42028,0.0009980000000000544
1155998,11045,-4839,129555,-3732,-4663,132345,296,19215,889,0,42029,0.0009999999999998899
1156998,-4256,12201,128729,-4304,10925,118762,280,19200,1212,0,42030,0.001000000000000112
1157998,2549,18461,134094,-11464,18508,135395,280,19202,1147,1,42031,0.0009999999999998899
1158998,-924,-13198,126248,-9293,-17323,134321,264,19222,1081,1,42032,0.001000000000000112
1159998,8920,5182,132821,-10089,3603,127274,257,19197,1053,0,42033,0.0009999999999998899
1160998,12170,2548,134092,2583,3846,132451,291,19202,1192,0,42034,0.001000000000000112
1161998,697,2555,134741,6650,2410,134552,362,19202,1192,1,42035,0.0009999999999998899
1163000,6183,-8350,134745,-25920,-13076,145799,207,19213,1483,1,42036,0.0010020000000001694
1163998,10248,-1077,134112,5329,6762,129465,207,19219,848,0,42037,0.0009979999999998324
1164998,12637,8006,130946,10181,-2552,133005,286,19207,1171,0,42038,0.001000000000000112
1165998,6197,-10176,130170,-1216,-9280,128591,303,19187,1241,1,42039,0.0009999999999998899
1166998,9198,-1159,132729,-843,-1662,134240,204,19222,836,1,42040,0.001000000000000112
1167998,18502,-5920,130841,17294,-8093,135627,295,19222,836,0,42041,0.0009999999999998899
1168998,3743,-5056,124840,-1019,1695,114875,276,19197,1208,0,42042,0.001000000000000112
1169998,21558,15110,131076,7510,5886,125696,276,19204,1130,1,42043,0.0009999999999998899
1170998,12572,-12027,117333,23129,-19271,128342,276,19226,1130,1,42044,0.001000000000000112
1171998,17251,2449,125027,-29081,9567,115523,244,19197,999,0,42045,0.0009999999999998899
1172998,19281,-5777,124694,32505,-8168,125266,289,19201,1184,0,42046,0.001000000000000112
1173998,-4371,4896,120972,11855,7477,113940,358,19201,1184,1,42047,0.0009999999999998899
1174998,6262,-3420,123777,-44392,-9332,130964,211,19205,1466,1,42048,0.001000000000000112
1175998,4558,-3971,118441,30461,6560,112718,211,19216,864,0,42049,0.0009999999999998899
1176998,10099,33384,126426,-6114,23338,108421,307,19202,1257,0,42050,0.001000000000000112
1177998,13650,-1693,124189,-10097,-11921,121334,312,19188,1278,1,42051,0.0009999999999998899
1178998,205,-12611,124725,7779,-12717,133069,212,19218,868,1,42052,0.001000000000000112
1179998,10533,-6129,129254,-10124,1999,132050,297,19218,868,0,42053,0.0009999999999998899
1180998,-6327,22417,129947,-15455,26070,107425,280,19200,1216,0,42054,0.001000000000000112
1181998,5155,9816,131080,-4686,-1944,142655,280,19207,1147,1,42055,0.0009999999999998899
1182998,-8,-14701,124918,-5624,-13125,130678,275,19218,1126,1,42056,0.001000000000000112
1183998,10045,6766,134568,-15871,8303,128044,252,19198,1032,0,42057,0.0009999999999998899
1184998,8991,-1373,132553,12084,-1154,134863,290,19201,1188,0,42058,0.001000000000000112
1185998,1535,3875,133909,-9855,1867,130867,351,19201,1438,1,42059,0.0009999999999998899
1186998,8144,-11773,131823,-14604,-11026,149034,204,19210,1438,1,42060,0.001000000000000112
1188003,7501,6668,134239,13711,7241,123524,282,19218,836,0,42061,0.0010049999999999226
1188998,13853,394,130223,1016,-6175,137360,282,19207,1155,0,42062,0.0009950000000000792
1190001,5438,-6779,131297,-4839,-5869,126653,303,19187,1241,1,42063,0.0010029999999998651
1190998,12730,-1297,132122,4601,1446,136884,204,19225,836,1,42064,0.0009970000000001367
1191998,13859,-8570,129897,8383,-6831,132109,285,19225,1167,0,42065,0.0009999999999998899
1192998,8910,7182,124862,-1263,5925,119638,276,19204,1167,0,42066,0.001000000000000112
1193998,17090,-2229,129969,15280,-1764,125491,283,19206,1130,1,42067,0.0009999999999998899
1194998,12679,5555,119187,19002,1214,121082,283,19226,1159,1,42068,0.001000000000000112
1195998,18286,-13403,123542,-13758,-14667,127202,239,19197,979,0,42069,0.0009999999999998899
1196998,13981,7369,124941,7854,9528,111445,283,19206,1159,0,42070,0.001000000000000112
1197998,3900,875,124719,32152,-611,128792,354,19201,1450,1,42071,0.0009999999999998899
1198998,-3728,-87,123510,-35241,-593,118205,209,19201,1450,1,42072,0.001000000000000112
1199999,8890,882,123837,-6941,1281,119051,308,19215,856,0,42073,0.0010010000000000296
1200998,13212,19873,122572,26746,16903,114089,308,19203,1261,0,42074,0.0009989999999999721
1201998,11204,10541,125978,-3127,10381,108482,308,19185,1261,1,42075,0.0009999999999998899
1202998,3448,-20558,123409,-15243,-19320,137263,202,19218,827,1,42076,0.001000000000000112
1203998,7939,1196,129620,3565,1517,123898,289,19198,1184,0,42077,0.0009999999999998899
1204998,-12,14276,131631,-8275,13741,123794,284,19198,1184,0,42078,0.001000000000000112
1205998,-774,12879,130985,-9633,12363,131761,272,19209,1163,1,42079,0.0009999999999998899
1206998,1634,-14305,128003,-6953,-17152,138934,272,19220,1114,1,42080,0.001000000000000112
1207999,8452,5148,130484,-11129,2160,119842,249,19194,1020,0,42081,0.0010010000000000296
1208998,9288,8868,134930,2035,9707,138161,284,19205,1163,0,42082,0.0009989999999999721
1209998,4700,-6609,133601,5134,-2429,135434,349,19209,1429,1,42083,0.0009999999999998899
1210998,6301,-3715,133576,-17881,-5506,141647,209,19209,1429,1,42084,0.001000000000000112
1212001,11959,-5171,132732,3512,-1111,134733,283,19219,856,0,42085,0.0010029999999998651
1213000,10721,9576,130509,12066,-20,127363,283,19206,1159,0,42086,0.0009989999999999721
1213998,6661,-8307,130916,-3596,-10701,137095,300,19187,1229,1,42087,0.0009980000000000544
1214998,9711,-3089,133045,1142,-2174,128839,227,19220,930,1,42088,0.001000000000000112
1215998,14538,-3021,131656,12801,-6417,138078,287,19200,1175,0,42089,0.0009999999999998899
1216998,9395,-11090,123152,-1635,-3711,117915,282,19200,1175,0,42090,0.001000000000000112
1217998,18430,21482,130179,13530,18739,120531,320,19201,1155,1,42091,0.0009999999999998899
1218998,16886,-12733,116457,16155,-22960,134247,320,19220,1311,1,42092,0.001000000000000112
1219998,19079,-1932,123633,-19666,7804,111342,240,19195,983,0,42093,0.0009999999999998899
1220998,14674,-3149,124956,28650,-9821,129402,281,19202,1151,0,42094,0.001000000000000112
1221998,-2154,5831,123221,550,12522,108835,336,19205,1376,1,42095,0.0009999999999998899
1222998,3788,-872,123742,-30689,-14256,136587,206,19205,1376,1,42096,0.001000000000000112
1223998,6387,-10291,119408,19200,-34,112755,313,19223,844,0,42097,0.0009999999999998899
1224998,14259,40053,123368,918,34845,101855,313,19207,1282,0,42098,0.001000000000000112
1225999,9452,-4135,124258,-5468,-13675,127332,302,19186,1237,1,42099,0.0010009999999998076
1226998,3978,-10518,124051,-7435,-8904,126847,202,19220,827,1,42100,0.0009990000000001942
1227998,8648,-5755,130277,-2302,-4091,136952,280,19199,1147,0,42101,0.0009999999999998899
1228998,-4859,24864,129914,-12960,29807,104815,276,19199,1130,0,42102,0.001000000000000112
1229998,1552,6677,131747,-8309,-9301,143113,266,19210,1130,1,42103,0.0009999999999998899
1230998,-321,-19725,126334,-14659,-14966,132939,235,19224,1089,1,42104,0.001000000000000112
1232008,13065,14530,134700,-7347,9980,124093,235,19197,962,0,42105,0.0010099999999999554
1232998,5766,-274,132046,10838,-306,136008,274,19205,1122,0,42106,0.0009900000000000464
1233998,4981,1305,134037,-16625,49,130873,338,19207,1384,1,42107,0.0009999999999998899
1234998,6324,-17177,133108,-7589,-14953,150896,216,19207,885,1,42108,0.001000000000000112
1235998,10492,14435,133701,10707,14117,123065,288,19218,885,0,42109,0.0009999999999998899
1237010,12070,-6098,128247,483,-12201,137511,300,19204,1180,0,42110,0.0010120000000000129
1237998,5393,-8413,129346,-5129,-4778,128030,300,19191,1229,1,42111,0.0009879999999999889
1238998,13921,-1253,133790,4199,-2831,137231,234,19220,958,1,42112,0.001000000000000112
1239998,10776,-13215,127297,8183,-10688,132033,278,19201,1139,0,42113,0.0009999999999998899
1241000,13855,11412,128243,-976,10337,118141,276,19201,1130,0,42114,0.0010019999999999474
1242000,14860,-3854,124054,25006,-6037,129235,300,19208,1130,1,42115,0.001000000000000112
1242998,8881,2894,119637,2974,11,119706,230,19225,1229,1,42116,0.0009980000000000544
1243998,24532,-13673,121650,-17151,-12278,125535,230,19197,942,0,42117,0.0009999999999998899
1244999,9945,15358,125101,35958,18077,111392,298,19202,1221,0,42118,0.0010010000000000296
1246001,5206,-5906,124354,6001,-7631,129809,341,19204,1397,1,42119,0.0010019999999999474
1247000,502,-3896,123050,-33471,-3262,119237,208,19221,852,1,42120,0.0009989999999999721
1247998,8250,6900,125349,12444,6381,119703,311,19221,852,0,42121,0.0009980000000000544
1248998,15825,24427,122921,12430,22334,107102,301,19204,1274,0,42122,0.001000000000000112
1249998,7015,3638,124859,-6451,3600,114137,301,19190,1233,1,42123,0.0009999999999998899
1250998,5746,-24400,122957,-8304,-23934,142454,207,19222,848,1,42124,0.001000000000000112
1251998,4556,16546,130768,445,16236,114169,277,19196,1135,0,42125,0.0009999999999998899
1252998,-603,16980,132006,-10916,15778,127884,281,19215,1151,0,42126,0.0009999999999998899
1253998,-354,2588,132339,-12051,3528,132958,280,19215,1151,1,42127,0.001000000000000112
1254998,4220,-11163,127937,-4115,-14440,139484,232,19225,1147,1,42128,0.0009999999999998899
1256000,11305,3779,131748,-6189,16824,117785,232,19199,950,0,42129,0.0010020000000001694
1256998,6166,8980,133220,1557,-4837,138804,277,19200,1135,0,42130,0.0009979999999998324
1257998,6647,-11811,135056,-3115,-3557,137608,334,19206,1368,1,42131,0.001000000000000112
1258998,7853,2668,136043,-15798,-2569,138741,206,19225,844,1,42132,0.0009999999999998899
1259998,9508,-6772,131945,10361,-7066,136466,288,19225,844,0,42133,0.001000000000000112
1261000,9526,5493,129411,8024,4312,124614,299,19210,1180,0,42134,0.0010019999999999474
1261998,9087,-11627,129603,-8286,-12179,138948,299,19191,1225,1,42135,0.0009980000000000544
1262999,12944,409,131634,10084,3512,126033,253,19223,1036,1,42136,0.0010010000000000296
1263998,13418,4187,131668,5311,-5510,136240,268,19200,1098,0,42137,0.0009989999999999721
1264998,10179,-20159,120195,-6371,-3799,118599,277,19213,1135,0,42138,0.0009999999999998899
1265998,18585,23575,128672,20488,13455,124313,354,19213,1135,1,42139,0.001000000000000112
1266998,12692,-23337,114536,8688,-24513,131373,230,19226,1450,1,42140,0.0009999999999998899
1267998,19868,15595,124427,-20028,21312,105502,230,19203,942,0,42141,0.001000000000000112
1268999,12653,-10399,123470,36730,-18241,135398,305,19206,1249,0,42142,0.0010010000000000296
1269998,403,4922,122036,-7875,13435,106112,336,19194,1376,1,42143,0.0009989999999999721
1271001,3181,-4686,123982,-24707,-17326,141376,221,19219,905,1,42144,0.0010030000000000872
1272000,3918,-1253,119179,11885,15671,105272,322,19219,905,0,42145,0.0009989999999999721
1272998,14450,43655,124785,1837,33243,107884,299,19205,1319,0,42146,0.0009979999999998324
1273998,8333,-21553,121324,-4371,-24712,133599,299,19193,1225,1,42147,0.001000000000000112
1274998,6667,-3265,125939,-4712,-2577,120646,231,19228,946,1,42148,0.0009999999999998899
1275998,5491,-6833,129224,-5043,-5163,138388,274,19190,1122,0,42149,0.001000000000000112
1276998,-1867,32968,131598,-16143,36096,100191,284,19209,1163,0,42150,0.0009999999999998899
1277998,106,-1349,130625,-2560,-20412,150977,290,19209,1188,1,42151,0.001000000000000112
1278998,1860,-13782,127532,-16914,-3969,127930,228,19228,1188,1,42152,0.0009999999999998899
1279998,12557,13831,135530,-5056,7995,125508,284,19202,934,0,42153,0.001000000000000112
1280998,2673,-4521,131097,10037,-3681,137940,284,19203,1163,0,42154,0.0009999999999998899
1281998,8326,4179,135979,-18387,1226,129494,329,19209,1347,1,42155,0.001000000000000112
1283001,7851,-17136,131424,-4588,-14632,151433,205,19222,840,1,42156,0.0010029999999998651
1283998,13162,15580,132574,7513,13564,120746,291,19222,1192,0,42157,0.0009970000000001367
1284998,6696,-13504,126639,1617,-18921,137377,293,19201,1192,0,42158,0.0009999999999998899
1285998,7936,-767,132857,-10114,-67,125973,286,19193,1200,1,42159,0.001000000000000112
1286998,12673,-2688,131399,8419,-5382,138270,286,19221,1171,1,42160,0.0009999999999998899
1287998,11078,-11824,127279,6546,-9492,132233,268,19203,1098,0,42161,0.001000000000000112
1288998,13566,7588,124924,-1574,7383,114374,278,19206,1139,0,42162,0.0009999999999998899
1289998,16465,-3472,122045,24355,-6005,132469,375,19227,1536,1,42163,0.001000000000000112
1290998,11234,3218,120909,4117,920,118605,230,19227,1536,1,42164,0.0009999999999998899
1291998,25390,-13034,122980,-21086,-10261,124797,311,19205,942,0,42165,0.001000000000000112
1292998,8472,12258,125260,39396,11722,113381,311,19206,1274,0,42166,0.0009999999999998899
1293998,-6,-9003,122367,-2138,-10480,127646,323,19194,1323,1,42167,0.001000000000000112
1294998,4315,-3297,122142,-32848,-3360,122548,204,19222,836,1,42168,0.0009999999999998899
1295998,9270,11812,120250,24478,9841,117732,317,19209,1298,0,42169,0.001000000000000112
1296999,15030,26438,123609,-3074,24929,104105,300,19209,1298,0,42170,0.0010010000000000296
1297998,9861,-5102,122385,-6630,-4934,121500,246,19196,1229,1,42171,0.0009989999999999721
1298998,5369,-18860,124337,4729,-21248,142906,246,19223,1008,1,42172,0.0009999999999998899
1299998,3866,12577,130349,-4444,12376,117502,263,19199,1077,0,42173,0.001000000000000112
1300998,-1545,15893,130905,-14217,14811,124481,278,19207,1139,0,42174,0.0009999999999998899
1301998,4516,7654,130136,-13473,7873,134070,307,19227,1257,1,42175,0.001000000000000112
1302998,1888,-10169,130307,-4161,-11286,138440,230,19227,1257,1,42176,0.0009999999999998899
1303998,11284,2351,134318,-10300,9049,123543,295,19205,942,0,42177,0.001000000000000112
1304998,-1112,1488,132715,11498,-13742,140471,295,19200,1208,0,42178,0.0009999999999998899
1305998,6426,-690,134871,-12132,4451,133833,323,19201,1323,1,42179,0.001000000000000112
1306998,14345,4215,134613,-14860,1560,137519,201,19224,823,1,42180,0.0009999999999998899
1308000,15477,-1232,132061,16684,-1714,132729,291,19203,1192,0,42181,0.0010020000000001694
1308998,9562,467,128566,-6374,-10033,130157,292,19203,1192,0,42182,0.0009979999999998324
1310003,3050,-20497,131605,-12328,-15826,139760,304,19194,1196,1,42183,0.0010050000000001447
1311000,16296,-1687,131503,18329,5481,128736,304,19223,1245,1,42184,0.0009969999999999146
1311998,10864,3483,130135,2728,3801,129470,263,19200,1077,0,42185,0.0009980000000000544
1312998,6238,-1726,122769,-17055,-7216,121954,278,19206,1139,0,42186,0.0009999999999998899
1314000,20841,3238,124260,33925,3789,119534,366,19224,1499,1,42187,0.0010019999999999474
1314998,13542,-7327,116537,21825,-18340,137064,239,19224,1499,1,42188,0.0009980000000000544
1315998,18648,-5631,125187,-45751,8737,106078,319,19204,979,0,42189,0.001000000000000112
1316999,14342,16387,127689,37414,5738,123723,319,19205,1307,0,42190,0.0010010000000000296
1317998,3438,-3214,123440,10230,-2550,125656,324,19190,1327,1,42191,0.0009989999999999721
1318998,2602,-7639,123112,-41863,-6772,121976,210,19221,860,1,42192,0.0009999999999998899
1320000,6358,-12465,117122,16839,-8556,127565,315,19210,1290,0,42193,0.0010019999999999474
1320998,14805,34308,120715,2508,41153,93074,297,19210,1216,1,42194,0.0009980000000000544
1322001,9730,16283,127580,-4960,1378,125310,263,19192,1216,1,42195,0.0010030000000000872
1322998,4926,-19017,121288,-7592,-18633,134644,255,19228,1077,1,42196,0.0009969999999999146
1323998,3153,-6733,129737,-2782,-5449,130555,255,19195,1044,0,42197,0.001000000000000112
1324998,-5185,16370,130668,-19491,20026,119078,275,19205,1126,1,42198,0.0009999999999998899
1325998,4333,21011,130581,-467,7918,128718,327,19223,1339,1,42199,0.001000000000000112
1326998,-3296,-16119,130225,-12420,-13868,141730,240,19223,983,0,42200,0.0009999999999998899
1327998,13091,8727,133760,-22171,10731,120457,305,19205,983,0,42201,0.001000000000000112
1329000,3126,1153,134462,20910,-982,136316,318,19206,1249,0,42202,0.0010019999999999474
1329998,7779,1119,135065,-11494,-2341,134872,318,19195,1302,1,42203,0.0009980000000000544
1330998,9812,-12458,131310,-16056,-13637,141782,201,19224,823,0,42204,0.0009999999999998899
1331998,11831,5217,133462,9851,2691,132235,298,19208,1221,0,42205,0.001000000000000112
1332998,12712,-3230,129971,10676,-5881,131865,291,19197,1192,1,42206,0.0009999999999998899
1334000,3826,-4993,132056,-7189,-4587,130208,318,19197,1192,1,42207,0.0010019999999999474
1334998,15313,-1788,131946,-8282,-3976,135328,259,19225,1302,1,42208,0.0009980000000000544
1335999,8267,-8581,124438,16960,-8164,130404,259,19199,1061,0,42209,0.0010010000000000296
1336998,16061,11186,126609,-3720,10534,119490,273,19209,1118,1,42210,0.0009989999999999721
1337999,16623,-8379,119406,25588,-10881,127669,357,19225,1462,1,42211,0.0010010000000000296
1338998,9207,-2035,121004,709,-2949,119285,229,19209,938,0,42212,0.0009989999999999721
1339998,31107,-11538,125644,-18281,-8435,123364,330,19209,938,0,42213,0.001000000000000112
1340998,-296,16277,123648,48436,13579,112882,311,19209,1352,0,42214,0.0009999999999998899
1341998,2784,-8063,123714,-23644,-8621,129066,311,19189,1274,1,42215,0.001000000000000112
1342998,4570,1543,121365,-26794,1449,114680,197,19224,807,0,42216,0.0009999999999998899
1344000,6735,6057,121176,36796,3538,127896,298,19203,1221,0,42217,0.0010019999999999474
1345000,17530,19436,122766,-21553,19361,101050,297,19192,1216,1,42218,0.001000000000000112
1345998,6123,1060,124869,-1013,1684,119049,286,19192,1216,1,42219,0.0009980000000000544
1346998,7672,-23594,120917,10288,-28732,125145,259,19223,1171,1,42220,0.0009999999999998899
1347998,3259,16164,129747,-17886,17595,115633,259,19193,1061,0,42221,0.001000000000000112
1348998,-4815,14753,130470,-7673,12893,130721,274,19206,1122,1,42222,0.0009999999999998899
