t_us,ax,ay,az,ax1,ay1,az1,shunt_raw,bus_raw,curr_raw,pg_rpm,seq,dt
0,-6919,2129,123611,-29091,-1050,122142,758,19179,3105,0,17627,
1000,-5742,-17900,118792,-16381,-22755,126697,688,19128,2818,1,17628,0.001
2000,-8599,9517,125196,10010,14291,110483,794,19128,3252,1,17629,0.001
3000,56,12374,126867,-21956,13032,119027,642,19174,3252,0,17630,0.001
4000,-5799,7282,123138,-18470,3725,126507,642,19129,2629,0,17631,0.001
5000,1962,13694,123157,-2,10585,111383,527,19171,2158,1,17632,0.001
6002,-11044,5921,123684,-2933,5404,127532,789,19197,3232,1,17633,0.0010019999999999994
7000,3038,-12176,122647,-19145,-16695,124448,604,19144,2474,1,17634,0.0009979999999999998
8000,-1962,15380,131820,-4611,17773,129667,851,19144,3485,0,17635,0.0010000000000000009
9000,1197,-3135,127369,935,-2829,125584,706,19172,3485,0,17636,0.0009999999999999992
10000,-830,25731,134710,-5723,7009,130418,428,19117,2892,1,17637,0.0010000000000000009
11000,6543,-8777,128795,-2973,-17650,144012,428,19171,1753,0,17638,0.0009999999999999992
12000,16260,-5408,132278,19896,-8340,136258,647,19170,2650,0,17639,0.0010000000000000009
13002,4140,-24065,131746,-5575,-17504,141380,686,19130,2810,0,17640,0.0010019999999999994
14000,9402,-6717,138146,460,-5594,135547,1054,19130,4317,1,17641,0.0009979999999999989
15002,9925,-9086,135086,13096,2745,132149,656,19199,4317,0,17642,0.0010020000000000012
16002,9132,6466,135181,5277,-6836,143477,569,19153,2687,0,17643,0.0009999999999999992
17001,14673,-17030,127371,-4663,-14601,131919,569,19159,2330,1,17644,0.0009989999999999999
18001,-3950,6096,130646,20827,18540,122672,672,19183,2752,1,17645,0.0010000000000000009
19002,10840,3330,124608,9502,-2120,129880,660,19140,2703,0,17646,0.0010009999999999984
20001,-3554,3144,124581,-11353,6070,121361,802,19169,3285,0,17647,0.0009989999999999999
21000,-8505,6537,130413,-17057,4892,127499,709,19169,3285,1,17648,0.0009989999999999999
22000,7913,17753,121541,2588,17451,119405,485,19148,2904,1,17649,0.0010000000000000009
23002,-8843,21032,125710,1351,17662,106644,485,19171,1986,0,17650,0.0010019999999999994
24002,-1773,5404,123288,-17855,-8521,128648,731,19181,2994,0,17651,0.0010000000000000009
25000,-13609,-20254,115251,-15105,-5851,114304,685,19135,2806,1,17652,0.0009979999999999989
26000,-4898,15954,128450,-2382,13006,119164,748,19183,3064,1,17653,0.0010000000000000009
27000,1871,-2784,121384,-14198,-1770,124331,637,19183,3064,0,17654,0.0010000000000000009
28000,-6517,17871,123055,-22793,19803,110247,504,19131,2609,0,17655,0.0009999999999999974
29002,-1766,18728,126731,-4376,6978,122175,504,19159,2064,1,17656,0.0010020000000000029
30000,-8572,-1744,122351,-4309,-1366,125439,773,19191,3166,1,17657,0.0009979999999999989
31000,-2690,-9634,121869,-3507,-7801,122292,596,19145,2441,1,17658,0.0010000000000000009
32000,1072,9651,132424,-20769,7249,131812,891,19173,3649,0,17659,0.0010000000000000009
33000,-882,4411,128063,2641,10694,123244,707,19173,3649,1,17660,0.0010000000000000009
34004,-2520,24521,136183,-355,16955,123348,417,19124,2896,1,17661,0.001003999999999998
35000,12465,-10135,130496,-13788,-24169,155213,417,19178,1708,0,17662,0.0009959999999999969
36000,7033,-20122,129035,25010,-11276,133368,674,19178,2761,0,17663,0.0010000000000000009
37000,12461,-8779,135332,8625,-9404,130633,679,19130,2781,0,17664,0.0010000000000000009
38003,3753,-12425,135421,-11518,-14389,148381,1048,19199,4292,1,17665,0.001002999999999997
39000,14000,-5821,137279,10792,1174,131509,641,19199,4292,0,17666,0.0009970000000000048
40000,9401,6514,135733,20617,-1239,140949,562,19151,2625,0,17667,0.0010000000000000009
41000,5572,-14205,127924,-14381,-13476,134647,562,19160,2302,1,17668,0.000999999999999994
42002,3384,12558,133011,8534,17533,117041,719,19182,2945,1,17669,0.0010020000000000029
43000,101,-7305,124688,22833,-12694,138888,663,19136,2715,0,17670,0.0009979999999999989
44000,780,6243,125354,-16949,11973,116301,835,19165,3420,0,17671,0.0010000000000000009
45003,-6877,11775,127013,-18275,8159,125786,704,19165,2883,1,17672,0.0010030000000000039
46000,4786,19560,124789,8146,19226,121171,467,19141,2883,1,17673,0.0009969999999999979
47000,-6988,12867,122809,188,10522,106442,467,19172,1913,0,17674,0.0010000000000000009
48000,-9168,2942,124094,-29926,-591,127335,729,19177,2986,0,17675,0.0010000000000000009
49003,-8000,-21713,116733,-8985,-23119,124337,684,19136,2801,1,17676,0.001002999999999997
50001,-6558,17274,125746,5531,21070,119433,779,19183,3191,1,17677,0.0009979999999999989
51000,-2298,10538,126609,-27354,7685,122173,631,19183,2584,0,17678,0.0009989999999999999
52000,-2510,7652,121121,-19314,4930,112070,499,19125,2584,0,17679,0.0010000000000000009
53003,-5627,12918,127347,3174,13353,121140,766,19160,2044,1,17680,0.001002999999999997
54000,-7984,1925,122304,-10937,378,126492,766,19182,3137,1,17681,0.0009970000000000048
55000,627,-7067,122333,-16181,-9688,121969,598,19147,2449,0,17682,0.0010000000000000009
56000,-2517,14693,131242,-2256,15056,135319,924,19174,3784,0,17683,0.000999999999999994
57001,5175,1807,128201,-1937,16236,123365,699,19174,2863,1,17684,0.0010010000000000019
58000,-5474,20678,133732,-8351,-2467,133954,430,19122,2863,1,17685,0.0009989999999999999
59000,14762,-17640,129556,-1562,-11764,139471,683,19179,1761,0,17686,0.0010000000000000009
60002,7256,-6002,134767,17776,-13783,137819,683,19182,2797,0,17687,0.0010020000000000029
61000,9557,-22630,131160,2606,-16815,142066,679,19134,2781,1,17688,0.0009979999999999989
62000,3800,-2784,140843,-5185,-6611,136379,1033,19203,4231,1,17689,0.0010000000000000009
63002,12602,-9870,133832,21260,710,133836,635,19144,2601,0,17690,0.0010020000000000029
64001,11613,7831,136597,2489,-5454,140442,540,19144,2601,0,17691,0.0009989999999999999
65002,6222,-20820,126138,-498,-13762,128656,736,19156,2212,1,17692,0.001000999999999988
66002,1093,14537,134100,20242,17591,123728,736,19188,3014,1,17693,0.0010000000000000009
67000,8066,-654,124041,7952,-1584,128274,648,19147,2654,0,17694,0.0009979999999999989
68001,-8319,5696,125002,-11264,8886,122214,879,19169,3600,0,17695,0.0010010000000000019
69003,-835,9840,127655,-18635,8552,124130,703,19134,2879,1,17696,0.0010020000000000029
70000,-2596,16709,122353,9645,12409,122697,447,19134,2879,1,17697,0.0009969999999999979
71000,-2041,16887,128207,3359,14801,103989,712,19171,1831,0,17698,0.0010000000000000009
72000,-9848,2260,120714,-23834,-9921,132253,712,19170,2916,0,17699,0.0010000000000000009
73000,-11206,-17277,118583,-6044,-1282,113694,672,19138,2752,1,17700,0.0010000000000000009
74010,-5500,16509,126491,-6535,9323,120574,834,19185,3416,1,17701,0.001009999999999997
75000,830,488,123148,-11965,95,124282,631,19138,2584,0,17702,0.0009900000000000048
76000,-6075,15800,121833,-22219,16694,112354,530,19138,2584,0,17703,0.0010000000000000009
77002,-2979,11865,128808,1748,5975,120115,755,19164,2171,1,17704,0.0010020000000000029
78002,-9694,997,121781,-5754,554,126029,755,19179,3092,1,17705,0.0010000000000000009
79000,1107,-10267,122487,-3467,-2951,123975,587,19147,2404,0,17706,0.0009979999999999989
80000,-4843,14397,132439,-16246,3714,131861,918,19185,3760,0,17707,0.0010000000000000009
81000,5110,6658,128276,-334,14635,123068,694,19127,2842,1,17708,0.0010000000000000009
82000,-6976,22176,135429,14,11686,126168,478,19127,2842,1,17709,0.000999999999999987
83000,16421,-18397,130885,-6514,-25280,153645,667,19176,1958,0,17710,0.0010000000000000009
84000,3703,-16685,132178,28198,-7963,131285,667,19184,2732,0,17711,0.0010000000000000009
85000,13970,-10736,133993,1478,-10265,136045,673,19135,2756,1,17712,0.0010000000000000009
86002,919,-11633,136963,-6024,-15296,145278,1000,19195,4096,1,17713,0.0010020000000000029
87002,15575,-1022,138335,11032,3812,128537,626,19142,2564,0,17714,0.0010000000000000009
88000,7497,4613,135681,13770,-6117,144130,520,19142,2130,0,17715,0.0009979999999999989
89002,8294,-16639,126370,-11050,-14736,133511,765,19160,2130,1,17716,0.0010020000000000029
90000,2367,16701,134769,20931,21873,115459,765,19196,3133,1,17717,0.0009979999999999989
91000,4723,-7385,123573,11901,-9701,138949,645,19137,2642,0,17718,0.0010000000000000009
92000,-5102,8627,126436,-14372,13954,114326,917,19182,3756,0,17719,0.0010000000000000009
93003,-716,15539,126841,-17560,8669,126037,693,19124,2838,1,17720,0.0010030000000000039
94002,-1292,14584,123106,9187,14714,123005,435,19124,1782,1,17721,0.0009989999999999999
95000,-6300,17467,126392,-3765,14449,103452,705,19171,1782,0,17722,0.0009979999999999989
96000,-9962,-3763,121359,-24642,-8385,132691,672,19167,2887,0,17723,0.0010000000000000009
97000,-8711,-17077,117515,-5171,-12920,117499,672,19145,2752,1,17724,0.000999999999999987
98000,-5665,18375,126631,-1269,18068,126069,973,19199,3985,1,17725,0.0010000000000000009
99000,-2637,6187,125772,-25313,3400,124948,625,19139,2560,0,17726,0.0010000000000000009
100000,-2208,9624,120758,-19080,6881,109706,548,19139,2244,0,17727,0.0010000000000000009
101003,-7872,13782,131266,3391,14190,123241,744,19160,2244,1,17728,0.0010030000000000039
102000,-6077,-1268,120882,-12038,-2798,127412,586,19179,3047,1,17729,0.0009969999999999979
103000,273,-6884,124161,-9135,-6832,122755,586,19156,2400,0,17730,0.0010000000000000009
104000,-3304,10943,129663,-6829,9973,135590,907,19184,3715,0,17731,0.0010000000000000009
105000,7702,11757,129034,-3232,20037,120731,686,19127,2810,1,17732,0.0010000000000000009
106000,-7922,18452,134262,-4020,-7351,137057,588,19127,2408,1,17733,0.0010000000000000009
107003,16162,-18790,131035,-5992,-15342,141137,670,19179,2408,0,17734,0.0010030000000000039
108000,2454,-15176,133460,20556,-18602,136567,670,19181,2744,0,17735,0.0009969999999999979
109000,15180,-17529,132382,-1517,-6105,133916,670,19135,2744,1,17736,0.0010000000000000009
110001,939,-283,141154,-7430,-11089,145369,995,19189,4075,1,17737,0.0010010000000000019
111002,17753,-10970,134090,15316,-3454,134300,629,19139,2576,0,17738,0.001000999999999988
112002,6392,9004,137020,18481,-1512,138779,500,19159,2048,0,17739,0.0010000000000000009
113003,6420,-15781,125493,-12413,-13645,128728,751,19159,2048,1,17740,0.0010010000000000019
114000,6152,12972,132359,20019,15513,119451,637,19191,3076,1,17741,0.0009969999999999979
115000,2942,-4896,126128,12787,-8977,135729,637,19140,2609,0,17742,0.0010000000000000009
116002,-2816,4763,124406,-17391,16775,115685,933,19198,3821,0,17743,0.0010020000000000029
117006,-6922,20076,126325,-23766,12961,124812,691,19127,2830,1,17744,0.0010040000000000049
118002,2569,15394,124570,25463,14445,121394,431,19173,1765,1,17745,0.0009959999999999969
119000,-6829,14898,124313,-3546,8301,102757,693,19173,1765,0,17746,0.0009979999999999989
120001,-11480,-2056,119960,-30661,-8682,133685,662,19164,2838,0,17747,0.0010010000000000019
121000,-5961,-15683,119704,634,-1370,116301,662,19138,2711,1,17748,0.0009989999999999999
122002,-7625,12828,123175,-2406,9133,116702,972,19199,3981,1,17749,0.0010020000000000029
123002,1049,14572,127255,-20727,10061,123605,621,19138,2543,0,17750,0.0010000000000000009
124000,-7918,5273,121065,-19742,1406,120818,563,19165,2306,0,17751,0.0009979999999999989
125001,-3408,9408,128313,11057,9385,112494,732,19165,2306,1,17752,0.0010010000000000019
126000,-10873,4051,123989,-9620,-2005,131637,575,19173,2998,1,17753,0.0009989999999999999
127000,4879,-8399,124148,-7254,5701,119928,575,19153,2355,0,17754,0.0010000000000000009
128000,-8202,10298,129582,-8807,-1675,134558,879,19181,3600,0,17755,0.0010000000000000009
129000,9705,10950,129558,-391,15310,124750,683,19130,2797,1,17756,0.0010000000000000009
130000,-7636,16934,134485,-5108,6058,129265,532,19178,2179,1,17757,0.0010000000000000009
131002,16056,-20963,131786,8822,-22953,149026,657,19178,2179,0,17758,0.0010020000000000029
132000,3019,-8947,136481,20205,-5605,129897,663,19180,2691,0,17759,0.0009979999999999989
133000,13268,-17048,131986,-1992,-16364,142937,663,19137,2715,1,17760,0.0010000000000000009
134001,1769,-10556,138633,-4718,-13759,138831,988,19176,4047,1,17761,0.0010009999999999741
135001,10728,5432,139729,18386,4175,130364,633,19141,2593,0,17762,0.0010000000000000009
136002,14403,2095,132837,143,-10042,145711,495,19169,2027,0,17763,0.0010010000000000019
137000,4664,-11814,126138,2026,-7061,125720,753,19169,2027,1,17764,0.0009979999999999989
138000,4979,15432,134806,29782,17103,121742,639,19195,3084,1,17765,0.0010000000000000009
139000,5396,-8870,121780,-2079,-6454,131752,639,19144,2617,0,17766,0.0010000000000000009
140002,-14120,8714,129284,-14454,9769,119809,916,19186,3752,0,17767,0.0010020000000000029
141000,9162,14709,126721,-9690,10784,126348,679,19131,2781,1,17768,0.0009979999999999989
142001,-14901,18742,121875,7388,13486,118932,421,19177,1724,1,17769,0.0010010000000000019
143000,4139,17905,128248,-6095,14316,107478,683,19177,2797,0,17770,0.0009989999999999999
144000,-16927,-12602,117471,-18178,-15323,134418,666,19160,2797,0,17771,0.0010000000000000009
145002,-5022,-6994,120641,-2283,637,109670,938,19137,2728,1,17772,0.0010020000000000029
146000,-6986,15951,127216,-8697,11272,121891,938,19197,3842,1,17773,0.0009979999999999989
147002,-1688,1518,122461,-19319,-235,124345,612,19141,2507,0,17774,0.0010020000000000029
148002,-3972,20802,124857,-15787,16751,111821,575,19177,2355,0,17775,0.0010000000000000009
149000,-7909,9176,129046,647,6934,126166,720,19177,2949,1,17776,0.0009979999999999989
150000,-8616,-1667,121271,-7336,1148,123344,577,19168,2949,1,17777,0.0010000000000000009
151000,6281,-6418,125808,-6325,-5920,126924,875,19159,2363,0,17778,0.0010000000000000009
152000,-5726,8767,129222,-11355,1412,133671,875,19174,3584,0,17779,0.0010000000000000009
153000,8644,15743,129657,230,23480,117836,663,19133,2715,1,17780,0.0010000000000000009
154004,-6169,14432,135369,-5446,-14481,142413,565,19184,2314,1,17781,0.0010040000000000049
155000,16952,-22279,131866,18645,-19464,144068,638,19179,2613,0,17782,0.0009959999999999969
156002,4141,-15860,134181,14732,-17125,129673,657,19179,2613,0,17783,0.0010020000000000029
157001,10719,-14060,134812,-7452,-6743,139709,952,19138,2691,1,17784,0.0009989999999999999
158002,-1481,-3520,138676,-4242,-7827,142593,952,19174,3899,1,17785,0.0010010000000000019
159001,23505,-2419,136282,22800,901,132864,619,19145,2535,0,17786,0.0009989999999999999
160000,-212,6789,134716,14342,-5144,140107,511,19161,2093,0,17787,0.0009989999999999999
161000,15382,-14931,121160,-12147,-9205,124127,735,19185,3010,1,17788,0.0010000000000000009
162000,3590,12760,134392,17188,8741,123986,637,19185,3010,1,17789,0.0010000000000000009
163000,3733,-6470,124162,12906,-3927,132966,902,19151,2609,0,17790,0.0010000000000000009
164000,-1372,10856,126094,-23136,17593,115805,902,19183,3694,0,17791,0.0009999999999999731
165003,-9883,17127,129076,-19774,9594,128422,684,19136,2801,1,17792,0.0010030000000000039
166000,3817,16527,123000,32017,15958,116680,460,19171,1884,1,17793,0.0009969999999999979
167000,-8883,11242,122594,-14768,3928,105076,675,19160,2765,0,17794,0.0010000000000000009
168000,-10515,-5895,121101,-30277,-12975,135980,655,19160,2765,0,17795,0.0010000000000000009
169003,-2344,-9974,120810,4010,4971,112015,932,19139,2683,1,17796,0.0010030000000000039
170002,-9001,13171,122810,2462,12307,118511,932,19200,3817,1,17797,0.0009989999999999999
171003,1452,15351,127639,-26575,9506,124604,609,19139,2494,0,17798,0.0010010000000000019
172000,-9498,5904,120465,-12094,1681,117312,620,19166,2539,0,17799,0.0009969999999999979
173000,-3272,11182,127009,11863,10341,114371,717,19177,2937,1,17800,0.0010000000000000009
174000,-8386,-1887,123757,-11268,-8823,133930,571,19177,2937,1,17801,0.0010000000000000009
175001,5942,-445,127491,-11408,12010,117294,847,19161,2339,0,17802,0.0010010000000000019
176000,-7848,4965,129129,-4418,-2890,138228,847,19156,3469,0,17803,0.0009989999999999999
177000,7933,14735,130324,3618,18044,123168,676,19134,2769,1,17804,0.0010000000000000009
178000,-5228,12747,135159,-7157,-3266,132756,598,19181,2449,1,17805,0.0010000000000000009
179000,20110,-23115,129234,13693,-23189,147855,633,19176,2593,0,17806,0.0010000000000000009
180000,2613,-8118,138349,18432,-7385,128673,657,19176,2691,0,17807,0.0010000000000000009
181000,15460,-16433,132440,-2267,-16308,144845,935,19142,2691,1,17808,0.0010000000000000009
182002,1752,-11497,136896,-5253,-11571,137499,935,19163,3829,1,17809,0.0010020000000000029
183002,12544,7908,139016,25808,2394,133456,613,19143,2511,0,17810,0.0010000000000000009
184002,16173,-488,129119,-4459,-11735,145470,529,19163,2167,0,17811,0.0010000000000000009
185000,860,-4230,126430,8658,-977,121011,728,19189,2982,1,17812,0.0009979999999999989
186000,10223,12582,133374,27456,10972,124976,623,19189,2552,1,17813,0.0010000000000000009
187000,373,-5940,121504,-9450,-3662,128279,887,19146,2552,0,17814,0.0010000000000000009
188000,-11774,8438,130549,-11994,9051,122727,680,19183,3633,0,17815,0.0010000000000000009
189000,10929,15308,128012,-6191,13978,124551,680,19136,2785,1,17816,0.0010000000000000009
190000,-17643,20873,119953,9412,12609,117194,489,19177,2003,1,17817,0.0010000000000000009
191003,9631,13574,127163,-8633,10831,108679,659,19158,2699,0,17818,0.0010029999999999761
192000,-17978,-17819,115937,-15175,-18474,134837,648,19158,2654,0,17819,0.0009970000000000256
193001,-1495,716,122683,-619,7701,107349,924,19144,2654,1,17820,0.0010009999999999741
194002,-7417,10578,126781,-11617,5543,126893,610,19193,3784,1,17821,0.0010010000000000019
195003,-1558,2846,121996,-17096,1150,114828,610,19146,2498,0,17822,0.0010010000000000019
196001,-3406,24723,125382,-11411,18303,114110,638,19167,2613,0,17823,0.0009979999999999989
197004,-7772,5690,124561,92,2834,126680,700,19172,2867,1,17824,0.0010030000000000039
198000,-6382,-3913,124166,-5060,1053,122578,561,19172,2298,1,17825,0.0009959999999999969
199000,5838,-3333,126092,-7915,13640,128064,834,19166,2298,0,17826,0.0010000000000000009
200000,-6096,5784,129724,-10265,4770,130548,677,19165,3416,0,17827,0.0010000000000000009
201000,7567,19767,130881,2907,22051,119177,677,19149,2773,1,17828,0.0010000000000000009
202000,-3975,9783,135553,-12074,-19450,146265,642,19181,2629,1,17829,0.0010000000000000009
203000,18620,-20844,130048,21628,-19111,142152,617,19172,2527,0,17830,0.0010000000000000009
204001,5856,-16853,135537,9875,-20236,130714,641,19133,2625,0,17831,0.0010010000000000019
205000,9885,-11694,135917,-9004,-1773,139404,916,19133,2625,1,17832,0.0009989999999999999
206001,-3333,-6710,136780,151,-8698,142257,609,19155,3752,1,17833,0.0010010000000000019
207002,26401,1807,138450,26089,1474,134635,609,19152,2494,0,17834,0.0010010000000000019
208000,-3392,3658,131191,7160,-5578,138547,548,19167,2244,0,17835,0.0009979999999999989
209000,17744,-9021,121539,-13055,-3064,121944,713,19182,2920,1,17836,0.0010000000000000009
210000,3347,10105,133018,20327,935,127785,612,19146,2507,1,17837,0.0010000000000000009
211000,3820,-6347,124007,8120,1336,128887,864,19146,2507,0,17838,0.0010000000000000009
212000,-2046,13533,125541,-27721,16194,116783,676,19176,3539,0,17839,0.0010000000000000009
213000,-8819,15972,132188,-13849,9321,129703,676,19138,2769,1,17840,0.0010000000000000009
214000,2766,21279,120564,30727,20552,110098,538,19175,2203,1,17841,0.0010000000000000009
215001,-11260,9390,121103,-26513,262,111295,663,19160,2715,0,17842,0.0010010000000000019
216002,-5123,-10755,122449,-28850,-17349,132286,645,19138,2642,0,17843,0.0010010000000000019
217001,-5297,-4493,120227,11880,6136,112685,903,19138,2642,1,17844,0.0009989999999999999
218002,-5044,9717,124157,-6927,13634,115731,603,19186,3698,1,17845,0.0010010000000000019
219003,-1806,16414,127443,-24979,8880,127508,603,19152,2470,0,17846,0.0010010000000000019
220000,-7211,5831,119733,-8857,-167,116521,647,19173,2650,0,17847,0.0009969999999999979
221017,-3999,13835,125703,8893,15811,112372,693,19170,2838,1,17848,0.0010169999999999901
222001,-6435,-5861,125790,-16331,-18635,137748,553,19157,2265,1,17849,0.0009839999999999849
223000,6312,3011,127672,-10239,16937,115154,817,19157,2265,0,17850,0.0009990000000000276
224000,-8357,-170,128501,-1175,-5355,138980,669,19155,3346,0,17851,0.0009999999999999731
225000,8311,19762,132803,-273,22213,123010,669,19139,2740,1,17852,0.0010000000000000009
226000,-6326,7667,134521,-5047,-9692,135789,671,19190,2748,1,17853,0.0010000000000000009
227004,22308,-13969,130463,15870,-13255,140659,621,19170,2543,0,17854,0.0010040000000000049
228004,1775,-16699,136241,12672,-20742,135405,644,19140,2638,0,17855,0.0010000000000000009
229002,15628,-14466,133591,-892,-11727,139677,902,19140,3694,1,17856,0.0009979999999999989
230001,5257,-14600,135049,-3058,-14112,141015,601,19157,3694,1,17857,0.0009989999999999999
231000,10089,11612,139555,27431,6600,133700,564,19150,2462,0,17858,0.0009989999999999999
232000,19072,-5057,126100,-6587,-14743,145616,564,19169,2310,1,17859,0.0010000000000000009
233002,-5212,3599,128678,7882,5845,119251,703,19182,2879,1,17860,0.0010020000000000029
234000,14534,7930,129820,25203,1706,125748,607,19153,2486,1,17861,0.0009979999999999989
235000,-2162,-4785,121651,-15811,-1703,127963,851,19153,3485,0,17862,0.0010000000000000009
236000,-10335,5718,131667,-4647,7211,123127,668,19171,3485,0,17863,0.0010000000000000009
237000,10931,19770,127153,-7519,18280,124011,547,19135,2736,1,17864,0.0010000000000000009
238000,-14316,21499,118637,9517,15588,113288,547,19173,2240,1,17865,0.0010000000000000009
239003,5655,15347,126444,-9483,11211,112128,643,19161,2634,0,17866,0.0010030000000000039
240004,-10832,-25054,114820,-15784,-24946,133297,636,19148,2605,0,17867,0.0010010000000000019
241003,-6600,9096,123414,-1676,13683,111417,892,19185,3653,1,17868,0.0009989999999999999
242002,434,1276,126627,-7658,-1760,128784,604,19185,3653,1,17869,0.0009989999999999999
243000,-4411,6908,121450,-15400,6714,108946,634,19151,2474,0,17870,0.0009979999999999989
244000,-2255,27745,126023,-8204,17248,123803,634,19173,2597,0,17871,0.0010000000000000009
245002,-7116,1214,121748,-2094,2454,121369,683,19159,2797,1,17872,0.0010020000000000029
246002,-4953,-4617,125755,-1251,-15432,125023,540,19155,2212,1,17873,0.0010000000000000009
247002,6765,2090,127493,-13329,15063,126980,805,19149,3297,0,17874,0.0010000000000000009
248000,-5848,907,128360,-5329,4369,128305,672,19149,3297,0,17875,0.0009979999999999989
249000,8193,21280,132597,6469,16962,122649,629,19142,2752,1,17876,0.0010000000000000009
250000,410,9440,133719,-10488,-15565,147434,629,19184,2576,1,17877,0.0010000000000000009
251003,17344,-21581,125744,22458,-17569,141034,605,19170,2478,0,17878,0.0010029999999999761
252002,10279,-8850,139438,10535,-13125,128395,629,19145,2576,0,17879,0.0009990000000000276
253000,6411,-16448,133529,-12904,-9278,144673,881,19153,3608,1,17880,0.0009979999999999989
254000,874,-8727,136357,7406,-3963,137362,617,19153,3608,1,17881,0.0010000000000000009
255000,24278,1933,138220,27272,-2681,137607,589,19150,2527,0,17882,0.0010000000000000009
256000,-2588,1923,129229,-5493,-7352,135916,589,19166,2412,1,17883,0.0010000000000000009
257000,16771,-4074,123927,-6943,7265,119916,705,19176,2887,1,17884,0.0010000000000000009
258000,2339,6703,130597,28090,-5359,135065,601,19151,2462,1,17885,0.0010000000000000009
259000,6739,-4071,123981,-3848,7418,118941,845,19161,3461,0,17886,0.0010000000000000009
260000,-7051,11764,125189,-29990,11800,124889,672,19161,3461,0,17887,0.0010000000000000009
261000,-1146,15557,132829,1661,13733,123406,561,19140,2752,1,17888,0.0010000000000000009
262000,852,23854,117152,18022,18767,108492,561,19183,2298,1,17889,0.0010000000000000009
263001,-12179,5664,122510,-35478,-5,118333,639,19156,2617,0,17890,0.0010009999999999741
264000,-330,-11373,122694,-18367,-19322,128808,629,19144,2576,0,17891,0.0009990000000000276
265002,-10125,-922,120394,12641,10025,110918,878,19180,3596,1,17892,0.0010020000000000029
266002,444,11083,125568,-18785,14954,116697,597,19180,3596,1,17893,0.0009999999999999454
267000,-5709,12514,127301,-23860,4094,127951,634,19160,2445,0,17894,0.0009980000000000544
268000,-2153,9098,118753,-426,4379,114090,634,19192,2597,0,17895,0.0009999999999999454
269000,-8500,11945,125059,-2160,11467,119141,670,19158,2744,1,17896,0.0010000000000000009
270003,-617,-8742,126543,-20141,-19229,131977,537,19160,2199,1,17897,0.0010030000000000316
271000,2107,7953,127300,-2357,17413,118403,795,19144,3256,0,17898,0.0009969999999999701
272000,-4014,-257,129746,-4118,-1489,134838,667,19144,3256,0,17899,0.0010000000000000009
273012,4024,17705,132453,-1979,17028,125561,636,19141,2732,1,17900,0.0010120000000000129
274000,1504,7262,133405,-3878,-10158,137774,636,19189,2605,0,17901,0.0009879999999999889
275000,20977,-14295,127579,16436,-15656,141547,607,19169,2486,0,17902,0.0010000000000000009
276001,1873,-15290,137666,6157,-19014,132341,631,19146,2584,0,17903,0.0010010000000000296
277000,14534,-13020,134520,-2198,-10536,142931,878,19149,3596,1,17904,0.0009989999999999721
278003,4627,-14485,134288,3883,-11016,138717,594,19149,2433,1,17905,0.0010030000000000316
279000,15053,12103,138167,26858,6947,134468,602,19146,2433,0,17906,0.0009969999999999701
280000,12958,-10552,125036,-12359,-15744,144432,696,19170,2466,1,17907,0.0010000000000000009
281000,-3971,7481,130736,9217,11557,116209,696,19173,2851,1,17908,0.0010000000000000009
282000,12856,3465,125543,17292,-6853,133010,609,19151,2494,1,17909,0.0010000000000000009
283000,-4390,-1634,123291,-15062,3555,122006,840,19150,3440,0,17910,0.0010000000000000009
284001,-5551,5559,130244,-8239,7024,125957,670,19150,2744,0,17911,0.0010010000000000296
285002,9044,19731,125523,-1869,16615,122485,591,19147,2744,1,17912,0.0010009999999999741
286000,-9459,20881,119377,7256,18672,109409,636,19180,2421,0,17913,0.0009979999999999989
287002,-756,8339,125950,-15859,4659,117236,636,19161,2605,0,17914,0.0010020000000000029
288000,-8523,-23874,115137,-20876,-24603,130354,623,19151,2552,0,17915,0.0009979999999999989
289002,-7079,14855,126736,5087,18600,117479,871,19182,3567,1,17916,0.0010020000000000029
290002,1923,-2033,123619,-11249,-3635,125093,598,19182,2449,1,17917,0.0010000000000000009
291002,-5924,11387,122763,-18662,10856,110792,660,19144,2449,0,17918,0.0010000000000000009
292000,646,23696,123108,-3394,14374,123486,670,19174,2703,1,17919,0.0009979999999999989
293000,-9758,787,121415,-5021,928,121072,670,19153,2744,1,17920,0.0010000000000000009
294001,-1751,-6373,125342,-4013,-9850,125356,520,19164,2130,1,17921,0.0010010000000000296
295002,3218,6807,128565,-16360,10509,129301,784,19150,3211,0,17922,0.0010009999999999741
296002,-4041,655,128556,896,9456,123773,701,19144,2871,0,17923,0.0010000000000000009
297000,3061,21797,134266,5462,12136,127766,667,19144,2871,1,17924,0.0009979999999999989
298000,6698,1413,131173,-9792,-20360,148892,594,19187,2732,0,17925,0.0010000000000000009
299000,13710,-19810,126313,26802,-12966,137691,594,19175,2433,0,17926,0.0010000000000000009
300013,10952,-11270,138218,4176,-13053,131974,617,19147,2527,0,17927,0.0010129999999999861
301000,6634,-10741,135227,-10962,-8563,144330,863,19142,3535,1,17928,0.0009870000000000156
302000,2382,-8575,135976,6802,-3465,136217,588,19156,2408,0,17929,0.0010000000000000009
303000,26099,2334,136221,29708,-1207,138079,624,19156,2408,0,17930,0.0010000000000000009
304002,-5628,-2762,129405,-14936,-11616,133126,689,19168,2556,1,17931,0.0010020000000000029
305002,14359,-1087,126365,2018,13382,120940,689,19170,2822,1,17932,0.0010000000000000009
306002,-2556,4474,129124,30260,-6225,135671,588,19156,2408,1,17933,0.0010000000000000009
307000,7497,-173,124324,-10997,10278,117307,798,19155,3268,0,17934,0.0009979999999999989
308000,-12608,12590,126383,-32050,9135,124854,665,19147,2724,1,17935,0.0010000000000000009
309000,4745,15548,129739,10078,17319,122539,592,19147,2724,1,17936,0.0010000000000000009
310003,-1739,22630,118915,12461,10585,107042,629,19177,2425,0,17937,0.0010029999999999761
311000,-12798,-331,122519,-40532,-2909,124481,629,19151,2576,0,17938,0.0009970000000000256
312000,1996,-12248,122905,-7968,-16032,126135,615,19146,2519,0,17939,0.0010000000000000009
313002,-13293,1144,122025,10873,10229,111038,853,19161,3494,1,17940,0.0010020000000000029
314000,2945,16022,125820,-27393,18597,114737,588,19156,2408,1,17941,0.0009979999999999989
315000,-9298,9080,126526,-21284,-1892,130930,668,19156,2408,0,17942,0.0010000000000000009
316000,1508,8084,119005,1528,8594,109659,677,19170,2736,1,17943,0.0010000000000000009
317000,-11150,13469,125427,-6178,9738,123302,677,19138,2773,1,17944,0.0010000000000000009
318012,1759,-13138,123874,-20197,-17559,129752,509,19163,2085,1,17945,0.0010119999999999574
319001,1032,13229,129142,-334,18692,118724,766,19151,3137,0,17946,0.0009890000000000176
320001,-1005,-799,129053,-4597,1772,133111,658,19143,2695,0,17947,0.0010000000000000009
321000,1963,18773,133221,-3564,14375,126748,793,19143,3248,1,17948,0.0009990000000000276
322003,5080,-1469,130387,-4156,-17624,142553,588,19193,3248,0,17949,0.0010029999999999761
323000,17911,-9465,131164,18443,-8521,136633,613,19166,2408,0,17950,0.0009970000000000256
324000,2075,-19220,134083,4057,-22959,138560,613,19137,2511,0,17951,0.0010000000000000009
325005,13754,-11340,136475,-4479,-7313,137628,851,19137,3485,1,17952,0.0010049999999999781
326000,4502,-6386,136566,11581,-2408,137064,568,19160,2326,0,17953,0.0009950000000000236
327001,15193,3652,135017,18282,-1936,140024,610,19160,2498,0,17954,0.0010009999999999741
328000,11596,-8584,127542,-15205,-8964,135893,678,19173,2498,1,17955,0.0009989999999999721
329000,-2431,7016,131237,14670,10957,122122,580,19175,2777,1,17956,0.0010000000000000009
330000,11975,-1337,121898,15354,-8441,131834,580,19149,2376,1,17957,0.0010000000000000009
331002,-6279,4159,126484,-18280,6187,120525,807,19148,3305,0,17958,0.0010020000000000029
332000,648,2876,128069,-6504,3915,130470,664,19146,2720,1,17959,0.0009979999999999989
333000,2252,25424,124587,247,22097,114803,610,19146,2498,1,17960,0.0010000000000000009
334003,-6681,17991,124072,-1755,17963,113225,625,19181,2498,0,17961,0.0010030000000000316
335000,-5783,3811,124737,-16704,-162,120036,599,19143,2560,0,17962,0.0009969999999999701
336000,-9398,-23036,115536,-20803,-24621,110878,599,19149,2453,1,17963,0.0010000000000000009
337002,-5064,19240,130092,6906,22556,124613,845,19156,3461,1,17964,0.0010020000000000029
338000,-336,-4585,121143,-18480,-4523,120587,587,19152,2404,0,17965,0.0009979999999999989
339000,-3665,19040,125123,-13999,17633,113476,702,19173,2875,0,17966,0.0010000000000000009
340000,-1342,16594,124024,-5940,10944,123552,658,19173,2875,1,17967,0.0010000000000000009
341000,-10003,2437,122241,-7047,6551,119378,482,19139,2695,1,17968,0.0010000000000000009
342001,-1779,-11469,122570,-4766,-7164,128507,482,19165,1974,1,17969,0.0010010000000000296
343000,2166,12081,130920,-17190,7857,128932,756,19148,3096,0,17970,0.0009989999999999721
344000,-900,2422,128144,3479,15155,121636,654,19150,2679,0,17971,0.0010000000000000009
345000,323,23074,135394,-8508,8423,131133,849,19199,3477,1,17972,0.0010000000000000009
346001,9236,-5433,129720,-3409,-22534,148975,592,19199,3477,0,17973,0.0010010000000000296
347001,9268,-19761,127969,29198,-11585,136281,605,19168,2425,0,17974,0.0010000000000000009
348000,11299,-13849,136321,-496,-10404,132767,605,19147,2478,0,17975,0.0009989999999999721
349000,6313,-6125,136304,-7546,-9645,144361,836,19127,3424,1,17976,0.0010000000000000009
350000,9601,-9098,136860,5584,-4917,136916,551,19160,2257,0,17977,0.0010000000000000009
351000,17258,3077,134325,29393,-2308,137424,607,19172,2486,0,17978,0.0010000000000000009
352000,164,-7179,130690,-19158,-11840,131962,687,19172,2486,1,17979,0.0010000000000000009
353000,9210,4266,128350,12566,15896,120861,565,19176,2814,1,17980,0.0010000000000000009
354001,-3277,-457,127024,29975,-7097,134739,565,19155,2314,0,17981,0.0010010000000000296
355000,6331,4462,125082,-20877,11911,117046,791,19148,3240,0,17982,0.0009989999999999721
356000,-15130,12439,126306,-27602,9065,125989,655,19147,2683,1,17983,0.0010000000000000009
357000,9298,17604,127369,16452,19958,119751,612,19186,2507,1,17984,0.0010000000000000009
358003,-6195,17675,120938,6465,5489,107762,611,19186,2507,0,17985,0.0010029999999999761
359000,-11016,-138,122501,-40989,-1130,127219,572,19145,2502,0,17986,0.0009970000000000256
360000,-408,-13010,121510,2826,-13981,123450,572,19149,2343,1,17987,0.0010000000000000009
361000,-15097,1999,122008,4733,7869,112336,849,19154,3477,1,17988,0.0010000000000000009
362003,6933,19793,127204,-35496,20203,114593,580,19156,2376,0,17989,0.0010029999999999761
363000,-10908,7532,124697,-16849,-3127,132649,698,19179,2859,0,17990,0.0009970000000000256
364000,806,5126,121532,7846,8302,107706,653,19179,2859,1,17991,0.0010000000000000009
365000,-11412,13208,125523,-16137,9414,124855,463,19145,2674,1,17992,0.0010000000000000009
366007,-796,-13120,122306,-16476,-12313,129142,751,19168,1896,0,17993,0.0010069999999999801
367001,2848,16916,130727,4848,16109,118573,751,19136,3076,0,17994,0.0009939999999999949
368000,-1453,-22,128893,-8110,2739,132096,651,19147,2666,1,17995,0.0009990000000000276
369000,-493,14965,132430,-9011,8331,130419,782,19194,3203,1,17996,0.0010000000000000009
370002,11652,-3297,132504,33,-11768,140716,574,19194,2351,0,17997,0.0010020000000000029
371000,8707,-13656,131601,22269,-10696,139323,593,19168,2351,0,17998,0.0009979999999999989
372000,8323,-15159,133427,-3621,-15246,134767,827,19149,2429,0,17999,0.0010000000000000009
373000,5217,-15632,136511,-4460,-16096,142603,827,19111,3387,1,18000,0.0010000000000000009
374000,9092,-667,138803,20843,5612,132487,548,19160,2244,0,18001,0.0010000000000000009
375003,12482,-194,132647,5136,-10318,143251,629,19172,2576,0,18002,0.0010029999999999761
376000,8446,-6659,130623,-12376,-749,129037,667,19172,2732,1,18003,0.0009970000000000256
377003,1426,10565,131466,21585,10768,125548,558,19165,2732,1,18004,0.0010029999999999761
378002,6998,-6019,122714,16632,-6094,129147,788,19156,2285,0,18005,0.0009990000000000276
379002,-10678,6147,127765,-23765,4761,121686,788,19150,3227,0,18006,0.0010000000000000009
380000,6065,6411,126454,-10254,7344,129217,658,19149,2695,1,18007,0.0009979999999999989
381000,-7728,26590,125293,9499,21888,112225,641,19184,2625,1,18008,0.0010000000000000009
382002,1356,11386,125553,-10962,12558,115833,600,19141,2457,0,18009,0.0010020000000000029
383000,-13615,1973,123519,-18649,-2701,123192,545,19141,2457,0,18010,0.0009979999999999989
384000,-8593,-19364,116408,-17051,-19697,108557,819,19153,2232,1,18011,0.0010000000000000009
385000,-5711,19163,129604,6889,21194,128485,819,19159,3354,1,18012,0.0010000000000000009
386000,-2278,-2777,120678,-26965,-3796,118142,582,19155,2384,0,18013,0.0010000000000000009
387000,-1999,25740,127117,-13780,23416,114917,689,19175,2822,0,18014,0.0009999999999999454
388000,-6648,4532,125736,-7105,-2641,123542,653,19130,2674,1,18015,0.0010000000000000009
389003,-8618,8977,123855,-6807,7395,118369,441,19130,2674,1,18016,0.0010030000000000316
390000,-3459,-14431,121031,-10038,-4876,131326,734,19166,1806,0,18017,0.0009969999999999701
391002,1507,15652,131539,-15917,6703,128670,734,19135,3006,0,18018,0.0010020000000000029
392000,3669,4700,129459,5968,15170,122779,641,19145,2625,1,18019,0.0009979999999999989
393000,-4950,19968,134130,-11536,1420,132639,832,19197,3408,1,18020,0.0010000000000000009
394002,15868,-12840,132231,7198,-22098,148710,575,19166,2355,0,18021,0.0010020000000000029
395002,2836,-19888,130091,27978,-10364,132617,585,19166,2355,0,18022,0.0010000000000000009
396000,12370,-13792,134841,-5232,-9097,135105,816,19152,2396,1,18023,0.0009979999999999989
397000,1664,-7074,137329,-7631,-13092,146185,816,19103,3342,1,18024,0.0010000000000000009
398000,17115,-3660,138779,10311,-1308,135287,500,19157,2048,0,18025,0.0010000000000000009
399000,6958,3695,132292,26317,-6067,137223,643,19168,2634,0,18026,0.0010000000000000009
400000,7221,-10542,130571,-21237,-7468,129409,665,19160,2724,1,18027,0.0010000000000000009
401002,6332,8231,129729,25520,10128,123885,560,19160,2724,1,18028,0.0010020000000000029
402001,-3171,-4858,126221,22664,-1926,130527,783,19164,2294,0,18029,0.0009990000000000276
403000,3250,10158,126216,-28869,13471,118472,783,19150,3207,0,18030,0.0009989999999999721
404000,-12892,12489,124459,-20401,9665,127997,666,19147,2728,1,18031,0.0010000000000000009
405001,10081,20725,127346,27393,18424,115675,675,19181,2765,1,18032,0.0010010000000000296
406008,-11030,7486,121118,-4921,-312,112030,597,19135,2445,0,18033,0.0010069999999999801
407000,-9406,774,122727,-39397,-420,127946,537,19135,2445,0,18034,0.0009919999999999929
408000,-883,-11242,120763,14536,-8053,120792,810,19152,2199,1,18035,0.0010000000000000009
409000,-15177,5403,121766,-2581,8247,113927,810,19153,3318,1,18036,0.0010000000000000009
410000,8365,21763,128994,-35075,17041,118057,571,19162,2339,0,18037,0.0010000000000000009
411000,-12565,1542,121881,-12916,-5948,131911,776,19181,3178,0,18038,0.0010000000000000009
412000,802,5534,124922,14013,11299,104933,647,19132,2650,1,18039,0.0010000000000000009
413000,-12314,14669,125879,-20825,10078,127212,436,19132,1786,1,18040,0.0010000000000000009
414003,1379,-14508,121255,-12491,-8603,128506,730,19169,1786,0,18041,0.0010029999999999761
415000,653,18738,130570,4684,10556,121891,632,19126,2990,0,18042,0.0009970000000000256
416000,495,4523,130552,-8076,10298,129646,632,19151,2588,1,18043,0.0010000000000000009
417001,-914,9826,130000,-8946,254,134596,851,19201,3485,1,18044,0.0010009999999999741
418000,11466,-6071,135341,6433,-4495,132013,569,19159,2330,0,18045,0.0009990000000000276
419000,8654,-16920,132209,21723,-21298,150363,573,19159,2347,0,18046,0.0010000000000000009
420000,11376,-20776,132059,-4073,-11451,131631,808,19149,2347,1,18047,0.0010000000000000009
421000,161,-4868,139626,-2774,-10782,139194,490,19095,3309,1,18048,0.0010000000000000009
422000,13188,-1540,138009,15684,2674,136950,490,19159,2007,0,18049,0.0010000000000000009
423000,10015,232,132357,5077,-9892,139073,654,19171,2679,0,18050,0.0010000000000000009
424006,9055,-8757,130179,-7431,-3984,130765,661,19153,2707,1,18051,0.0010060000000000069
425007,2409,12042,131097,22741,13548,124825,533,19153,2183,1,18052,0.0010009999999999741
426005,7593,-4070,123684,15862,-1299,126804,769,19155,2183,0,18053,0.0009979999999999989
427002,-13685,5040,128654,-20899,3974,122636,648,19142,3150,0,18054,0.0009970000000000256
428000,7307,11371,124323,-17259,9690,128179,648,19155,2654,1,18055,0.0009979999999999989
429000,-11265,25475,127680,12520,21193,112816,702,19188,2875,1,18056,0.0010000000000000009
430000,717,8577,125411,-9049,7678,116670,594,19138,2433,0,18057,0.0010000000000000009
431000,-14500,-1391,121500,-21442,-4772,130046,535,19148,2191,0,18058,0.0010000000000000009
432000,-8875,-11936,118989,-12509,-9935,111151,801,19148,2191,1,18059,0.0010000000000000009
433000,-4894,12467,127035,3779,12678,129083,569,19153,3281,1,18060,0.0010000000000000009
434000,-2765,918,122045,-25660,-1192,116393,569,19158,2330,0,18061,0.0010000000000000009
435000,-3135,25913,127079,-19008,14374,116187,806,19185,3301,0,18062,0.0010000000000000009
436001,-6712,4060,127162,-1698,-97,120383,645,19130,2642,1,18063,0.0010009999999999741
437000,-8678,4001,122589,-5783,-1613,124471,461,19162,1888,1,18064,0.0009990000000000276
438002,-19,-10371,122962,-12699,2053,127889,714,19162,1888,0,18065,0.0010020000000000029
439001,-1750,13362,129859,-13741,6011,130849,611,19121,2924,0,18066,0.0009989999999999721
440000,5589,11186,130130,6066,17831,121942,611,19158,2502,1,18067,0.0009990000000000276
441000,-6931,16808,134042,-15913,-3554,134758,875,19206,3584,1,18068,0.0010000000000000009
442000,15667,-20296,132704,15878,-24357,148133,564,19158,2310,0,18069,0.0010000000000000009
443000,3664,-15166,133181,25306,-7137,127761,556,19150,2277,0,18070,0.0010000000000000009
444000,12709,-14856,133389,-8996,-13820,139916,794,19150,2277,1,18071,0.0010000000000000009
445000,-649,-6937,137931,-8288,-10466,143693,460,19102,3252,1,18072,0.0010000000000000009
446000,19894,-2063,138474,21741,-4558,135965,460,19155,1884,0,18073,0.0010000000000000009
447000,1993,3360,133375,10360,-4945,137374,676,19183,2769,0,18074,0.0009999999999999454
448000,11358,-7295,127153,-13733,-4526,126993,657,19149,2691,1,18075,0.0010000000000000009
449000,3822,9288,132786,31510,5863,126364,516,19164,2113,1,18076,0.0010000000000000009
450002,843,-6214,124598,10122,619,124638,761,19164,2113,0,18077,0.0010020000000000029
451000,-2884,12084,126971,-32838,11479,124994,627,19139,3117,0,18078,0.0009979999999999989
452000,-6681,10920,125334,-7903,13279,122516,627,19151,2568,1,18079,0.0010000000000000009
453000,2394,24463,125231,25699,17181,116402,735,19194,3010,1,18080,0.0010000000000000009
454003,-6692,4128,121960,-16792,1688,111560,592,19147,2425,0,18081,0.0010030000000000316
455000,-12315,2877,122089,-25844,-2764,129542,557,19157,2281,0,18082,0.0009969999999999701
456000,435,-16684,119437,15382,-6773,118521,794,19157,2281,1,18083,0.0010000000000000009
457001,-15858,10862,121815,-12213,10839,115177,558,19143,3252,1,18084,0.0010010000000000296
458000,7909,18113,129939,-27728,9850,124413,558,19158,2285,0,18085,0.0009989999999999721
459000,-12481,2246,120337,-4531,-2011,124372,795,19181,3256,0,18086,0.0010000000000000009
460000,-109,7909,127901,7821,10491,108742,633,19137,2593,1,18087,0.0010000000000000009
461000,-13372,10260,125071,-22776,6710,130414,486,19170,1991,1,18088,0.0010000000000000009
462001,4842,-12184,122732,-1850,-3855,125767,709,19170,2904,0,18089,0.0010010000000000296
463002,-4112,16640,129944,290,7080,124039,588,19120,2904,0,18090,0.0010009999999999741
464000,3016,3943,129439,-9781,8389,133731,861,19152,2408,1,18091,0.0009979999999999989
465002,37,17300,133511,-8733,8061,127414,861,19189,3526,1,18092,0.0010020000000000029
466000,13628,-16210,132809,13140,-14221,142367,570,19163,2335,0,18093,0.0009979999999999989
467000,6939,-10137,135775,23392,-11206,139310,528,19157,2163,0,18094,0.0010000000000000009
468001,14257,-26496,129413,-11483,-22708,139993,787,19157,3223,1,18095,0.0010010000000000296
469000,1129,-3123,141853,3197,-4058,134093,466,19094,3223,1,18096,0.0009989999999999721
470000,10276,-2431,135840,21863,-6662,143856,707,19162,1909,0,18097,0.0010000000000000009
471000,14830,2089,133493,-12889,-2609,133114,707,19174,2896,0,18098,0.0010000000000000009
472000,1369,3357,130277,7782,1806,130915,643,19149,2634,1,18099,0.0010000000000000009
473000,8533,3615,129678,29731,7791,124822,487,19160,1995,1,18100,0.0010000000000000009
474003,1798,-299,124680,2934,1771,120575,744,19125,3047,0,18101,0.0010029999999999761
475000,-12555,-5376,127677,-20728,-6656,137055,615,19125,3047,0,18102,0.0009970000000000256
476000,12184,23756,125207,-3266,24127,112426,786,19153,2519,1,18103,0.0010000000000000009
477000,-19724,22710,125023,5635,13592,121334,786,19193,3219,1,18104,0.0010000000000000009
478000,10025,10187,126126,-12521,8973,112454,594,19147,2433,0,18105,0.0010000000000000009
479000,-23516,-9415,116754,-15031,-11998,128600,569,19151,2330,0,18106,0.0010000000000000009
480000,327,-9608,121888,-2876,-5598,112141,778,19121,3186,1,18107,0.0010000000000000009
481000,-11068,12387,124417,-8360,10005,123477,506,19121,3186,1,18108,0.0010000000000000009
482001,821,4790,124166,-22635,15886,120411,782,19163,2072,0,18109,0.0010009999999999741
483002,-3012,23679,126373,-12190,8123,116908,782,19185,3203,0,18110,0.0010010000000000296
484000,-7679,2054,125544,-3469,4092,119715,630,19137,2580,1,18111,0.0009979999999999989
485006,-8978,7073,124755,-4765,-7908,126007,509,19168,2085,1,18112,0.0010060000000000069
486000,4434,-12647,122531,-10864,7074,124966,692,19111,2834,0,18113,0.0009939999999999949
487000,-3755,15242,130790,5968,2289,133559,551,19111,2834,0,18114,0.0010000000000000009
488000,8891,8015,128456,1602,19320,122000,842,19153,2257,1,18115,0.0010000000000000009
489000,-7627,17750,134978,-14140,-6736,135873,842,19197,3449,1,18116,0.0010000000000000009
490000,17605,-19972,133291,22790,-22240,148229,547,19151,2240,0,18117,0.0010000000000000009
491000,4126,-15456,133867,15317,-12882,125527,508,19149,2081,0,18118,0.0010000000000000009
492000,13672,-11635,135730,-9203,-12918,142998,776,19091,3178,1,18119,0.0010000000000000009
493003,-2601,-13356,136546,-1977,-10972,143708,525,19091,3178,1,18120,0.0010029999999999761
494000,23418,702,138920,28451,-1806,133708,768,19161,2150,0,18121,0.0009970000000000256
495000,-1303,3690,132404,-1468,-4325,138612,768,19180,3146,0,18122,0.0010000000000000009
496001,15678,-3538,124896,-6989,921,124649,639,19143,2617,1,18123,0.0010009999999999741
497002,2978,8073,132989,29408,-589,126332,468,19171,1917,1,18124,0.0010010000000000296
498001,3270,-7020,123947,3119,1617,126517,742,19120,3039,0,18125,0.0009989999999999721
499001,-5737,11885,126679,-29954,11111,123071,593,19120,3039,0,18126,0.0010000000000000009
500000,-4199,13341,127798,-6865,14789,123725,801,19161,2429,1,18127,0.0009990000000000276
501000,-408,25645,124754,30547,17687,113125,801,19195,3281,1,18128,0.0010000000000000009
502000,-4348,4320,120074,-25427,2350,113865,571,19150,2339,0,18129,0.0010000000000000009
503000,-13052,-1679,123480,-23457,-7580,129313,589,19160,2412,0,18130,0.0010000000000000009
504002,1353,-12777,118285,15101,-4322,117746,774,19129,3170,1,18131,0.0010019999999999474
505002,-14827,9715,122762,-13598,14773,113441,527,19129,2158,1,18132,0.0010000000000000009
506002,6093,19471,128458,-24923,7877,128128,770,19163,2158,0,18133,0.0010000000000000009
507000,-11512,687,121232,-2714,-2535,121521,620,19185,3154,0,18134,0.0009980000000000544
508000,-2052,12301,125651,7313,12351,109757,620,19144,2539,1,18135,0.0010000000000000009
509000,-12857,5885,126245,-21505,1776,131705,526,19174,2154,1,18136,0.0010000000000000009
510000,9367,-6918,124760,-885,2164,122706,688,19108,2818,0,18137,0.0010000000000000009
511000,-7877,8519,128503,-845,567,129389,547,19108,2240,0,18138,0.0010000000000000009
512000,6033,10236,131183,-9711,12007,132526,837,19156,2240,1,18139,0.0010000000000000009
513000,-2358,10234,132750,17,1185,128484,543,19197,3428,1,18140,0.0010000000000000009
514001,17632,-6485,135292,15100,-10309,139434,543,19160,2224,0,18141,0.0010009999999999186
515001,4493,-22451,133412,15459,-22141,142882,503,19150,2060,0,18142,0.0010000000000000009
516000,12180,-14568,134364,-3726,-13161,135873,769,19105,3150,1,18143,0.0009990000000000832
517000,5410,-12439,137975,-2010,-13295,139462,544,19105,2228,1,18144,0.0010000000000000009
518000,8271,8648,137330,26193,4356,136840,761,19160,2228,0,18145,0.0010000000000000009
519001,18935,-3707,130291,-8993,-11906,138191,640,19178,3117,0,18146,0.0010009999999999186
520000,-1927,5607,128539,5788,5646,126893,640,19137,2621,1,18147,0.0009990000000000832
521000,10450,5459,130156,32835,5995,124239,461,19158,1888,1,18148,0.0010000000000000009
522000,-196,503,123358,-6035,2102,123078,737,19112,3019,0,18149,0.0010000000000000009
523000,-12832,-1544,129207,-17784,-1429,130023,572,19157,2343,0,18150,0.0010000000000000009
524000,14768,21357,125600,-5137,21269,120432,831,19157,2343,1,18151,0.0010000000000000009
525000,-19336,19732,122625,16716,10135,116697,583,19198,3404,1,18152,0.0010000000000000009
526000,9549,10392,124592,-15397,8168,119308,583,19143,2388,0,18153,0.0010000000000000009
527000,-19600,-14706,117514,-18039,-14816,124686,604,19156,2474,0,18154,0.0010000000000000009
528005,-1267,-902,123122,4082,3478,112870,759,19129,3109,1,18155,0.0010049999999999226
529001,-6920,5731,124734,-9313,2407,124539,496,19179,2031,1,18156,0.0009959999999999969
530000,-963,8208,124009,-20537,20134,114143,758,19179,2031,0,18157,0.0009990000000000832
531000,-4135,24611,125668,-12417,6817,120595,628,19177,3105,0,18158,0.0010000000000000009
532000,-5143,216,122385,4732,5199,119658,628,19140,2572,1,18159,0.0010000000000000009
533000,-9801,3480,125697,-7447,-13311,126304,565,19172,2314,1,18160,0.0010000000000000009
534003,8860,-5039,125308,-15123,13796,125360,678,19111,2777,0,18161,0.0010029999999999761
535000,-6853,10399,129784,7655,2890,129665,553,19148,2265,0,18162,0.0009970000000000256
536000,8900,13499,130581,-991,16212,124684,817,19148,2265,1,18163,0.0009999999999998899
537000,-4012,8409,134138,-15533,-14240,142026,544,19183,3346,1,18164,0.0010000000000000009
538000,18477,-18443,130525,25702,-20084,145154,544,19161,2228,0,18165,0.0010000000000000009
539001,5704,-12893,136938,8776,-13906,125431,524,19160,2146,0,18166,0.0010010000000000296
540000,9737,-9848,136518,-12397,-9460,145569,762,19101,3121,1,18167,0.0009989999999999721
541000,-290,-14573,135817,4917,-9840,140842,581,19169,2380,1,18168,0.0010000000000000009
542001,24344,1491,137663,34364,135,133873,750,19169,2380,0,18169,0.0010010000000000296
543000,178,2304,129442,-11307,-6432,137849,638,19195,3072,0,18170,0.0009989999999999721
544002,16725,-382,124462,-1925,5536,122077,638,19142,2613,1,18171,0.0010020000000000584
545002,3043,6360,131454,28660,-4592,130291,442,19159,1810,1,18172,0.0010000000000000009
546000,3641,-2541,123304,-7807,8584,121903,732,19112,2998,0,18173,0.0009979999999999434
547000,-6623,11291,126083,-28459,6707,127902,543,19155,2224,0,18174,0.0010000000000000009
548000,423,12920,131304,5708,17794,119572,815,19155,3338,1,18175,0.0010000000000000009
549000,-4563,25982,120059,21580,14281,112391,576,19201,3338,1,18176,0.0010000000000000009
550000,-4264,1553,120965,-36186,824,115981,631,19151,2359,0,18177,0.0010000000000000009
551000,-8652,-4231,125080,-16389,-11921,129384,631,19157,2584,0,18178,0.0010000000000000009
552000,-1861,-8215,117964,17154,2560,114945,760,19108,3113,1,18179,0.0010000000000000009
553001,-10817,12736,125566,-24514,17535,112295,458,19168,1876,1,18180,0.0010010000000000296
554002,2626,11531,126219,-19044,2012,133320,743,19168,3043,0,18181,0.0010010000000000296
555002,-8355,6383,119602,3892,3299,112214,617,19173,3043,0,18182,0.0010000000000000009
556004,-2594,12717,124015,-2767,13301,115229,589,19147,2527,1,18183,0.0010019999999999474
557000,-10293,1485,128249,-19606,-6132,132911,589,19172,2412,1,18184,0.0009959999999999969
558000,8429,-2178,124314,-497,7312,119838,676,19116,2769,0,18185,0.0010000000000000009
559000,-8337,4260,129871,-1293,-223,133680,584,19153,2392,0,18186,0.0010000000000000009
560002,5973,14368,132876,-8438,16099,129042,802,19153,3285,1,18187,0.0010020000000000584
561003,-1807,4742,132404,1698,-10151,133737,536,19174,3285,1,18188,0.0010010000000000296
562005,21415,-4514,134221,18831,-4166,135447,530,19157,2195,0,18189,0.0010019999999999474
563002,2534,-24740,133039,9153,-29950,145278,530,19157,2171,0,18190,0.0009970000000000256
564001,12551,-15828,135058,-2841,-10610,131947,761,19105,3117,1,18191,0.0009989999999999721
565000,7447,-5787,137609,126,-7591,142533,604,19169,2474,1,18192,0.0009989999999999721
566000,8703,-325,134596,29433,-4797,140438,744,19169,3047,0,18193,0.0010000000000000009
567000,21389,4056,129346,-16289,-2299,131932,628,19191,3047,0,18194,0.0010000000000000009
568000,-6268,2747,128364,15707,-328,132284,443,19142,2572,1,18195,0.0010000000000000009
569000,16242,5140,127192,25283,5087,118005,443,19158,1814,1,18196,0.0010000000000000009
570003,-5131,1557,124736,-16118,556,125591,710,19114,2908,0,18197,0.0010029999999999761
571000,-8292,-4566,129136,-11078,-1700,134336,542,19153,2220,0,18198,0.0009970000000000256
572002,12502,31370,128842,-1633,30637,114235,814,19200,3334,1,18199,0.0010020000000000584
573000,-17217,16915,120129,10743,8321,118840,577,19200,3334,1,18200,0.0009979999999999434
574000,8603,10538,123929,-13577,8809,119670,636,19151,2363,0,18201,0.0010000000000000009
575000,-15784,-21330,116342,-16267,-20753,122770,636,19158,2605,0,18202,0.0010000000000000009
576000,-1302,5045,123951,2867,7988,113269,756,19105,3096,1,18203,0.0010000000000000009
577001,-4370,2004,123940,-12348,2128,121083,458,19168,1876,1,18204,0.0010010000000000296
578000,-2868,12565,124372,-14445,20980,116366,741,19173,3035,0,18205,0.0009989999999999721
579000,-2364,23189,123318,-12990,5418,120299,619,19173,3035,0,18206,0.0010000000000000009
580000,-7056,579,121422,3842,5669,120425,595,19144,2535,1,18207,0.0010000000000000009
581000,-6019,-2877,126608,-1777,-18976,128657,595,19178,2437,1,18208,0.0010000000000000009
582000,6567,573,126060,-14683,18756,122593,666,19124,2728,0,18209,0.0010000000000000009
583000,-5748,5411,130375,6627,2899,130805,576,19162,2359,0,18210,0.0010000000000000009
584002,8460,19861,132099,-2414,17497,122592,799,19171,3272,1,18211,0.0010020000000000584
585002,-2208,4605,133377,-16111,-18140,147136,551,19171,3272,1,18212,0.0010000000000000009
586000,18817,-20092,127664,28856,-17680,141046,541,19154,2257,0,18213,0.0009979999999999434
587000,8568,-11209,137593,4290,-16483,127801,541,19154,2216,0,18214,0.0010000000000000009
588001,8672,-12314,135532,-10726,-6935,145669,753,19104,3084,1,18215,0.0010010000000000296
589000,1749,-9477,136357,9369,-6984,138703,646,19168,2646,1,18216,0.0009989999999999721
590000,23732,-1100,136839,30404,-588,136026,734,19191,3006,0,18217,0.0010000000000000009
591003,-95,2645,128707,-14345,-5597,134885,625,19191,3006,1,18218,0.0010029999999999761
592002,13514,-310,125953,-35,5084,123737,466,19137,2560,1,18219,0.0009990000000000832
593002,2861,2941,128353,29299,-5314,129725,466,19155,1909,1,18220,0.0009999999999998899
594000,5687,774,124559,-11807,8853,122294,713,19110,2920,0,18221,0.0009980000000000544
595000,-9945,8158,125680,-26467,7203,126212,563,19158,2306,0,18222,0.0010000000000000009
596000,3173,17915,131714,8022,19613,118711,797,19197,3264,1,18223,0.0010000000000000009
597000,-3951,24156,118493,12062,14406,111741,558,19197,2285,1,18224,0.0010000000000000009
598000,-7404,3051,121939,-35101,1222,117957,643,19160,2285,0,18225,0.0010000000000000009
599001,-2345,-9295,124079,-15761,-18906,127729,748,19162,2634,0,18226,0.0010010000000000296
600000,-8940,-3674,119365,17435,7368,114399,748,19106,3064,1,18227,0.0009989999999999721
601002,-1334,12197,126958,-30388,18458,111903,459,19160,1880,1,18228,0.0010019999999999474
602008,-4539,10821,126320,-16015,868,132842,727,19166,2978,0,18229,0.0010060000000000624
603000,-2270,8472,118743,955,5653,111551,607,19166,2486,0,18230,0.0009919999999999929
604000,-7328,12891,123818,-5667,12948,117585,602,19146,2486,1,18231,0.0010000000000000009
605000,-5413,-5494,127819,-22133,-15909,133345,665,19181,2466,1,18232,0.0010000000000000009
606000,6384,4587,125290,377,15139,117130,665,19121,2724,0,18233,0.0010000000000000009
607000,-7378,619,130259,-1201,-1312,135464,635,19158,2601,0,18234,0.0010000000000000009
608006,6578,16663,133234,-8172,15907,128291,794,19172,3252,1,18235,0.0010059999999999514
609002,1904,4208,130885,1783,-11055,134624,529,19172,2167,0,18236,0.0009959999999999969
610000,19882,-7209,131106,18574,-9131,139283,547,19161,2167,0,18237,0.0009980000000000544
611000,4709,-23509,134190,1203,-27927,139884,737,19160,2240,0,18238,0.0010000000000000009
612000,9514,-12461,135983,-453,-8677,137523,737,19107,3019,1,18239,0.0010000000000000009
613001,8317,-8285,135898,4683,-6726,138929,708,19157,2900,1,18240,0.0010010000000000296
614000,8937,7328,135755,24985,2145,137588,742,19182,3039,0,18241,0.0009989999999999721
615000,17117,-8014,127426,-16539,-12323,138129,617,19143,2527,1,18242,0.0010000000000000009
616000,-2911,7001,129786,15034,7258,124771,487,19143,2527,1,18243,0.0010000000000000009
617000,14289,2095,124323,18296,-3803,125108,710,19157,1995,1,18244,0.0010000000000000009
618000,-3246,3582,124753,-14712,5630,122819,710,19124,2908,0,18245,0.0010000000000000009
619000,-7054,-1537,129243,-10064,100,130637,591,19161,2421,0,18246,0.0010000000000000009
620000,10110,25799,125937,-2163,23630,115084,794,19190,3252,1,18247,0.0010000000000000009
621000,-11042,18398,121634,9974,14674,114645,556,19156,2277,0,18248,0.0010000000000000009
622000,593,9598,124739,-14655,7536,124834,627,19156,2277,0,18249,0.0010000000000000009
623000,-10368,-23137,115696,-21918,-23174,117330,738,19157,2568,0,18250,0.0010000000000000009
624000,-5384,12297,127785,4040,14604,117969,738,19104,3023,1,18251,0.0010000000000000009
625000,1044,-4337,121611,-7820,-1025,122041,459,19165,1880,1,18252,0.0010000000000000009
626000,-5203,17818,124533,-18917,25720,110935,719,19170,2945,0,18253,0.0010000000000000009
627000,173,22804,122694,-7289,1979,123810,613,19148,2511,1,18254,0.0010000000000000009
628000,-8389,-1453,121287,-2161,4740,119252,604,19148,2511,1,18255,0.0010000000000000009
629001,-4372,-6932,125090,-10971,-13753,128026,655,19176,2474,1,18256,0.0010009999999999186
630000,4386,5251,128310,-15741,13796,126840,655,19114,2683,0,18257,0.0009990000000000832
631000,-5506,4659,129407,6392,10119,123056,663,19161,2715,0,18258,0.0010000000000000009
632003,4297,21739,134381,-5272,11159,129148,785,19167,3215,1,18259,0.0010029999999999761
633002,6052,-548,130905,-13659,-22019,149304,531,19161,2175,0,18260,0.0009989999999999721
634002,13989,-21930,126389,30056,-14900,138891,568,19161,2175,0,18261,0.0010000000000000009
635000,11354,-9645,138458,4735,-12612,129535,738,19153,2326,0,18262,0.0009980000000000544
636000,6108,-9399,135562,-13878,-7634,145535,738,19109,3023,1,18263,0.0010000000000000009
637002,3936,-8333,136694,10050,-3452,137193,715,19170,2928,0,18264,0.0010019999999999474
638001,23663,746,135284,28766,48,135981,715,19179,2928,0,18265,0.0009989999999999721
639000,-2981,-2716,128887,-15604,-9710,133575,621,19146,2543,1,18266,0.0009990000000000832
640000,13263,858,127347,2610,11909,121238,532,19146,2179,1,18267,0.0010000000000000009
641004,-1869,1612,127291,32142,-7089,133045,713,19158,2179,1,18268,0.0010040000000000049
642000,6844,3144,125594,-16648,11376,120106,619,19115,2920,0,18269,0.0009959999999999969
643002,-11766,9898,126127,-26158,7066,126234,619,19153,2535,1,18270,0.0010019999999999474
644001,4764,17473,130075,10810,19625,118704,781,19186,3199,1,18271,0.0009989999999999721
645003,-2751,20715,118701,7524,8190,111002,555,19157,2273,0,18272,0.0010020000000000584
646000,-12797,-441,123435,-38471,-616,122691,630,19157,2580,0,18273,0.0009970000000000256
647000,1283,-11606,123513,-9555,-17841,125589,740,19162,2580,0,18274,0.0010000000000000009
648002,-12349,400,121186,14608,8949,113986,494,19114,3031,1,18275,0.0010019999999999474
649000,3479,17412,127838,-34142,21191,111050,494,19169,2023,1,18276,0.0009980000000000544
650000,-7648,8992,125045,-17092,-1208,132637,708,19155,2900,0,18277,0.0010000000000000009
651000,614,7213,118965,3265,8984,109324,604,19151,2474,1,18278,0.0010000000000000009
652000,-9132,13716,124551,-7930,11394,121604,615,19151,2519,1,18279,0.0010000000000000009
653000,-3315,-9878,124839,-25042,-17219,130555,651,19176,2519,1,18280,0.0010000000000000009
654000,4729,12138,128038,3107,19626,117534,698,19125,2666,0,18281,0.0010000000000000009
655001,-5542,-1303,129931,-1440,-64,134008,698,19165,2859,0,18282,0.0010009999999999186
656002,4792,18244,133700,-9613,11009,129478,774,19162,3170,1,18283,0.0010010000000000296
657000,5517,-5655,128746,997,-13564,137896,527,19162,2158,0,18284,0.0009979999999999434
658000,18195,-5264,133278,18104,-10800,140403,569,19161,2330,0,18285,0.0010000000000000009
659000,5609,-28719,130734,-655,-28625,140014,733,19161,2330,0,18286,0.0010000000000000009
660000,6171,-4374,138275,532,-291,133190,735,19104,3002,1,18287,0.0010000000000000009
661000,10533,-7479,136936,7677,-6139,142291,735,19177,3010,0,18288,0.0010000000000000009
662000,9416,1350,132286,19907,-2707,138166,706,19174,2892,0,18289,0.0010000000000000009
663000,14717,-3088,130774,-14715,-3490,131153,610,19154,2498,1,18290,0.0010000000000000009
664000,-2187,2974,128475,12596,4009,130688,517,19163,2117,1,18291,0.0010000000000000009
665000,11342,2071,123802,19081,-2605,121590,697,19163,2117,1,18292,0.0010000000000000009
666000,-5187,2578,125738,-18011,2750,125841,650,19126,2855,0,18293,0.0010000000000000009
667000,-1280,714,127401,-12936,3242,119531,650,19158,2662,1,18294,0.0010000000000000009
668000,2603,31984,127113,4335,27724,117501,772,19181,3162,1,18295,0.0010000000000000009
669002,-5460,11103,123158,208,11485,115990,552,19161,2261,0,18296,0.0010020000000000584
670002,-6864,4172,124545,-16544,2277,125836,643,19159,2634,0,18297,0.0010000000000000009
671000,-8918,-18884,117066,-24787,-21330,116439,727,19159,2634,0,18298,0.0009979999999999434
672002,-5632,13690,129214,9411,4312,121718,533,19116,2978,1,18299,0.0010020000000000584
673002,3,-2340,120307,-17541,5281,118528,533,19174,2183,0,18300,0.0010000000000000009
674000,-3992,22814,127297,-17166,20103,116421,700,19162,2867,0,18301,0.0009979999999999434
675000,-2534,12866,121178,-5734,-364,120557,601,19153,2462,1,18302,0.0010000000000000009
676000,-8122,3338,123414,-3754,8901,119167,641,19180,2625,1,18303,0.0010000000000000009
677000,-4232,-9051,122826,-13392,-9118,129302,647,19180,2625,1,18304,0.0010000000000000009
678007,3763,10190,129891,-8112,12012,126405,720,19131,2650,0,18305,0.0010069999999999801
679003,-3377,5050,129278,3765,10411,124386,720,19161,2949,1,18306,0.000996000000000108
680007,-462,20292,134928,-9584,8389,130439,758,19163,3105,1,18307,0.0010039999999998939
681002,11607,-5698,130627,-5468,-23825,149512,522,19169,2138,0,18308,0.0009950000000000792
682002,8190,-21453,128836,32997,-10532,136486,594,19160,2433,0,18309,0.0010000000000000009
683000,12428,-12581,136052,-2650,-10775,131474,729,19160,2433,0,18310,0.0009979999999999434
684000,4768,-8728,135721,-10144,-12027,148259,739,19114,2986,1,18311,0.0010000000000000009
685000,11320,-8587,137908,13213,-2120,133296,739,19166,3027,0,18312,0.0010000000000000009
686001,13407,5089,133474,19784,-2161,137932,692,19172,2834,0,18313,0.0010010000000000296
687000,2912,-7875,130456,-16666,-8184,131370,609,19151,2494,1,18314,0.0009989999999999721
688000,7796,6566,129429,17277,12804,123047,554,19170,2269,1,18315,0.0010000000000000009
689000,-1911,-3838,125438,27626,-4820,130289,698,19170,2859,0,18316,0.0010000000000000009
690000,3669,8537,125777,-26683,12461,120566,683,19120,2859,0,18317,0.0010000000000000009
691001,-11157,8587,125881,-18689,6801,125823,763,19166,2797,1,18318,0.0010010000000000296
692000,6517,22000,127297,16108,21577,117531,763,19172,3125,1,18319,0.0009989999999999721
693003,-5544,12011,120709,-3609,2230,112577,552,19163,2261,0,18320,0.0010029999999999761
694001,-11950,3410,123972,-34176,728,125122,658,19168,2695,0,18321,0.0009980000000000544
695000,-1099,-15715,120427,2915,-18370,123617,729,19168,2986,1,18322,0.0009989999999999721
696002,-12595,7781,123791,1652,14153,110228,648,19115,2986,1,18323,0.0010020000000000584
697000,2971,15940,128431,-35633,13457,118883,689,19170,2654,0,18324,0.0009979999999999434
698002,-8148,4848,122888,-9465,-479,129080,689,19160,2822,0,18325,0.0010020000000000584
699000,2507,9451,123030,1882,9770,108189,589,19154,2412,1,18326,0.0009979999999999434
700000,-8666,10475,125010,-12479,8593,125698,657,19185,2691,1,18327,0.0010000000000000009
701004,-2398,-11534,122374,-11257,-15320,127454,637,19131,2609,1,18328,0.0010040000000000049
702003,2115,13704,129619,-8366,16123,120784,735,19131,2609,0,18329,0.0009989999999999721
703002,-2737,5102,130130,-3294,8663,131606,755,19161,3010,1,18330,0.0009990000000000832
704000,-1510,20536,132976,-2517,11559,127792,755,19140,3092,1,18331,0.0009979999999999434
705000,11505,-11707,126549,-7047,-18048,139955,520,19169,2130,0,18332,0.0010000000000000009
706000,10769,-8539,135140,22996,-12160,140617,581,19165,2380,0,18333,0.0010000000000000009
707000,15748,-28247,129414,4325,-25958,140948,717,19108,2937,0,18334,0.0010000000000000009
708000,2209,1215,141310,-2753,4759,130935,758,19108,2937,1,18335,0.0010000000000000009
709000,13753,-10586,135061,7254,-11099,145836,689,19178,3105,0,18336,0.0010000000000000009
710000,7015,5464,134490,19011,4057,130949,689,19168,2822,0,18337,0.0010000000000000009
711000,8480,-18273,127444,-13655,-23952,145177,605,19141,2478,1,18338,0.0010000000000000009
712000,1550,3967,131274,12684,13285,121179,562,19169,2302,1,18339,0.0010000000000000009
713000,6548,11573,125111,15190,5543,122272,685,19126,2806,0,18340,0.0010000000000000009
714000,-805,1005,123478,-15508,2305,124134,702,19126,2806,0,18341,0.0010000000000000009
715002,-6068,12004,129320,-6551,10452,121459,761,19162,2875,1,18342,0.0010019999999999474
716002,3468,13352,119728,-4534,9428,124223,761,19171,3117,1,18343,0.0010000000000000009
717002,-6588,17015,127023,-3519,20524,103912,549,19159,2249,0,18344,0.0010000000000000009
718000,-5762,5724,122840,-11577,2101,132554,658,19169,2695,0,18345,0.0009980000000000544
719000,-10928,-18795,117278,-22514,3764,112790,715,19118,2928,1,18346,0.0010000000000000009
720002,-6789,16551,128029,539,4746,124013,664,19118,2928,1,18347,0.0010019999999999474
721000,-6,-2294,124301,-16420,-2399,126488,691,19165,2720,0,18348,0.0009980000000000544
722002,-4734,11720,120872,-15984,18250,108680,691,19151,2830,0,18349,0.0010019999999999474
723000,-3249,20100,129117,-9358,8378,120374,593,19153,2429,1,18350,0.0009980000000000544
724000,-6598,-1302,122419,-3481,-6437,129793,673,19186,2756,1,18351,0.0010000000000000009
725000,-1400,-13014,120001,-3207,6086,117842,628,19127,2572,0,18352,0.0010000000000000009
726001,-1683,15536,133476,-14862,-130,139029,729,19127,2572,0,18353,0.0010010000000000296
727002,1982,3787,127032,1185,18813,119441,747,19161,2986,1,18354,0.0010009999999999186
728000,-7351,27535,136006,-6369,10014,126394,747,19147,3059,1,18355,0.0009980000000000544
729000,15012,-14746,129624,2112,-29573,158062,502,19164,2056,0,18356,0.0010000000000000009
730000,4529,-18368,130527,26277,-6185,125685,597,19153,2445,0,18357,0.0010000000000000009
731000,15247,-13581,134288,335,-11895,139507,712,19127,2916,1,18358,0.0010000000000000009
732000,3727,-9527,137784,-5382,-13446,143622,790,19127,3236,1,18359,0.0010000000000000009
733000,14270,-4228,136780,10116,539,131228,693,19165,3236,0,18360,0.0010000000000000009
734001,7967,3517,136272,12811,-7776,144955,605,19169,2838,0,18361,0.0010010000000000296
735000,4914,-12899,127968,-9227,-8732,127396,605,19150,2478,1,18362,0.0009989999999999721
736000,3863,12062,132327,21791,15457,120935,573,19165,2347,1,18363,0.0010000000000000009
737000,1606,-5745,124843,14374,-7766,133509,686,19125,2810,0,18364,0.0010000000000000009
738000,-1384,5392,124810,-18269,13131,117469,716,19125,2933,0,18365,0.0010000000000000009
739002,-4854,15834,126741,-18771,10386,125812,746,19159,2933,1,18366,0.0010019999999999474
740000,2883,17465,124247,14794,16511,119549,533,19176,3055,1,18367,0.0009980000000000544
741002,-6653,16742,125142,-1598,10991,105609,533,19159,2183,0,18368,0.0010019999999999474
742002,-11104,-1124,121525,-28966,-7857,132520,679,19165,2781,0,18369,0.0010000000000000009
743001,-7537,-17992,118228,1425,-9528,116818,716,19122,2933,1,18370,0.0009989999999999721
744000,-10163,12476,124599,-4645,12913,115221,615,19122,2519,1,18371,0.0009990000000000832
745000,3823,15761,127005,-27828,11896,120511,679,19176,2519,0,18372,0.0010000000000000009
746001,-9263,7058,121743,-12508,2472,124359,585,19158,2781,0,18373,0.0010009999999999186
747000,-680,6311,127298,4837,6355,112722,585,19156,2396,1,18374,0.0009990000000000832
748002,-8925,5426,122732,-11483,3971,127508,707,19183,2896,1,18375,0.0010019999999999474
749000,1114,-10595,122844,-6244,-8176,125224,627,19144,2568,0,18376,0.0009980000000000544
750000,-1732,19029,131424,-7291,13672,123184,720,19168,2949,0,18377,0.0010000000000000009
751003,-262,4412,128958,-10439,8627,131728,729,19168,2949,1,18378,0.0010029999999999761
752000,-4075,22528,134114,-2976,12165,127376,503,19151,2986,1,18379,0.0009970000000000256
753000,9682,-18943,130687,-712,-19098,142238,503,19168,2060,0,18380,0.0010000000000000009
754000,10520,-12187,134293,21257,-14633,139615,570,19165,2335,0,18381,0.0010000000000000009
755000,16070,-27490,129671,3081,-20827,138406,710,19123,2908,1,18382,0.0010000000000000009
756000,2823,4405,143127,6052,2354,134703,824,19185,3375,1,18383,0.0010000000000000009
757000,18034,-8640,134476,-1599,-7624,143374,682,19185,3375,0,18384,0.0010000000000000009
758000,860,10093,136694,17837,5806,133519,601,19165,2793,0,18385,0.0010000000000000009
759000,7202,-14970,128074,-7425,-18088,137735,601,19149,2462,1,18386,0.0010000000000000009
760002,597,6729,130125,5290,13264,121633,587,19176,2404,1,18387,0.0010019999999999474
761001,4755,34,126667,20580,-1268,129096,688,19132,2818,0,18388,0.0009989999999999721
762000,-1733,3456,124348,-9682,5587,118484,736,19166,3014,0,18389,0.0009990000000000832
763000,-2960,20196,126386,-22636,15774,123846,749,19166,3014,1,18390,0.0010000000000000009
764000,327,15756,124562,5132,12950,119628,536,19165,3068,1,18391,0.0010000000000000009
765000,-7153,9588,125011,4950,8684,106892,536,19166,2195,0,18392,0.0010000000000000009
766000,-11462,-1120,120418,-27134,-3619,132862,700,19166,2867,0,18393,0.0010000000000000009
767000,-6538,-14565,120912,-13828,5422,113709,704,19123,2883,1,18394,0.0010000000000000009
768000,-6423,12728,124015,5872,8510,120502,645,19187,2642,1,18395,0.0010000000000000009
769000,-803,11171,126102,-21616,8105,123974,673,19187,2642,0,18396,0.0010000000000000009
770000,-6285,11407,122192,-26727,8334,115949,590,19155,2756,0,18397,0.0010000000000000009
771002,-6539,9432,128202,9266,6089,116442,590,19153,2416,1,18398,0.0010019999999999474
772002,-6524,1793,121838,-8243,-7547,130796,739,19193,3027,1,18399,0.0010000000000000009
773000,2109,-7578,123506,-13593,9838,119931,621,19131,2543,0,18400,0.0009980000000000544
774000,-1181,14323,130381,471,1717,134909,723,19161,2961,0,18401,0.0009999999999998899
775000,6167,10804,128792,2052,16771,123166,735,19161,2961,1,18402,0.0010000000000000009
776000,-9184,16885,135074,-13400,-3004,134184,499,19150,3010,1,18403,0.0010000000000000009
777000,14736,-23259,131254,14677,-24136,148334,499,19170,2044,0,18404,0.0010000000000000009
778000,2009,-10110,135513,22509,-8153,127745,587,19165,2404,0,18405,0.0010000000000000009
779000,16674,-15373,132982,-5283,-15220,141847,704,19122,2883,1,18406,0.0010000000000000009
780000,-722,-10782,138851,-4996,-9944,141683,854,19183,3498,1,18407,0.0010000000000000009
781000,23302,-649,138096,23461,-4897,136447,668,19183,2736,0,18408,0.0010000000000000009
782000,-381,3208,134671,5960,-5204,139006,597,19169,2736,0,18409,0.0010000000000000009
783002,12182,-6997,126175,-10187,-3876,124324,575,19152,2445,1,18410,0.0010020000000000584
784002,1072,9527,133599,30806,6973,129602,575,19163,2355,1,18411,0.0010000000000000009
785002,2633,-4201,124743,7993,1733,121126,678,19139,2777,0,18412,0.0010000000000000009
786000,-5195,13148,126616,-32074,11835,125710,713,19164,2920,0,18413,0.0009979999999999434
787003,-1822,9929,126243,-5975,12871,122391,730,19164,2990,1,18414,0.0010030000000000872
788002,-634,25527,124811,28203,17165,115656,530,19164,2990,1,18415,0.0009989999999999721
789000,-4859,1082,121805,-21667,-2422,114070,733,19168,2171,0,18416,0.0009979999999999434
790000,-13409,1424,122718,-21659,-1480,128738,733,19173,3002,0,18417,0.0010000000000000009
791002,-1559,-15756,118911,10203,-5583,117599,709,19124,2904,1,18418,0.0010020000000000584
792000,-12077,13384,122556,-10785,12880,116450,669,19185,2740,1,18419,0.0009979999999999434
793000,1111,14449,128656,-25785,3873,125537,667,19147,2732,0,18420,0.0010000000000000009
794003,-6379,2401,120357,-9649,986,121529,575,19147,2732,0,18421,0.0010030000000000872
795000,-5130,13534,128800,10432,11887,110558,780,19162,2355,1,18422,0.0009969999999999146
796002,-9612,5938,124117,-14855,5596,128869,780,19195,3195,1,18423,0.0010020000000000584
797000,7175,-11388,122275,-7865,-4524,125610,624,19144,2556,0,18424,0.0009979999999999434
798000,-6623,16622,130544,-2711,7907,126314,745,19164,3051,0,18425,0.0010000000000000009
799000,7072,8228,128676,-974,12302,129221,731,19126,2994,1,18426,0.0010000000000000009
800000,-3993,15169,132267,-12889,5367,127845,446,19126,2994,1,18427,0.0010000000000000009
801000,12168,-15465,134391,5710,-12631,142988,594,19173,1827,0,18428,0.0010000000000000009
802000,8890,-15355,133721,22915,-16697,143974,594,19162,2433,0,18429,0.0010000000000000009
803000,9374,-22702,131719,-1111,-16061,133842,702,19126,2875,1,18430,0.0010000000000000009
804001,6463,-528,141390,-4692,-5584,136791,915,19184,3748,1,18431,0.0010010000000000296
805000,8598,-9530,135611,16642,-11837,144800,666,19161,2728,0,18432,0.0009989999999999721
806000,18515,4169,134771,2555,-1267,131867,589,19161,2728,0,18433,0.0010000000000000009
807002,758,-950,128538,-810,-2007,132549,582,19153,2412,1,18434,0.0010020000000000584
808001,5816,9786,130286,21524,14501,121413,582,19176,2384,1,18435,0.0009989999999999721
809000,2199,728,125564,10246,1955,130898,672,19137,2752,0,18436,0.0009989999999999721
810001,-13910,-5695,125960,-18280,-5370,127857,705,19158,2887,0,18437,0.0010010000000000296
811002,10978,24585,124952,-11110,23128,109821,731,19163,2994,1,18438,0.0010010000000000296
812000,-14912,23196,125377,7375,15411,118882,538,19163,2994,1,18439,0.0009979999999999434
813000,6675,10492,123896,-2400,9050,110659,761,19165,2203,0,18440,0.0010000000000000009
814000,-20267,-9003,117923,-24625,-24722,132415,761,19174,3117,0,18441,0.0010000000000000009
815000,-2933,-13375,121775,-4279,9572,114645,700,19128,2867,1,18442,0.0010000000000000009
816001,-9943,12645,124340,-3863,4157,119422,715,19179,2928,1,18443,0.0010010000000000296
817000,-1628,9428,125820,-23837,14431,122658,657,19146,2691,0,18444,0.0009989999999999721
818000,-4760,18697,126229,-18971,3723,118464,576,19146,2691,0,18445,0.0010000000000000009
819000,-4049,-320,124953,1961,3047,119733,795,19155,2359,1,18446,0.0010000000000000009
820002,-11170,5753,125187,-8454,-7376,127211,795,19190,3256,1,18447,0.0010020000000000584
821000,7575,-8914,123102,-18788,11695,121655,614,19136,2515,0,18448,0.0009979999999999434
822000,-6479,16461,130897,6155,1806,134339,764,19167,3129,0,18449,0.0010000000000000009
823000,9157,9721,128434,2620,19183,121750,719,19126,2945,1,18450,0.0010000000000000009
824001,-6973,15832,134700,-15505,-7499,137098,445,19126,1823,1,18451,0.0010010000000000296
825000,15427,-20896,132478,23324,-20202,146157,615,19173,1823,0,18452,0.0009989999999999721
826000,4985,-13386,134751,13779,-10629,124058,698,19166,2519,0,18453,0.0010000000000000009
827000,13189,-9372,136698,-9293,-15448,146676,698,19124,2859,1,18454,0.0010000000000000009
828000,700,-18461,135862,1138,-14811,143272,955,19184,3911,1,18455,0.0010000000000000009
829000,17967,2298,139776,32476,2851,131735,653,19162,2674,0,18456,0.0010000000000000009
830000,7830,405,130303,-13603,-12154,143122,581,19162,2380,0,18457,0.0010000000000000009
831010,8876,-660,127502,6582,6481,121729,609,19156,2380,1,18458,0.0010099999999999554
832000,5767,5424,130583,29923,-6726,128833,666,19177,2494,1,18459,0.0009900000000000464
833000,1931,-2833,124452,-13746,7645,123687,666,19136,2728,0,18460,0.0010000000000000009
834000,-9224,9440,127229,-20640,3577,127937,743,19166,3043,0,18461,0.0010000000000000009
835001,4621,19386,129494,5248,26548,116783,720,19156,2949,1,18462,0.0010010000000000296
836000,-11829,22157,121924,15353,7756,116907,511,19156,2093,1,18463,0.0009989999999999721
837000,5771,7216,122441,-26338,11679,111312,764,19164,2093,0,18464,0.0010000000000000009
838000,-18199,-4698,122118,-10509,-16780,131656,696,19181,3129,0,18465,0.0010000000000000009
839000,2116,-12288,117887,7446,5160,112231,696,19124,2851,1,18466,0.0010000000000000009
840000,-13640,16825,126844,-18918,11815,118947,684,19183,2801,1,18467,0.0010000000000000009
841000,1706,3388,124144,-17608,-33,131691,653,19140,2674,0,18468,0.0010000000000000009
842001,-3766,14443,123976,-415,9326,110666,549,19159,2249,0,18469,0.0010010000000000296
843000,-8775,4027,124261,1487,323,122859,798,19159,2249,1,18470,0.0009989999999999721
844000,-5364,4782,126950,-15217,5237,123500,609,19198,3268,1,18471,0.0010000000000000009
845001,5050,-8765,123502,-2484,-2430,126888,609,19138,2494,0,18472,0.0010010000000000296
846001,-5044,11274,130998,-3140,3385,131531,811,19165,3322,0,18473,0.0010000000000000009
847002,4163,12070,129298,-4667,19225,123455,720,19130,2949,1,18474,0.0010009999999999186
848002,-4134,14907,134456,-5668,-123,133728,446,19173,1827,1,18475,0.0010000000000000009
849000,19863,-12683,132539,13380,-10206,138404,640,19173,1827,0,18476,0.0009980000000000544
850002,1988,-15437,133482,17849,-17958,141012,692,19169,2621,0,18477,0.0010019999999999474
851000,13953,-20991,134801,-2188,-16227,135493,692,19126,2834,1,18478,0.0009980000000000544
852003,5821,-3421,138070,-3471,-7031,138590,1026,19194,4202,1,18479,0.0010029999999999761
853001,11455,-7660,135460,23731,-11996,143996,667,19162,2732,0,18480,0.0009980000000000544
854000,20120,6124,131745,-4714,-1687,134255,583,19156,2388,0,18481,0.0009989999999999721
855002,-4205,-393,127656,7968,-2102,130454,641,19156,2388,1,18482,0.0010019999999999474
856000,12819,9258,130818,24110,12337,119582,661,19190,2625,1,18483,0.0009980000000000544
857000,-4170,-2954,124171,-1044,-3045,130609,661,19134,2707,0,18484,0.0010000000000000009
858003,-10464,-1861,128296,-17333,-1090,124410,762,19170,3121,0,18485,0.0010029999999999761
859001,10514,26760,128128,-6767,26579,112544,713,19155,2920,1,18486,0.0009980000000000544
860001,-15840,22991,121855,10389,13161,116728,502,19166,2056,1,18487,0.0010000000000000009
861000,11502,11987,123262,-3163,2112,115002,756,19166,2056,0,18488,0.0009989999999999721
862000,-20915,-14521,116738,-23444,-25775,127891,691,19180,3096,0,18489,0.0010000000000000009
863000,1243,-7262,122137,1722,15252,114349,691,19129,2830,1,18490,0.0010000000000000009
864000,-8489,9785,124704,-7319,4955,117914,699,19178,2863,1,18491,0.0010000000000000009
865000,-1282,9814,125266,-17918,16314,121141,641,19139,2625,0,18492,0.0010000000000000009
866000,-4846,20550,125655,-8891,6862,117777,536,19159,2195,0,18493,0.0010000000000000009
867001,-6251,681,122631,-16,2485,121896,798,19159,3268,1,18494,0.0010009999999999186
868000,-8490,-417,125774,-12037,-14759,127010,608,19198,3268,1,18495,0.0009990000000000832
869000,8016,-4368,124738,-16700,14092,122635,608,19140,2490,0,18496,0.0010000000000000009
870000,-6418,10741,130869,6411,2101,132681,829,19171,3395,0,18497,0.0010000000000000009
871000,9654,14564,129573,2989,19077,121499,713,19116,2920,1,18498,0.0010000000000000009
872000,-4271,12936,135163,-18991,-12177,142726,433,19167,1773,1,18499,0.0010000000000000009
873000,18909,-20586,129305,27049,-21476,145465,641,19167,2625,0,18500,0.0010000000000000009
874003,4830,-12009,136670,6974,-9566,121183,689,19169,2625,0,18501,0.0010029999999999761
875002,10097,-9781,136715,-9810,-14687,151613,1026,19128,2822,1,18502,0.0009989999999999721
876002,5238,-19344,134469,7863,-10318,138597,1026,19195,4202,1,18503,0.0010000000000000009
877002,16455,7355,139212,31154,5672,131634,642,19160,2629,0,18504,0.0010000000000000009
878001,10995,-2280,127124,-17856,-10633,143507,573,19159,2347,0,18505,0.0009989999999999721
879002,5364,4257,128052,11012,7816,119292,671,19159,2748,1,18506,0.0010010000000000296
880000,8474,-322,128194,22134,-11410,131389,676,19176,2748,1,18507,0.0009980000000000544
881000,-441,-56,123958,-17849,9440,123514,779,19136,2769,0,18508,0.0010000000000000009
882002,-8224,7057,127216,-14145,4725,127135,779,19168,3191,0,18509,0.0010019999999999474
883009,7561,23488,131297,7114,24965,116616,709,19152,2904,1,18510,0.0010069999999999801
884002,-12441,17196,118399,6806,6958,116000,494,19168,2023,1,18511,0.0009930000000000216
885000,4456,11666,124401,-24371,12056,112841,750,19168,3072,0,18512,0.0009980000000000544
886000,-14314,-15301,120803,-14296,-25975,132312,695,19181,3072,0,18513,0.0010000000000000009
887000,-1064,-2753,119693,8157,14582,108565,818,19130,2847,1,18514,0.0010000000000000009
888000,-9844,15694,128795,-22819,11658,120042,818,19190,3350,1,18515,0.0010000000000000009
889000,681,3465,121803,-13770,3971,129510,635,19131,2601,0,18516,0.0010000000000000009
890000,-2955,17969,122718,746,9453,108999,509,19162,2085,0,18517,0.0010000000000000009
891001,-7047,2571,121402,-4703,2993,124500,786,19191,3219,1,18518,0.0010009999999999186
892002,-3389,2585,127869,-11578,-2302,123375,604,19191,3219,1,18519,0.0010010000000000296
893002,2691,-3718,124526,-5247,3774,125864,861,19161,2474,0,18520,0.0010000000000000009
894002,-4292,4676,130829,-3468,-28,135494,861,19173,3526,0,18521,0.0010000000000000009
895002,3111,18935,132530,-4129,23183,120440,701,19122,2871,1,18522,0.0010000000000000009
896000,-2668,4827,133137,-1894,-13304,140059,439,19180,1798,1,18523,0.0009979999999999434
897000,21515,-10933,131960,20996,-7080,131509,657,19171,2691,0,18524,0.0010000000000000009
898000,2993,-17595,134471,6933,-23118,143556,688,19171,2691,0,18525,0.0010000000000000009
899003,14614,-18555,135590,-1752,-13894,140145,1056,19137,2818,1,18526,0.0010030000000000872
900001,131,415,137233,-6010,-3514,136200,1056,19199,4325,1,18527,0.0009979999999999434
901002,12801,-136,137867,30569,-2777,135643,641,19157,2625,0,18528,0.0010010000000000296
902000,14238,4621,129516,-9300,-4870,137074,561,19158,2298,1,18529,0.0009979999999999434
903003,5074,-15370,124756,11425,-15095,132460,676,19176,2769,1,18530,0.0010030000000000872
904000,7878,16725,131972,21297,17120,124434,657,19176,2691,1,18531,0.0009969999999999146
905002,3724,1044,123906,-6160,776,127972,807,19140,2691,0,18532,0.0010020000000000584
906002,-16569,6998,129366,-8028,9576,118308,807,19167,3305,0,18533,0.0010000000000000009
907002,13815,13639,127290,-13517,10070,128431,708,19144,2900,1,18534,0.0010000000000000009
908000,-16567,18851,119065,14349,11778,105187,492,19170,2015,1,18535,0.0009979999999999434
909000,4421,16220,125973,-7229,687,121525,733,19178,3002,0,18536,0.0010000000000000009
910000,-9108,-16309,117708,-16638,-17283,121673,685,19178,3002,0,18537,0.0010000000000000009
911000,-9923,4078,123135,-9209,16173,115301,859,19134,2806,1,18538,0.0010000000000000009
912000,1000,4296,127173,-16579,-194,125300,859,19185,3518,1,18539,0.0010000000000000009
913002,-9124,4362,122563,-17990,9181,117504,638,19140,2613,0,18540,0.0010020000000000584
914000,810,26693,124236,-8812,19944,111021,499,19161,2044,0,18541,0.0009979999999999434
915002,-8099,9561,125744,-5699,-2901,130501,768,19189,3146,1,18542,0.0010020000000000584
916002,127,-15025,122597,-4793,-16947,122041,597,19189,2445,1,18543,0.0010000000000000009
917002,3201,7273,128617,-17960,13323,127912,890,19147,2445,0,18544,0.0010000000000000009
918000,-4429,-1344,128871,-1589,6564,129543,701,19175,3645,0,18545,0.0009979999999999434
919000,3944,23731,131371,4422,23033,115922,701,19126,2871,1,18546,0.0010000000000000009
920000,534,8473,136006,-11801,-22439,153606,474,19178,1941,0,18547,0.0010000000000000009
921000,20386,-25553,124590,19737,-17865,137852,677,19178,2773,0,18548,0.0010000000000000009
922000,5574,-8473,139446,10253,-14526,129070,680,19178,2785,0,18549,0.0010000000000000009
923002,11862,-12378,135598,-7761,-7112,144060,1038,19132,2785,1,18550,0.0010020000000000584
924002,503,-8476,134805,5507,-3700,137166,636,19201,4251,1,18551,0.0010000000000000009
925000,22426,2224,137831,26222,-1159,136996,636,19151,2605,0,18552,0.0009979999999999434
926000,5430,-2156,126593,-11370,-8557,139608,554,19163,2269,1,18553,0.0010000000000000009
927002,6364,-460,126654,5530,6913,117289,709,19188,2904,1,18554,0.0010020000000000584
928002,6104,6950,128351,18264,-4686,132826,652,19188,2670,1,18555,0.0010000000000000009
929003,3269,-5136,123620,-12216,2656,124131,838,19146,2670,0,18556,0.0010009999999999186
930001,-9582,9843,128045,-12627,10344,124343,699,19173,3432,0,18557,0.0009980000000000544
931000,6610,18021,130566,-970,14557,122585,699,19136,2863,1,18558,0.0009989999999999721
932000,-9833,22158,117115,5346,19739,108807,480,19165,1966,1,18559,0.0010000000000000009
933000,-1918,9888,125348,-22651,2190,117957,728,19171,2982,0,18560,0.0010000000000000009
934000,-6937,-19547,118511,-18316,-24509,129312,686,19139,2810,0,18561,0.0010000000000000009
935004,-6095,5098,122674,7395,15495,108856,903,19139,2810,1,18562,0.0010040000000000049
936002,-2493,9662,126679,-18840,10661,121423,633,19189,3698,1,18563,0.0009980000000000544
937000,-3321,9561,124344,-15866,7974,124104,633,19131,2593,0,18564,0.0009979999999999434
938000,-1437,17770,120857,-2569,9731,111514,503,19165,2060,0,18565,0.0010000000000000009
939002,-8580,4128,122920,-5716,4282,124778,754,19186,3088,1,18566,0.0010020000000000584
940000,-184,-7239,125952,-12098,-14589,126154,590,19151,2416,1,18567,0.0009979999999999434
941000,1586,6481,127591,-8510,14105,122060,923,19151,2416,0,18568,0.0010000000000000009
942001,-2506,-1934,129644,146,-2598,137061,700,19173,3780,0,18569,0.0010010000000000296
943000,3075,21519,133533,-2933,21076,120154,700,19118,2867,1,18570,0.0009989999999999721
944000,-377,1079,131730,-3155,-16557,142347,526,19168,2154,0,18571,0.0010000000000000009
945001,20976,-8941,130080,17321,-7465,135433,682,19182,2793,0,18572,0.0010010000000000296
946000,2697,-17419,135101,9030,-23120,138509,674,19136,2761,0,18573,0.0009989999999999721
947000,12721,-13536,135578,-5571,-8301,139446,1028,19136,2761,1,18574,0.0010000000000000009
948002,4163,-9169,134580,-539,-13206,141330,634,19202,4210,0,18575,0.0010020000000000584
949000,14130,7090,138350,29892,5388,131203,634,19156,2597,0,18576,0.0009979999999999434
950002,14641,-7313,126156,-7075,-16407,146581,537,19162,2199,1,18577,0.0010019999999999474
951005,633,-959,129438,7706,3842,119168,732,19189,2998,1,18578,0.0010030000000000872
952002,8633,11428,126972,18163,4760,132819,640,19141,2621,1,18579,0.0009969999999999146
953002,1850,-696,125320,-8232,2064,120783,884,19141,2621,0,18580,0.0010000000000000009
954002,-15057,6580,130474,-5382,7213,123875,700,19179,3621,1,18581,0.0010000000000000009
955002,11709,13213,124334,-13454,9436,124892,700,19133,2867,1,18582,0.0010000000000000009
956000,-9559,21531,120180,12430,19981,103074,450,19170,1843,0,18583,0.0009980000000000544
957000,499,13528,124966,-7202,-4434,128511,710,19170,2908,0,18584,0.0010000000000000009
958000,-6181,-21758,115974,-22514,-11013,117149,667,19137,2732,0,18585,0.0010000000000000009
959000,-11825,11039,124839,-3766,16620,115269,829,19137,3395,1,18586,0.0010000000000000009
960001,6263,-949,125151,-11993,-4851,127869,642,19189,3395,1,18587,0.0010010000000000296
961000,-10706,7714,121664,-22592,18479,110086,531,19134,2629,0,18588,0.0009989999999999721
962000,3160,27345,125044,-5830,10681,119948,531,19165,2175,1,18589,0.0010000000000000009
963003,-10395,1126,123429,-6654,-1887,127665,752,19179,3080,1,18590,0.0010029999999999761
964002,1014,-10530,123641,-1973,-8496,120881,582,19152,2384,1,18591,0.0009989999999999721
965000,1169,9352,129998,-20729,8980,131469,913,19152,3739,0,18592,0.0009980000000000544
966000,-2594,-3072,127453,-449,7953,125093,695,19188,3739,0,18593,0.0010000000000000009
967000,1471,24842,133618,3077,18125,120480,472,19127,2847,1,18594,0.0010000000000000009
968000,8749,2126,132177,-13561,-24769,156182,472,19178,1933,0,18595,0.0010000000000000009
969002,13358,-23304,124312,22524,-10276,132046,675,19190,2765,0,18596,0.0010019999999999474
970002,9772,-5067,139307,8826,-10718,132554,672,19132,2752,0,18597,0.0010000000000000009
971002,8259,-13809,134731,-8941,-11586,145371,998,19132,4088,1,18598,0.0010000000000000009
972000,4167,-8332,134958,7848,-961,133415,642,19187,4088,0,18599,0.0009980000000000544
973000,20456,2745,136859,24243,-2482,139629,523,19142,2629,0,18600,0.0010000000000000009
974003,2704,-5782,126578,-16357,-12468,136159,523,19163,2142,1,18601,0.0010029999999999761
975002,7484,3191,129764,9818,16642,115781,769,19194,3150,1,18602,0.0009989999999999721
976000,1976,4751,126847,20741,-9531,138118,645,19143,2642,1,18603,0.0009980000000000544
977000,3599,-2287,123839,-14256,9688,117479,911,19173,3731,0,18604,0.0010000000000000009
978000,-11498,11864,127973,-19264,8040,125740,687,19173,3731,1,18605,0.0010000000000000009
979001,9077,14016,126904,7522,14288,123173,423,19128,2814,1,18606,0.0010010000000000296
980000,-7656,22744,118986,1065,17121,104783,423,19170,1732,0,18607,0.0009989999999999721
981001,-5234,4797,125511,-28733,-1530,125677,701,19169,2871,0,18608,0.0010009999999999186
982000,-6509,-19575,118577,-12233,-22601,125148,673,19136,2756,0,18609,0.0009990000000000832
983000,-6924,9522,125174,7651,18278,109348,871,19188,3567,1,18610,0.0010000000000000009
984001,-1510,12499,126793,-26557,9767,120246,619,19188,3567,0,18611,0.0010009999999999186
985001,-3983,6239,123129,-18930,4005,124760,542,19147,2535,0,18612,0.0010000000000000009
986000,215,17934,122445,1510,14905,109322,542,19165,2220,1,18613,0.0009990000000000832
987000,-10588,2858,123006,-9316,-227,130860,738,19178,3023,1,18614,0.0010000000000000009
988000,3707,-10497,123954,-15904,-12784,121201,585,19155,2396,1,18615,0.0010000000000000009
989000,-3399,11700,129949,-3234,14745,125429,906,19188,3711,0,18616,0.0010000000000000009
990000,2810,-261,129212,-3130,2193,131448,691,19188,3711,0,18617,0.0010000000000000009
991000,-2847,22101,133805,-4587,17097,122819,573,19127,2830,1,18618,0.0010000000000000009
992002,7589,-5983,129891,-2718,-19356,146569,573,19183,2347,0,18619,0.0010019999999999474
993002,16557,-7643,130758,15994,-9026,134168,652,19177,2670,0,18620,0.0010000000000000009
994003,4336,-19143,133780,8033,-22378,138972,667,19153,2732,0,18621,0.0010010000000000296
995003,11896,-8109,137949,-6221,-2318,135218,985,19194,4034,1,18622,0.0010000000000000009
996003,3438,-10438,134082,2599,-13453,144802,631,19194,4034,0,18623,0.0010000000000000009
997002,20691,4857,136909,26482,2920,132563,496,19135,2584,0,18624,0.0009989999999999721
998003,6254,-8195,126459,-1368,-13159,131754,496,19164,2031,1,18625,0.0010010000000000296
999001,1552,-2360,129543,-636,4014,121889,750,19194,3072,1,18626,0.0009979999999999434
1000000,5854,7931,126039,16319,1339,130617,646,19139,2646,1,18627,0.0009990000000000832
1001000,-462,-306,125279,-2811,2049,122920,928,19180,3801,0,18628,0.0009999999999998899
1002001,-10428,12841,129532,-13708,12990,119373,692,19180,3801,1,18629,0.0010010000000000296
1003000,5148,15833,124471,-14818,9425,127976,430,19126,2834,1,18630,0.0009989999999999721
1004000,-4498,17392,122023,16303,17004,100646,430,19173,1761,0,18631,0.001000000000000112
1005000,-5994,6924,122998,-12361,-10080,132562,694,19157,2842,0,18632,0.0009999999999998899
1006000,-8112,-20768,117129,-31633,-4559,115608,663,19140,2715,1,18633,0.001000000000000112
1007000,-7567,15238,127006,4070,12411,117990,962,19194,3940,1,18634,0.0009999999999998899
1008002,3215,3289,123542,-12458,2799,122188,616,19194,2523,0,18635,0.0010020000000001694
1009002,-8410,10937,122614,-24695,12006,116586,568,19140,2523,0,18636,0.0009999999999998899
1010003,2526,14864,124848,228,5281,118121,728,19172,2326,1,18637,0.0010010000000000296
1011000,-11892,4807,123938,-2183,4220,125426,728,19173,2982,1,18638,0.0009969999999999146
1012001,2132,-11990,121578,-5116,-4642,123948,575,19153,2355,1,18639,0.0010010000000000296
1013000,-2164,15280,132142,-18759,6367,130642,873,19175,3576,0,18640,0.0009989999999999721
1014000,542,-2221,126925,802,12297,124519,683,19175,2797,1,18641,0.001000000000000112
1015000,-742,26156,135173,1501,13072,124957,537,19120,2797,1,18642,0.0009999999999998899
1016001,11140,-10667,129209,-7826,-27933,154221,646,19178,2199,0,18643,0.0010010000000000296
1017003,10981,-16218,129806,24481,-4867,129423,646,19182,2646,0,18644,0.0010019999999999474
1018000,8291,-12321,135193,4113,-13580,139716,666,19142,2728,0,18645,0.0009970000000001367
1019002,8740,-11615,136322,-6245,-13176,141930,968,19178,3965,1,18646,0.0010019999999999474
1020000,4530,-3672,137650,16158,6667,127375,622,19178,2548,0,18647,0.0009980000000000544
1021000,17662,5788,135869,-105,-10263,147484,492,19148,2548,0,18648,0.0009999999999998899
1022000,3521,-17081,127471,2380,-9485,129433,753,19155,2015,1,18649,0.001000000000000112
1023000,3178,12732,133137,18893,18871,119539,753,19205,3084,1,18650,0.0009999999999998899
1024000,5030,-4719,123121,4494,-7503,135194,633,19137,2593,0,18651,0.001000000000000112
1025001,-4183,4771,125425,-11213,9786,118557,914,19184,3743,0,18652,0.0010010000000000296
1026001,1883,9666,128681,-9752,9751,126324,684,19130,2801,1,18653,0.0009999999999998899
1027002,-2647,17140,121898,-1535,14283,120252,420,19130,2801,1,18654,0.0010010000000000296
1028003,-2024,20160,126906,-2520,15690,107281,685,19188,1720,0,18655,0.0010010000000000296
1029002,-10736,408,123276,-18032,-10987,131316,685,19159,2806,0,18656,0.0009989999999999721
1030000,-10209,-20966,115701,-11144,-10732,114802,665,19138,2724,1,18657,0.0009980000000000544
1031002,-5141,21089,130726,-4932,19397,114752,926,19194,3793,1,18658,0.0010019999999999474
1032002,-1992,-749,122226,-19284,-1415,125694,616,19139,2523,0,18659,0.0009999999999998899
1033000,-1678,17539,123208,-17836,17962,111164,584,19139,2523,0,18660,0.0009980000000000544
1034000,-5393,13338,126361,-4433,7062,122037,727,19168,2392,1,18661,0.001000000000000112
1035000,-7631,1064,121680,-7716,564,124295,727,19173,2978,1,18662,0.0009999999999998899
1036000,-748,-10993,121671,-6177,-10958,122685,582,19160,2384,0,18663,0.001000000000000112
1037000,-760,14325,132042,-13641,12979,129152,880,19188,3604,0,18664,0.0009999999999998899
1038000,3102,4323,128251,-299,8196,124929,684,19143,2801,1,18665,0.001000000000000112
1039001,-6037,22249,135111,-847,13371,125434,618,19143,2801,1,18666,0.0010010000000000296
1040000,14561,-11521,129856,-11695,-19264,149008,640,19182,2531,0,18667,0.0009989999999999721
1041002,5695,-16866,130554,23717,-15421,137929,640,19181,2621,0,18668,0.0010019999999999474
1042000,12610,-16673,133995,6408,-17068,133560,660,19140,2703,0,18669,0.0009980000000000544
1043003,5517,-4089,139138,-9457,-3317,139656,963,19180,3944,1,18670,0.0010029999999998651
1044002,10269,-6911,135673,4234,-6094,140242,620,19138,2539,0,18671,0.0009989999999999721
1045000,16829,3708,134195,28378,200,136385,502,19138,2539,0,18672,0.0009980000000000544
1046003,-526,-9095,130202,-4106,-10241,129625,736,19164,2056,1,18673,0.0010030000000000872
1047000,8934,910,128074,-6482,5098,121398,736,19187,3014,1,18674,0.0009969999999999146
1048000,-2505,3417,128494,25635,-134,132019,629,19153,2576,0,18675,0.001000000000000112
1049000,3599,2607,124261,-1858,4339,118034,904,19193,3703,0,18676,0.0009999999999998899
1050001,-13038,17400,127102,-30281,14426,124757,691,19131,2830,1,18677,0.0010010000000000296
1051002,6744,14806,125874,-2166,11473,121697,466,19131,1909,1,18678,0.0010010000000000296
1052000,-6414,16234,123263,17932,8255,103061,681,19170,1909,0,18679,0.0009980000000000544
1053000,-10898,-1238,121441,-31602,-9402,134491,658,19162,2789,0,18680,0.0009999999999998899
1054000,-4413,-15602,119482,-21853,-717,115110,658,19142,2695,1,18681,0.001000000000000112
1055006,-8244,11400,124893,-2738,7779,118218,943,19200,3862,1,18682,0.0010059999999998404
1056000,2453,13031,126135,-21660,12153,121019,617,19148,2527,0,18683,0.0009940000000001614
1057000,-8664,9391,123571,-21831,-8,123050,609,19148,2494,0,18684,0.0009999999999998899
1058000,47,5139,124308,14071,10425,110440,713,19167,2494,1,18685,0.001000000000000112
1059000,-11266,12477,125590,-9943,1133,130411,564,19167,2920,1,18686,0.0009999999999998899
1060000,2215,-17102,119397,-9457,1880,121984,564,19158,2310,0,18687,0.001000000000000112
1061000,-4653,17061,131896,-7385,1795,132863,850,19173,3481,0,18688,0.0009999999999998899
1062000,6809,3218,128351,347,14715,125765,679,19141,2781,1,18689,0.001000000000000112
1063003,-7785,22131,133862,-8575,8726,128168,654,19181,2679,1,18690,0.0010029999999998651
1064000,15224,-15573,130005,7463,-26202,151015,644,19181,2679,0,18691,0.0009970000000001367
1065002,7137,-9868,133686,22516,-3288,129064,653,19174,2638,0,18692,0.0010019999999999474
1066002,9630,-19297,131815,-2134,-19381,143856,653,19140,2674,1,18693,0.0009999999999998899
1067002,6883,-7652,139428,-4010,-9897,136710,936,19169,3834,1,18694,0.001000000000000112
1068000,7542,-2517,137224,17708,1650,133790,614,19145,2515,0,18695,0.0009980000000000544
1069000,12565,6108,135737,-177,-6174,141131,521,19161,2134,0,18696,0.0009999999999998899
1070000,7472,-15186,127531,-482,-9526,130035,729,19161,2134,1,18697,0.001000000000000112
1071000,755,11671,133502,30053,17027,120553,619,19199,2986,1,18698,0.0009999999999998899
1072000,8871,-3387,123225,756,-4335,130248,619,19139,2535,0,18699,0.0009999999999998899
1073004,-10247,3371,125717,-16836,7178,122201,878,19188,3596,0,18700,0.0010040000000000049
1074000,5552,13361,127473,-5740,12741,123687,677,19130,2773,1,18701,0.0009959999999999969
1075001,-6955,18050,122753,4129,13457,120783,476,19175,1950,1,18702,0.0010010000000000296
1076002,-3736,16821,128267,-9348,14948,107105,666,19175,1950,0,18703,0.0010010000000000296
1077000,-10639,-1878,121922,-15059,-13589,133728,652,19159,2728,0,18704,0.0009980000000000544
1078001,-12230,-18389,116644,-3141,-3419,111220,652,19144,2670,1,18705,0.0010010000000000296
1079001,-5265,20529,128214,-11138,12905,119082,926,19201,3793,1,18706,0.0009999999999998899
1080002,-1209,-696,123139,-19497,-2027,125867,608,19145,2490,0,18707,0.0010010000000000296
1081000,-2399,17882,122562,-12881,17266,112291,630,19171,2580,0,18708,0.0009980000000000544
1082000,-6733,12389,130364,-1777,7965,119145,705,19171,2580,1,18709,0.0009999999999998899
1083001,-8605,1401,121574,-10232,1103,126838,563,19166,2887,1,18710,0.0010010000000000296
1084000,20,-12259,122329,-2051,-7991,121832,563,19163,2306,0,18711,0.0009989999999999721
1085000,-1922,14243,131379,-12500,9346,130832,843,19160,3453,0,18712,0.001000000000000112
1086000,4938,6264,128659,-2379,10039,125846,675,19136,2765,1,18713,0.0009999999999998899
1087001,-6186,22174,135022,-3961,14473,123898,641,19179,2625,1,18714,0.0010010000000000296
1088003,15129,-17116,131270,-5993,-21989,151771,624,19179,2625,0,18715,0.0010020000000001694
1089001,4438,-16677,132316,26375,-12936,136332,651,19175,2556,0,18716,0.0009979999999998324
1090000,13875,-16637,133049,3096,-14685,134228,651,19142,2666,1,18717,0.0009989999999999721
1091000,2057,-3756,139592,-6630,-5448,141211,928,19157,3801,1,18718,0.001000000000000112
1092001,16252,-6438,135299,393,-6868,139178,627,19146,2568,0,18719,0.0010010000000000296
1093002,7975,7666,135692,29554,2742,139771,540,19161,2212,0,18720,0.0010010000000000296
1094002,4644,-12566,127097,-7047,-14545,125137,717,19161,2212,1,18721,0.0009999999999998899
1095000,7261,8236,130987,-2451,13088,123246,618,19187,2937,1,18722,0.0009980000000000544
1096000,-925,-2876,127156,28064,-3821,134483,618,19147,2531,0,18723,0.0009999999999998899
1097000,2373,3303,124357,-3612,5313,114318,877,19173,3592,0,18724,0.001000000000000112
1098001,-14313,21609,126661,-33720,10691,128110,679,19137,2781,1,18725,0.0010010000000000296
1099003,10153,11861,124831,427,17985,118210,499,19179,2044,1,18726,0.0010019999999999474
1100000,-9733,17932,123862,22466,6355,101962,651,19179,2666,0,18727,0.0009969999999999146
1101000,-10291,-3615,119695,-34703,-12877,137001,645,19166,2666,0,18728,0.001000000000000112
1102001,-5053,-15821,120105,3977,2586,112382,913,19142,2642,1,18729,0.0010010000000000296
1103002,-9121,12242,122857,2440,9772,117985,913,19177,3739,1,18730,0.0010010000000000296
1104000,2624,17131,127574,-26179,12752,123387,621,19144,2543,0,18731,0.0009979999999998324
1105000,-10133,6716,121388,-17046,-672,120740,650,19173,2662,0,18732,0.001000000000000112
1106000,-394,7835,128204,16336,12972,110516,699,19173,2863,1,18733,0.0009999999999998899
1107000,-10629,6579,124051,-11220,-11731,136199,556,19165,2863,1,18734,0.001000000000000112
1108000,4286,-15577,122156,-11759,10172,117173,827,19155,2277,0,18735,0.0009999999999998899
1109000,-8164,13776,130443,-5496,-3010,137507,827,19152,3387,0,18736,0.001000000000000112
1110000,10077,9773,130024,2036,21220,123320,672,19136,2752,1,18737,0.0009999999999998899
1111001,-9089,20066,134230,-6837,390,132064,618,19184,2531,1,18738,0.0010010000000000296
1112002,17092,-23731,131308,15421,-24905,148053,615,19173,2519,0,18739,0.0010010000000000296
1113002,4457,-7818,135396,17902,-7076,127601,640,19173,2519,0,18740,0.001000000000000112
1114000,11812,-18841,131312,-1636,-18404,145703,905,19142,2621,1,18741,0.0009979999999998324
1115006,3226,-7745,139658,-5655,-10608,135768,905,19154,3707,1,18742,0.0010060000000000624
1116005,9339,3696,139032,25610,2653,135675,605,19146,2478,0,18743,0.0009989999999999721
1117002,14504,3090,134458,-7260,-10467,144673,554,19167,2269,0,18744,0.0009970000000001367
1118003,4324,-10274,126293,8884,-3015,122652,714,19176,2924,1,18745,0.0010009999999998076
1119000,3651,11490,134634,29452,9501,125321,626,19176,2924,1,18746,0.0009970000000001367
1120000,6521,-6621,122271,-11723,-3684,127173,865,19150,2564,0,18747,0.0009999999999998899
1121000,-13915,6224,128960,-13495,6818,125185,865,19161,3543,0,18748,0.001000000000000112
1122002,10754,16802,127455,-727,17934,121554,672,19135,2752,1,18749,0.0010019999999999474
1123000,-16028,18945,122065,5401,10439,118965,531,19177,2175,1,18750,0.0009980000000000544
1124003,4015,15659,128706,-11216,14731,108040,641,19156,2625,0,18751,0.0010029999999998651
1125000,-17098,-9244,118004,-10624,-19751,135199,642,19156,2625,0,18752,0.0009970000000001367
1126000,-5276,-11852,118996,-1076,6636,106823,901,19144,2629,1,18753,0.0009999999999998899
1127000,-8063,19856,127558,-13739,8645,125677,901,19185,3690,1,18754,0.001000000000000112
1128002,-537,309,122663,-14711,117,124002,602,19149,2466,0,18755,0.0010019999999999474
1129000,-4279,21658,124376,-9836,17301,110909,642,19169,2629,0,18756,0.0009980000000000544
1130000,-7935,6802,128900,-1895,2146,123785,689,19164,2822,1,18757,0.0009999999999998899
1131001,-8816,1182,122016,-6351,2579,122120,549,19164,2822,1,18758,0.0010010000000000296
1132001,5198,-9631,124184,-4635,-3507,125756,820,19163,2249,0,18759,0.001000000000000112
1133002,-4504,11589,130434,-10671,4077,132892,820,19151,3358,0,18760,0.0010009999999998076
1134000,8079,11524,128863,632,15008,123219,671,19141,2748,1,18761,0.0009980000000000544
1135013,-6548,17056,135268,-6410,7106,128344,625,19183,2560,1,18762,0.0010130000000001527
1136008,16010,-20088,132955,3415,-21485,149539,608,19168,2490,0,18763,0.0009949999999998571
1137000,3835,-14521,133361,26145,-9849,132904,634,19168,2490,0,18764,0.000992000000000104
1138000,12394,-16949,134054,-2098,-15722,139132,900,19158,2597,1,18765,0.0009999999999998899
1139000,-399,-5183,138782,-6480,-6768,139420,900,19150,3686,1,18766,0.001000000000000112
1140002,20452,-40,136776,8990,-1536,136091,606,19151,2482,0,18767,0.0010019999999999474
1141000,2264,4074,134946,21558,-2334,140333,575,19158,2355,0,18768,0.0009980000000000544
1142001,11070,-11678,123500,-11927,-15235,121744,702,19182,2875,1,18769,0.0010010000000000296
1143000,5339,12424,134704,12608,17245,127766,603,19182,2470,1,18770,0.0009989999999999721
1144000,2749,-4501,123280,20719,-4132,127770,884,19150,2470,0,18771,0.0009999999999998899
1145001,-2861,7113,126846,-11641,15970,118180,675,19168,3621,0,18772,0.0010010000000000296
1146001,-6649,16244,126569,-28843,7900,128227,675,19140,2765,1,18773,0.001000000000000112
1147001,2366,15535,123426,11442,20176,112419,554,19181,2269,1,18774,0.0009999999999998899
1148003,-6901,14795,124745,11175,4134,109216,639,19161,2617,0,18775,0.0010019999999999474
1149000,-11334,-5852,119402,-36530,-19191,134541,629,19161,2576,0,18776,0.0009970000000001367
1150000,-4610,-11008,121127,7180,10225,109426,886,19144,2576,1,18777,0.0009999999999998899
1151000,-8241,12506,123346,-4835,8573,121245,604,19186,3629,1,18778,0.001000000000000112
1152002,707,11956,126521,-24046,8332,123431,604,19149,2474,0,18779,0.0010019999999999474
1153002,-8581,10043,121768,-8107,5343,115228,637,19165,2609,0,18780,0.0009999999999998899
1154000,-3540,9769,127605,2934,10816,117818,682,19147,2793,1,18781,0.0009980000000000544
1155002,-8964,778,123280,-9038,-14508,132344,536,19160,2195,1,18782,0.0010019999999999474
1156002,6196,-4620,127375,-11347,12885,119077,797,19160,2195,0,18783,0.001000000000000112
1157000,-9520,6933,128847,-6833,-3329,137385,671,19150,3264,0,18784,0.0009980000000000544
1158000,9223,13178,129754,5172,20777,122039,671,19138,2748,1,18785,0.0009999999999998899
1159002,-6791,17111,135891,-5428,-6470,136416,635,19187,2601,1,18786,0.0010019999999999474
1160002,19197,-24877,129091,12270,-21981,144696,607,19164,2486,0,18787,0.001000000000000112
1161002,2949,-7407,138213,15464,-10298,128513,629,19143,2576,0,18788,0.0009999999999998899
1162000,14599,-17809,131922,-2930,-16961,145745,877,19143,2576,1,18789,0.0009980000000000544
1163003,1434,-12192,137111,-2231,-9019,137659,593,19157,3592,1,18790,0.0010030000000000872
1164002,12038,8460,139766,27962,1973,133515,593,19153,2429,0,18791,0.0009989999999999721
1165000,15179,-789,130159,-8245,-13773,147178,603,19171,2470,0,18792,0.0009980000000000544
1166000,2366,-6032,126310,12108,3406,116823,702,19171,2875,1,18793,0.0009999999999998899
1167000,8095,14527,134516,21323,5164,127871,601,19150,2462,1,18794,0.001000000000000112
1168001,2034,-7564,121070,-14113,-1327,125843,831,19150,2462,0,18795,0.0010009999999998076
1169000,-11573,9451,129925,-8176,8402,124523,663,19158,3404,0,18796,0.0009990000000001942
1170000,9969,13637,127830,-3225,13995,124236,663,19142,2715,1,18797,0.0009999999999998899
1171000,-17379,20982,120102,7735,15405,113361,597,19180,2445,1,18798,0.001000000000000112
1172003,7371,15344,127765,-12529,10807,111238,650,19152,2662,0,18799,0.0010029999999998651
1173001,-17380,-15244,116494,-13416,-22109,134216,633,19142,2593,0,18800,0.0009980000000000544
1174001,-1441,-2824,121655,-158,11450,106108,872,19142,2593,1,18801,0.0009999999999998899
1175002,-7807,12565,127234,-11781,2722,129050,593,19176,3571,1,18802,0.0010010000000000296
1176002,-1912,763,121853,-15831,2082,122824,593,19159,2429,0,18803,0.001000000000000112
1177000,-2766,23539,125531,-6492,18122,109604,637,19174,2609,0,18804,0.0009980000000000544
1178000,-8769,6053,125762,-1761,710,125133,685,19157,2806,1,18805,0.0009999999999998899
1179002,-5996,-1987,123681,-5032,-795,122322,535,19163,2191,1,18806,0.0010019999999999474
1180002,5822,-3191,126256,-8875,2745,125965,791,19163,2191,0,18807,0.001000000000000112
1181001,-5847,5959,129331,-6076,1247,134955,662,19147,3240,0,18808,0.0009989999999999721
1182002,7535,17198,130296,2427,20611,120223,662,19142,2711,1,18809,0.0010010000000000296
1183000,-5229,11248,135405,-9914,-890,134094,738,19186,3023,1,18810,0.0009980000000000544
1184002,18258,-18345,131512,12188,-18077,144761,611,19169,2502,0,18811,0.0010019999999999474
1185000,4684,-15947,134747,21849,-13132,134742,630,19144,2580,0,18812,0.0009980000000000544
1186000,10668,-15477,135373,-3132,-13842,138235,876,19144,2580,1,18813,0.0009999999999998899
1187002,227,-5198,137487,-5132,-7336,140937,590,19144,3588,1,18814,0.0010019999999999474
1188000,20776,-2197,137135,8630,-4453,134027,590,19153,2416,0,18815,0.0009980000000000544
1189000,894,9176,134055,23164,1444,139805,609,19171,2494,0,18816,0.001000000000000112
1190000,13935,-14461,121262,-14129,-17425,119516,672,19175,2752,1,18817,0.0009999999999998899
1191000,4915,15200,134448,16177,18320,130461,589,19145,2412,1,18818,0.0009999999999998899
1192002,4613,-6970,123168,17912,-91,126947,826,19145,3383,0,18819,0.0010020000000001694
1193000,-2942,10458,125584,-12362,17143,115289,669,19145,3383,0,18820,0.0009979999999998324
1194000,-5412,16797,130277,-28067,8021,130394,595,19144,2740,1,18821,0.001000000000000112
1195000,1526,18962,120563,17715,22552,107556,595,19177,2437,1,18822,0.0009999999999998899
1196002,-8385,14631,123514,9093,19,114418,624,19153,2556,0,18823,0.0010020000000001694
1197000,-8521,-10516,120682,-30339,-21219,132388,616,19149,2523,0,18824,0.0009979999999998324
1198000,-6059,-5580,121020,9697,12581,109557,861,19149,3526,1,18825,0.001000000000000112
1199000,-5462,9222,123743,-7414,9772,119776,585,19169,3526,1,18826,0.0009999999999998899
1200000,-1497,12363,127212,-27141,6862,124203,660,19155,2396,0,18827,0.001000000000000112
1201000,-7456,10042,121969,-7341,6027,114817,660,19173,2703,0,18828,0.0009999999999998899
1202005,-3666,10934,125858,3801,10565,119965,669,19152,2740,1,18829,0.0010050000000001447
1203001,-5350,-4402,124821,-13951,-20192,131737,514,19160,2105,1,18830,0.0009959999999999969
1204000,5197,2167,128134,-11869,18064,118923,777,19148,3182,0,18831,0.0009989999999999721
1205000,-7150,1713,128881,-3610,-3455,136789,663,19148,3182,0,18832,0.0009999999999998899
1206000,6717,16187,130662,5474,22420,120106,682,19145,2715,1,18833,0.001000000000000112
1207000,-3809,13714,135853,-8414,-14206,142412,682,19189,2793,1,18834,0.0009999999999998899
1208000,21284,-22148,126998,12975,-14759,139447,597,19173,2445,0,18835,0.001000000000000112
1209002,2683,-7560,139670,12542,-16246,131669,615,19148,2519,0,18836,0.0010019999999999474
1210002,15758,-17556,132301,-3999,-12191,144325,851,19137,3485,1,18837,0.001000000000000112
1211002,1451,-11181,136152,1240,-7538,137705,595,19137,3485,1,18838,0.0009999999999998899
1212002,15331,5418,137605,29862,340,135838,632,19156,2437,0,18839,0.001000000000000112
1213000,13813,-41,127654,-12443,-10661,142911,632,19172,2588,0,18840,0.0009979999999998324
1214000,1927,-4066,126342,11354,3704,118558,695,19169,2847,1,18841,0.001000000000000112
1215002,10486,12206,132074,16101,-105,130674,587,19142,2404,1,18842,0.0010019999999999474
1216001,-789,-5414,121841,-12916,1762,122982,814,19142,3334,0,18843,0.0009989999999999721
1217000,-10731,8847,129706,-10651,7898,126750,660,19142,3334,0,18844,0.0009989999999999721
1218000,11387,14714,129533,140,13680,121856,607,19145,2703,1,18845,0.001000000000000112
1219005,-16124,23076,117153,7561,19661,110838,607,19186,2486,1,18846,0.0010049999999999226
1220001,8148,13738,127013,-18623,6650,113552,626,19149,2564,0,18847,0.0009959999999999969
1221000,-14092,-19629,116392,-14760,-23394,132491,612,19145,2507,0,18848,0.0009989999999999721
1222000,-2362,5008,122941,2510,16040,106709,851,19160,3485,1,18849,0.001000000000000112
1223000,-5176,7158,126875,-12635,2526,128124,593,19160,3485,1,18850,0.0009999999999998899
1224000,-2518,4160,122816,-17994,6740,121673,671,19150,2429,0,18851,0.001000000000000112
1225000,-3387,24617,124370,-1347,15466,110258,671,19173,2748,0,18852,0.0009999999999998899
1226000,-8158,3780,123071,-6953,778,126128,663,19146,2715,1,18853,0.001000000000000112
1227002,-2935,-6612,126203,-5165,-7949,124771,500,19166,2048,1,18854,0.0010019999999999474
1228002,4429,2590,126574,-11671,8475,124525,772,19149,3162,0,18855,0.001000000000000112
1229000,-4596,3081,129976,-2036,1508,134743,658,19149,3162,0,18856,0.0009979999999998324
1230002,5734,18384,131294,704,19593,121340,705,19143,2695,1,18857,0.0010020000000001694
1231001,-1189,6494,134179,-6497,-8894,137919,705,19190,2887,1,18858,0.0009989999999999721
1232000,19951,-14922,127935,15424,-17002,143169,583,19171,2388,0,18859,0.0009989999999999721
1233000,5129,-14812,136767,17188,-14469,131575,613,19146,2511,0,18860,0.0009999999999998899
1234000,9423,-12906,135536,-5311,-11381,139469,848,19131,3473,1,18861,0.001000000000000112
1235000,-2087,-5511,136474,-4479,-7538,141116,564,19131,2310,1,18862,0.0009999999999998899
1236000,26115,-904,137499,14682,-3616,134488,610,19151,2310,0,18863,0.001000000000000112
1237000,-3169,7305,131149,20529,-14,136442,677,19179,2498,1,18864,0.0009999999999998899
1238000,16498,-13138,121301,-15467,-14942,120196,677,19168,2773,1,18865,0.001000000000000112
1239000,2066,12092,132708,17991,12608,133607,586,19152,2400,1,18866,0.0009999999999998899
1240002,6739,-5903,124479,15508,4742,122976,810,19150,3318,0,18867,0.0010020000000001694
1241006,-6563,13617,125338,-19835,15888,116724,666,19150,2728,0,18868,0.0010040000000000049
1242002,-3158,15941,132584,-24549,9013,129672,610,19145,2728,1,18869,0.0009959999999999969
1243002,1273,19544,117885,29379,15881,105958,623,19181,2498,1,18870,0.0009999999999998899
1244002,-11799,6458,121616,-5082,-2744,119627,623,19143,2552,0,18871,0.001000000000000112
1245002,-2043,-11766,122294,-19673,-16518,128758,590,19148,2416,0,18872,0.0009999999999998899
1246000,-8345,1614,122007,9465,13819,109839,834,19156,3416,1,18873,0.0009980000000000544
1247000,-2158,9761,123751,-12687,14589,116923,583,19156,2388,1,18874,0.0009999999999998899
1248000,-4918,13475,127380,-30893,2723,126628,697,19158,2388,0,18875,0.001000000000000112
1249000,-3658,8977,118606,-1245,8085,112210,662,19169,2855,0,18876,0.0009999999999998899
1250003,-7142,12885,125927,703,8782,122447,662,19139,2711,1,18877,0.0010030000000000872
1251000,743,-11688,124010,-17811,-20222,130485,477,19162,1954,1,18878,0.0009969999999999146
1252001,1101,10106,129221,-9331,19127,120504,748,19140,3064,0,18879,0.0010010000000000296
1253000,-1640,-1601,129351,-1850,1682,132827,652,19147,2670,0,18880,0.0009989999999999721
1254000,2030,19680,132871,84,17748,122989,851,19147,2670,1,18881,0.001000000000000112
1255003,121,3704,134197,-5677,-23500,148589,575,19199,3485,0,18882,0.0010029999999998651
1256002,22058,-16683,127343,14633,-7458,131356,575,19158,2355,0,18883,0.0009989999999999721
1257000,1801,-11226,138147,8735,-22840,140073,619,19153,2535,0,18884,0.0009980000000000544
1258000,17856,-15231,133965,-3780,-3074,137046,829,19124,3395,1,18885,0.001000000000000112
1259000,140,-4344,136532,4513,-4486,139719,543,19164,2224,1,18886,0.0009999999999998899
1260000,18748,-602,134774,27790,686,135609,609,19164,2224,0,18887,0.001000000000000112
1261000,11209,1692,127882,-16630,-9541,137992,675,19170,2494,1,18888,0.0009999999999998899
1262000,-229,-8840,126196,13691,1706,123739,675,19167,2765,1,18889,0.001000000000000112
1263002,11484,10614,128901,16369,-15,129072,561,19149,2298,1,18890,0.0010019999999999474
1264000,-2139,-1666,124170,-17694,3345,123695,791,19151,3240,0,18891,0.0009980000000000544
1265000,-10077,8727,129322,-9500,10713,126326,653,19134,2674,0,18892,0.0009999999999998899
1266002,10894,18806,129598,3216,13587,119395,617,19134,2674,1,18893,0.0010019999999999474
1267002,-13904,18256,116893,-807,16685,113210,613,19185,2527,1,18894,0.001000000000000112
1268000,4166,9660,126640,-19350,2332,116633,613,19138,2511,0,18895,0.0009980000000000544
1269000,-9816,-19149,117390,-15742,-23427,126406,572,19157,2343,0,18896,0.0009999999999998899
1270000,-4978,9798,124917,4740,19302,110252,832,19155,3408,1,18897,0.001000000000000112
1271000,-2491,6553,126412,-20758,5152,123794,578,19154,2367,1,18898,0.0009999999999998899
1272000,-4556,7265,123729,-12214,7303,122704,713,19154,2367,0,18899,0.001000000000000112
1273000,-629,21213,121448,-3498,14851,110271,651,19169,2920,1,18900,0.0009999999999998899
1274000,-9993,7253,123626,-9787,4869,124844,651,19129,2666,1,18901,0.001000000000000112
1275000,1038,-12314,125116,-6295,-17268,127289,460,19163,1884,1,18902,0.0009999999999998899
1276002,1461,6233,127169,-10140,12710,124208,746,19135,3055,0,18903,0.0010019999999999474
1277000,-2084,1062,130442,-2218,2276,133664,648,19143,2654,0,18904,0.0009980000000000544
1278000,2557,23749,133106,-1151,22058,120283,871,19143,3567,1,18905,0.001000000000000112
1279002,2042,215,131931,-3248,-17783,142081,569,19199,3567,0,18906,0.0010019999999999474
1280000,19632,-13301,128130,15459,-12738,139321,591,19164,2330,0,18907,0.0009980000000000544
1281000,5968,-19391,135104,11521,-24755,136240,591,19149,2421,0,18908,0.0009999999999998899
1282000,10560,-8555,137108,-4281,-2774,134487,822,19118,3367,1,18909,0.001000000000000112
1283000,-2049,-4347,135522,-2018,-8334,143037,527,19162,2158,0,18910,0.0009999999999998899
1284000,26459,-2117,136614,20797,-3662,132542,621,19162,2543,0,18911,0.001000000000000112
1285000,-1109,6100,130089,11518,440,136133,661,19170,2543,1,18912,0.0009999999999998899
1286000,11872,-13013,123084,-8437,-12511,120348,555,19165,2707,1,18913,0.001000000000000112
1287002,1028,12311,130369,15962,273,130943,555,19156,2273,1,18914,0.0010019999999999474
1288000,7193,-4319,124782,8244,3112,125913,783,19154,3207,0,18915,0.0009980000000000544
1289000,-11413,13735,126883,-20035,18300,115620,653,19149,2674,1,18916,0.0009999999999998899
1290000,2786,17968,131056,-18519,9828,130019,651,19185,2666,1,18917,0.001000000000000112
1291000,-1405,18624,118496,28222,12841,103965,608,19185,2666,0,18918,0.0009999999999998899
1292002,-10966,5992,122284,-33206,-4877,125252,543,19134,2490,0,18919,0.0010019999999999474
1293002,-134,-17282,121273,-9219,-13732,124774,543,19147,2224,0,18920,0.001000000000000112
1294000,-11055,5151,122970,2338,12890,111122,815,19152,3338,1,18921,0.0009980000000000544
1295000,2006,10315,124781,-19195,14341,118316,569,19162,2330,1,18922,0.0009999999999998899
1296003,-9029,13910,126974,-25838,2626,126270,753,19175,3084,0,18923,0.0010030000000000872
1297000,745,7974,118656,149,8606,110814,648,19175,3084,1,18924,0.0009969999999999146
1298003,-11349,13241,125963,-5180,8406,125173,439,19129,2654,1,18925,0.0010030000000000872
1299000,3952,-16436,122200,-10834,-15474,128287,439,19165,1798,1,18926,0.0009969999999999146
1300001,-789,13306,130109,-9179,14653,122417,729,19134,2986,0,18927,0.0010010000000000296
1301002,-1275,-2703,129100,-5992,5700,131617,633,19153,2593,0,18928,0.0010010000000000296
1302001,251,22524,133735,-686,16109,123944,827,19203,3387,1,18929,0.0009989999999999721
1303002,6941,1498,132177,-4061,-20618,149126,572,19203,3387,0,18930,0.0010010000000000296
1304001,16788,-18998,126597,14720,-10112,133874,582,19163,2343,0,18931,0.0009989999999999721
1305000,4116,-12686,137192,5833,-18704,138322,582,19143,2384,0,18932,0.0009989999999999721
1306006,14016,-14315,135123,-3123,-8797,140546,815,19103,3338,1,18933,0.0010060000000000624
1307000,4685,-6976,135206,10846,1753,134071,495,19162,2027,0,18934,0.0009939999999999394
1308003,15047,6931,136293,12803,1181,137627,637,19169,2609,0,18935,0.0010030000000000872
1309000,10899,-7815,126524,-11581,-15486,138817,663,19169,2609,1,18936,0.0009969999999999146
1310002,-2887,629,130462,15428,13808,117607,538,19165,2715,1,18937,0.0010019999999999474
1311001,9860,5448,124720,15220,-5256,134490,538,19160,2203,1,18938,0.0009989999999999721
1312002,-3356,129,124671,-20220,6121,120456,775,19142,3174,0,18939,0.0010010000000000296
1313002,-5803,8759,129131,-6120,11420,123594,646,19147,2646,1,18940,0.001000000000000112
1314000,7914,18854,124842,1555,13933,122499,671,19189,2748,1,18941,0.0009979999999998324
1315001,-9407,17934,120430,-8184,16514,108165,600,19189,2748,0,18942,0.0010010000000000296
1316000,-2195,7472,126847,-15978,-3596,125048,533,19134,2457,0,18943,0.0009989999999999721
1317001,-9056,-24838,114868,-16746,-21786,121899,533,19154,2183,0,18944,0.0010010000000000296
1318000,-6309,18116,128558,3745,22926,109510,812,19144,3326,1,18945,0.0009989999999999721
1319000,-1121,-112,124418,-23715,-1055,128307,537,19161,2199,0,18946,0.001000000000000112
1320000,-3568,11741,122755,-13136,13364,114998,777,19177,3182,0,18947,0.0009999999999998899
1321000,-1437,21384,124364,-4582,15753,113905,638,19177,3182,1,18948,0.001000000000000112
1322000,-9671,3344,122405,-10926,1221,127711,442,19132,2613,1,18949,0.0009999999999998899
1323000,-300,-13074,123232,-7210,-17436,122584,442,19167,1810,1,18950,0.001000000000000112
1324002,872,11073,130099,-11578,15335,126988,727,19130,2978,0,18951,0.0010019999999999474
1325006,-559,1553,128762,-564,4335,130319,631,19149,2584,0,18952,0.0010040000000000049
1326003,-110,25294,134579,50,21111,119367,883,19204,3617,1,18953,0.0009970000000001367
1327002,9245,-5657,129939,-8768,-20482,147897,561,19204,2298,0,18954,0.0009989999999999721
1328000,12021,-18017,128040,20151,-17840,140800,573,19167,2298,0,18955,0.0009979999999998324
1329003,10818,-16505,135107,8210,-19320,131237,814,19151,2347,0,18956,0.0010030000000000872
1330000,7021,-5146,137884,-7841,-2045,141249,814,19099,3334,1,18957,0.0009969999999999146
1331000,2379,-7588,135714,464,-8152,138627,505,19163,2068,0,18958,0.001000000000000112
1332000,24739,2959,135660,26287,722,136220,652,19173,2670,0,18959,0.0009999999999998899
1333000,-5705,-3652,130802,5935,-5289,131355,651,19173,2666,1,18960,0.001000000000000112
1334002,15244,-5105,124771,-13242,13820,120177,536,19161,2666,1,18961,0.0010019999999999474
1335002,-5271,6533,129897,21675,-3953,134138,769,19159,2195,0,18962,0.001000000000000112
1336002,9948,-1014,123944,7983,10771,118387,769,19142,3150,0,18963,0.0009999999999998899
1337001,-15382,16959,127298,-28234,13815,123124,635,19150,2601,1,18964,0.0009989999999999721
1338001,6575,13587,127744,-13395,13146,125302,695,19189,2847,1,18965,0.001000000000000112
1339000,-2153,21633,121514,11489,9886,102151,590,19189,2416,0,18966,0.0009989999999999721
1340000,-13786,-115,121599,-40051,-7135,130711,529,19138,2416,0,18967,0.0009999999999998899
