t_us,ax,ay,az,ax1,ay1,az1,shunt_raw,bus_raw,curr_raw,pg_rpm,seq,dt
0,1396,3265,128099,-3076,2084,126175,44,19239,180,1,11758,
1000,3798,2581,127902,303,561,127463,36,19240,147,1,11759,0.001
2003,2185,1860,127987,-1543,349,127375,38,19238,156,1,11760,0.001003
3003,1107,949,127931,-2476,-259,127336,35,19244,143,1,11761,0.001
4000,719,1171,128224,-2971,-477,127590,31,19244,143,1,11762,0.000997
5000,841,1286,128034,-1553,356,127342,32,19241,127,1,11763,0.001
6000,1270,2420,128065,-3082,1278,126438,32,19244,131,1,11764,0.001
7000,425,2858,128170,-3348,838,127078,32,19241,131,1,11765,0.0009999999999999992
8000,413,2690,128134,-1489,1835,126858,35,19240,143,1,11766,0.0010000000000000009
9006,-302,2704,127888,-3232,1075,127404,42,19242,172,0,11767,0.001006
10000,-234,2835,127928,-3793,1576,127014,36,19242,172,0,11768,0.000994
11002,1922,3012,128205,-1367,1490,126383,36,19245,147,0,11769,0.0010019999999999994
12000,239,2598,127737,-2508,1079,126667,36,19239,147,0,11770,0.0009980000000000006
13000,585,2505,128154,-3136,630,127085,34,19241,139,0,11771,0.0009999999999999992
14003,331,856,127868,-2689,-243,127844,31,19240,127,0,11772,0.0010030000000000004
15002,1069,2401,128401,-1669,976,126930,29,19240,119,0,11773,0.0009989999999999999
16001,1339,3111,128298,-2647,1630,126502,32,19240,119,0,11774,0.0009989999999999982
17002,1176,2335,128326,-2355,615,127460,37,19239,131,0,11775,0.0010010000000000019
18003,1232,1503,128235,-1244,131,127520,37,19243,152,1,11776,0.0010009999999999984
19000,216,2061,128013,-2450,1019,127534,41,19245,168,1,11777,0.0009970000000000014
20002,2338,3578,128006,-1915,1831,126867,34,19238,139,1,11778,0.0010019999999999994
21000,1609,3174,128100,-2515,1896,126684,37,19242,152,1,11779,0.0009979999999999989
22000,1065,2298,127806,-715,1001,126935,34,19242,152,1,11780,0.0010000000000000009
23000,1369,2118,127618,-1624,736,127080,30,19242,139,1,11781,0.0010000000000000009
24000,1204,1776,127762,-2462,955,126916,30,19243,123,1,11782,0.0010000000000000009
25000,1554,3944,128085,-1948,2685,126187,32,19243,131,1,11783,0.0009999999999999974
26001,1091,4070,128067,-2328,2630,126141,33,19244,135,1,11784,0.0010010000000000019
27002,244,2504,127853,-2482,652,127470,34,19241,139,1,11785,0.0010009999999999984
28000,-66,919,127857,-3619,-573,127333,40,19241,164,1,11786,0.0009979999999999989
29000,-660,2114,128159,-3618,825,127333,43,19236,164,0,11787,0.0010000000000000009
30000,-77,3427,128213,-3498,2400,126672,38,19239,176,0,11788,0.0010000000000000009
31000,593,3666,128083,-2762,2183,126174,38,19244,156,0,11789,0.0010000000000000009
32001,1484,736,127674,-4139,-967,128631,33,19237,135,0,11790,0.0010010000000000019
33000,581,-578,127430,460,-1611,125722,34,19242,139,0,11791,0.0009989999999999999
34000,572,3079,128235,-1799,1882,127046,32,19242,131,0,11792,0.000999999999999994
35001,1590,3215,127979,-4584,1708,126371,31,19243,131,0,11793,0.0010010000000000019
36000,830,6188,128837,-1353,4792,126512,34,19238,127,0,11794,0.0009989999999999999
37001,1648,2430,127412,-2079,-15,127624,34,19239,139,0,11795,0.0010010000000000019
38000,-307,1167,127394,-2741,365,126193,39,19236,160,0,11796,0.0009989999999999999
39000,787,1848,127843,-1480,-116,127408,44,19241,180,1,11797,0.0010000000000000009
40000,3102,3044,127391,-1110,3196,126625,36,19241,147,1,11798,0.0010000000000000009
41000,2272,4773,128449,-2294,3101,126566,32,19241,147,1,11799,0.000999999999999994
42000,1634,4896,128519,-1275,1703,126445,32,19242,131,1,11800,0.0010000000000000009
43000,-707,293,127028,-2336,-1856,128042,32,19240,131,1,11801,0.0010000000000000009
44000,0,167,127704,-2367,-518,127552,29,19242,119,1,11802,0.0010000000000000009
45000,2141,1777,127820,-3389,1897,126597,29,19241,119,1,11803,0.0010000000000000009
46000,792,5649,128126,-2604,4964,124991,32,19239,131,1,11804,0.0010000000000000009
47000,285,5013,128671,-4153,1686,126983,37,19239,131,0,11805,0.0010000000000000009
48000,1234,-164,127281,-1911,-3012,128560,38,19239,152,0,11806,0.0010000000000000009
49000,-2142,1160,128215,2765,1921,125742,38,19240,156,0,11807,0.000999999999999994
50002,3737,33,127091,-9549,-3441,130117,39,19238,160,0,11808,0.0010020000000000029
51000,934,3271,128604,-2370,7621,123728,37,19241,152,0,11809,0.0009979999999999989
52000,1536,9417,128876,5629,3848,127044,32,19245,131,0,11810,0.0010000000000000009
53000,81,458,126458,-12176,-564,126458,32,19245,131,0,11811,0.0010000000000000009
54000,-4173,2147,128324,-695,-322,126423,31,19243,131,0,11812,0.0010000000000000009
55001,4175,-1154,127248,993,-1442,129994,31,19241,127,0,11813,0.001000999999999995
56000,700,4036,128003,-5334,5334,123572,31,19241,127,0,11814,0.0009989999999999999
57000,2791,6330,129734,-1180,2882,128898,40,19240,164,0,11815,0.0010000000000000009
58000,1993,402,127637,162,-1579,126308,46,19235,188,0,11816,0.0010000000000000009
59007,-2097,-951,127385,-3919,-2721,129083,49,19235,188,1,11817,0.001007000000000001
60000,4617,-1201,129229,-1181,-1406,129968,37,19242,201,1,11818,0.0009930000000000008
61001,218,4083,127583,-1770,4586,123647,37,19240,152,1,11819,0.0010010000000000019
62000,3319,7132,128877,-4002,4895,126561,35,19243,143,1,11820,0.0009989999999999999
63000,-1374,2784,128162,508,-49,127811,32,19238,131,1,11821,0.0010000000000000009
64000,-1249,-1538,126554,-2593,-2928,127228,31,19240,127,1,11822,0.0010000000000000009
65003,4127,2024,128011,-5907,2104,128148,33,19240,127,1,11823,0.00100299999999999
66000,1391,6841,128706,4387,6281,124457,35,19239,135,1,11824,0.0009970000000000118
67000,3273,5637,127774,-3480,2879,124277,35,19240,143,0,11825,0.000999999999999987
68000,-1254,-1175,127687,-7766,-4005,131045,41,19240,168,0,11826,0.0010000000000000009
69000,-287,-2579,128073,2833,-3221,128740,38,19244,156,0,11827,0.0010000000000000009
70000,971,2966,127679,-3373,2719,125267,37,19241,152,0,11828,0.0010000000000000009
71000,-1461,6546,129348,-8531,5287,126268,36,19241,147,0,11829,0.0010000000000000009
72002,3845,4126,128142,347,1962,127074,35,19241,147,0,11830,0.0010020000000000029
73000,-671,-376,126887,1725,-2104,126503,30,19241,143,0,11831,0.0009979999999999989
74000,1118,-772,127669,-5795,-2167,129224,30,19242,123,0,11832,0.0010000000000000009
75000,2878,1963,127935,-918,1340,126225,35,19242,143,0,11833,0.0010000000000000009
76000,797,7559,128609,1863,6651,124191,37,19239,152,1,11834,0.0010000000000000009
77001,1791,3863,128654,-7771,1546,129237,34,19239,139,1,11835,0.0010010000000000019
78000,1067,577,127459,-2215,-1316,127164,41,19240,139,1,11836,0.0009989999999999999
79001,-473,1720,128052,3191,500,126475,40,19244,168,1,11837,0.0010010000000000019
80000,1807,762,127499,-5486,-515,127120,40,19243,164,1,11838,0.0009989999999999999
81000,1936,4185,128379,-4413,3054,126260,38,19243,156,1,11839,0.0010000000000000009
82000,4528,4079,128206,4290,2728,127288,35,19242,143,1,11840,0.000999999999999987
83000,146,2594,127631,-2442,1400,125924,32,19242,131,1,11841,0.0010000000000000009
84001,1083,30,128187,-4892,-3004,129426,34,19237,131,1,11842,0.0010010000000000019
85000,1961,-197,127598,1569,1284,126634,35,19240,139,1,11843,0.0009989999999999999
86000,689,4408,128165,-3482,4508,126289,35,19239,143,1,11844,0.0010000000000000009
87000,862,6968,129151,-5937,4637,126065,39,19239,160,1,11845,0.0010000000000000009
88000,-2159,3100,127205,-2127,-241,126524,45,19240,184,0,11846,0.0010000000000000009
89000,365,1871,127635,-3433,315,127711,39,19241,160,0,11847,0.0010000000000000009
90000,1840,255,127667,-2347,-1806,128875,40,19241,160,0,11848,0.0010000000000000009
91000,3284,1587,127412,1777,3134,124716,38,19242,164,0,11849,0.0010000000000000009
92000,1918,5300,128865,-3688,2007,127062,38,19240,156,0,11850,0.0010000000000000009
93000,968,1581,128225,-3468,531,127468,33,19241,135,0,11851,0.0010000000000000009
94000,876,1972,128101,212,-859,127661,34,19241,139,0,11852,0.0010000000000000009
95000,307,141,127657,-2861,539,127644,36,19240,147,0,11853,0.0010000000000000009
96000,126,4899,128416,-4436,3863,125572,41,19240,147,0,11854,0.0010000000000000009
97000,1537,4408,127977,-1965,2734,126099,44,19239,168,1,11855,0.000999999999999987
98001,1274,3961,127825,1211,1354,127262,44,19239,180,1,11856,0.0010010000000000019
99000,4061,785,127696,-1196,-1014,127940,38,19239,156,1,11857,0.0009989999999999999
100000,2216,1838,128010,-480,468,126665,40,19239,164,1,11858,0.0010000000000000009
101002,2389,2185,127945,-512,958,126899,34,19241,139,1,11859,0.0010020000000000029
102002,2360,2646,128320,-2133,1220,127382,32,19241,139,1,11860,0.0010000000000000009
103000,1045,2006,127876,-2508,472,127304,34,19242,131,1,11861,0.0009979999999999989
104000,377,2854,127837,-2111,1873,126145,34,19240,139,1,11862,0.0010000000000000009
105000,82,2440,127774,-3083,981,126931,33,19237,135,1,11863,0.0010000000000000009
106001,996,3070,127849,-3129,1963,126617,35,19238,143,1,11864,0.0010010000000000019
107000,806,3891,128124,-1855,2703,126601,40,19240,164,0,11865,0.0009989999999999999
108000,1953,3508,127883,-2771,1596,126749,37,19240,164,0,11866,0.0010000000000000009
109002,989,2286,127865,-1845,733,126861,38,19238,152,0,11867,0.0010020000000000029
110000,1111,1016,127662,-2166,-473,127102,38,19239,156,0,11868,0.0009979999999999989
111000,620,413,127852,-2267,-712,127810,37,19241,152,0,11869,0.0010000000000000009
112001,1142,1537,128255,-3127,469,127502,33,19238,135,0,11870,0.001000999999999988
113001,1240,2938,128525,-2313,1971,126881,31,19243,127,0,11871,0.0010000000000000009
114000,132,3536,128496,-2578,2220,126366,33,19243,135,0,11872,0.0009989999999999999
115000,836,2226,127843,-2473,745,127192,35,19240,135,0,11873,0.0010000000000000009
116000,871,1605,127781,-1505,398,127431,42,19240,143,0,11874,0.0010000000000000009
117001,1954,2772,127780,-1455,1915,126817,42,19238,172,1,11875,0.0010010000000000019
118000,1325,4459,128406,-2964,3061,126224,44,19240,180,1,11876,0.0009989999999999999
119003,3209,2732,127952,-460,534,127470,36,19240,147,1,11877,0.0010030000000000039
120000,1780,1294,127994,-1368,-357,127703,36,19240,147,1,11878,0.0009969999999999979
121001,925,-365,128101,-1939,-1339,128029,35,19244,147,1,11879,0.0010010000000000019
122000,1019,1971,128297,-2758,578,127343,32,19242,143,1,11880,0.0009989999999999999
123000,834,2009,128270,-1760,672,127467,32,19239,131,1,11881,0.0010000000000000009
124000,1136,2937,128063,-2548,1613,126561,31,19240,127,1,11882,0.0010000000000000009
125000,464,3034,128156,-2630,1547,126705,34,19240,139,1,11883,0.0010000000000000009
126000,715,2226,127773,-2031,822,127084,37,19240,152,1,11884,0.0010000000000000009
127000,248,2498,127850,-2703,1198,127089,43,19241,152,0,11885,0.0010000000000000009
128000,489,3682,128066,-3722,1646,126878,38,19240,176,0,11886,0.0010000000000000009
129000,1716,3647,128145,-1681,2009,127050,38,19242,156,0,11887,0.0010000000000000009
130000,-78,1387,127881,-2738,-217,126914,34,19243,139,0,11888,0.0010000000000000009
131000,151,2161,128213,-2519,698,127216,30,19244,123,0,11889,0.0010000000000000009
132000,378,1382,127833,-3027,509,127219,31,19243,127,0,11890,0.0010000000000000009
133000,1268,2633,128116,-1698,2035,126420,31,19243,127,0,11891,0.0010000000000000009
134000,1621,3110,128233,-2175,1303,126586,33,19240,127,0,11892,0.0009999999999999731
135000,1205,2712,128047,-2432,1543,126966,33,19242,135,0,11893,0.0010000000000000009
136000,1084,1933,128041,-1583,-26,127521,37,19240,152,1,11894,0.0010000000000000009
137000,515,2035,128050,-1783,1643,127553,35,19239,143,1,11895,0.0010000000000000009
138000,2147,3454,128003,-1764,1969,127041,36,19239,147,1,11896,0.0010000000000000009
139000,1839,2927,128064,-1839,827,126883,37,19239,147,1,11897,0.0010000000000000009
140000,839,1958,127898,-1122,551,126827,33,19240,152,1,11898,0.0010000000000000009
141000,1145,1715,127578,-2273,434,127227,33,19244,135,1,11899,0.0010000000000000009
142000,1119,2670,127859,-2586,1905,126570,33,19243,135,1,11900,0.0010000000000000009
143001,1135,4227,127922,-2277,3583,125813,29,19240,119,1,11901,0.0010010000000000019
144030,843,4233,127930,-2338,1853,126680,32,19237,131,1,11902,0.0010290000000000021
145000,53,1670,127724,-2439,-446,127381,34,19237,131,1,11903,0.0009699999999999986
146000,299,683,127677,-3885,-481,127705,39,19241,139,1,11904,0.0010000000000000009
147000,-296,2347,128407,-3905,1455,127141,39,19238,160,0,11905,0.0010000000000000009
148000,-257,4084,128516,-2456,3231,126639,42,19240,172,0,11906,0.0010000000000000009
149000,567,3635,128290,-3686,991,126783,36,19239,147,0,11907,0.0010000000000000009
150000,747,59,127710,-3085,-2170,128546,35,19241,143,0,11908,0.0010000000000000009
151001,717,-421,127410,250,-510,126732,32,19241,143,0,11909,0.0010010000000000019
152000,391,3417,128036,-2782,2870,125676,30,19239,131,0,11910,0.0009989999999999999
153000,1521,5040,128194,-4737,3961,126558,30,19239,123,0,11911,0.0010000000000000009
154000,584,5509,128487,-1253,3082,126799,31,19238,127,0,11912,0.0010000000000000009
155001,1484,1292,127418,-1564,-1102,128196,32,19239,131,0,11913,0.0010010000000000019
156001,-411,364,127624,-2478,-511,126736,40,19239,164,1,11914,0.0010000000000000009
157000,1249,1786,127984,-2913,354,127182,37,19239,164,1,11915,0.0009989999999999999
158000,3366,4210,128139,-1226,4265,125982,36,19241,152,1,11916,0.0010000000000000009
159000,2583,5083,128407,-2889,2324,126941,36,19241,147,1,11917,0.0010000000000000009
160000,669,2278,127682,252,965,125592,33,19242,135,1,11918,0.0010000000000000009
161002,-482,846,127338,-2865,-1567,127950,30,19242,123,1,11919,0.0010020000000000029
162000,1207,-448,127342,-3764,-285,128644,28,19243,115,1,11920,0.0009979999999999989
163000,1368,6005,128337,-175,5143,125061,30,19243,123,1,11921,0.0010000000000000009
164000,2042,6866,128661,-2834,5547,123641,33,19240,123,1,11922,0.0009999999999999731
165000,-1782,1010,127452,-4887,-2191,129020,34,19240,135,0,11923,0.0010000000000000009
166007,1153,-2860,127764,-2489,-3512,128961,34,19240,139,0,11924,0.0010070000000000079
167002,-1446,2125,127523,-2940,1690,127368,39,19240,160,0,11925,0.0009949999999999959
168000,2347,7911,129060,-4267,7308,124534,38,19239,156,0,11926,0.0009979999999999989
169000,-1324,3921,128053,2309,1276,126072,34,19239,139,0,11927,0.0010000000000000009
170000,4181,-1613,127237,-8207,-3227,127947,33,19242,139,0,11928,0.0010000000000000009
171000,1384,-614,128004,775,-2050,130540,32,19244,135,0,11929,0.0010000000000000009
172000,572,2963,128082,3562,2513,125210,32,19241,131,0,11930,0.0010000000000000009
173000,92,6358,128110,-10557,5055,124364,34,19240,139,0,11931,0.0010000000000000009
174000,-1055,3952,128961,-3096,2321,129328,34,19239,139,0,11932,0.0010000000000000009
175000,1836,352,127140,3112,-1162,125728,40,19239,164,0,11933,0.0010000000000000009
176000,-439,1475,127604,-6391,664,127053,46,19237,164,0,11934,0.0010000000000000009
177000,1120,4497,128728,-2498,2856,126379,38,19234,188,1,11935,0.0010000000000000009
178000,5414,2251,127748,2260,1141,126375,38,19243,156,1,11936,0.0010000000000000009
179001,1814,360,128319,-379,-1519,130024,38,19241,156,1,11937,0.0010010000000000019
180000,3498,674,128449,-4631,780,126968,33,19242,135,1,11938,0.0009989999999999999
181000,-1875,2946,127913,486,1321,125676,34,19241,139,1,11939,0.0010000000000000009
182000,-50,2467,128657,-3090,1191,129325,32,19241,139,1,11940,0.0010000000000000009
183000,1871,2333,127863,-5122,829,126412,34,19243,131,1,11941,0.0010000000000000009
184000,252,3428,127504,725,4003,125124,34,19240,139,1,11942,0.0010000000000000009
185001,1831,4426,128352,-2337,1214,126809,38,19240,156,0,11943,0.0010010000000000019
186000,-140,1157,127202,-3650,-401,127763,38,19243,156,0,11944,0.0009989999999999999
187000,2646,2344,127737,-18,1366,127029,39,19240,160,0,11945,0.0010000000000000009
188000,830,3178,128217,-3119,1734,126719,36,19240,160,0,11946,0.0010000000000000009
189000,488,2822,128101,-3189,1310,125913,32,19244,147,0,11947,0.0010000000000000009
190000,1360,1610,128155,-1739,-715,128067,32,19238,131,0,11948,0.0010000000000000009
191000,95,758,127810,-3056,-57,127054,31,19241,127,0,11949,0.0010000000000000009
192000,479,2066,128041,-3123,860,127259,31,19244,127,0,11950,0.0010000000000000009
193000,1752,3142,128117,-1487,2533,126530,36,19240,147,0,11951,0.0010000000000000009
194000,500,4655,128700,-390,2196,126676,40,19240,147,1,11952,0.0009999999999999731
195000,2424,1062,127673,-4526,-816,128910,33,19240,164,1,11953,0.0010000000000000009
196000,2672,2099,128067,1528,2016,126540,33,19240,135,1,11954,0.0010000000000000009
197000,1095,4254,128354,188,2436,126356,39,19239,160,1,11955,0.0010000000000000009
198003,1291,2399,127312,-5686,483,127196,40,19243,164,1,11956,0.0010030000000000039
199002,617,2346,127883,-2257,997,127211,38,19240,156,1,11957,0.0009989999999999999
200000,2727,2316,127902,1988,190,127368,34,19240,156,1,11958,0.0009979999999999989
201000,384,1625,127501,-3479,1027,125844,33,19242,139,1,11959,0.0010000000000000009
202003,1895,2309,128926,-2725,397,128140,33,19242,135,1,11960,0.0010030000000000039
203000,2666,2094,128203,435,1688,126982,35,19245,143,1,11961,0.0009969999999999979
204002,552,4203,127960,-2894,2942,126045,37,19240,152,1,11962,0.0010020000000000029
205000,469,3654,128407,-5156,1813,127179,42,19240,172,0,11963,0.0009979999999999989
206000,-1238,1037,126964,-2360,-448,126834,42,19240,172,0,11964,0.0010000000000000009
207000,882,3489,127764,-3292,1904,126415,38,19237,172,0,11965,0.0010000000000000009
208000,1409,2686,128020,-3793,976,128167,40,19240,156,0,11966,0.0010000000000000009
209000,1455,2633,127594,-327,1612,125682,40,19240,164,0,11967,0.0010000000000000009
210002,1577,3002,128179,-946,923,126858,35,19242,143,0,11968,0.0010020000000000029
211002,1584,698,127563,-3655,-518,128204,33,19243,135,0,11969,0.0010000000000000009
212001,2356,2230,128012,182,907,126325,34,19243,139,0,11970,0.0009989999999999999
213000,1025,2733,127741,-1018,1671,126942,35,19243,139,0,11971,0.0009989999999999999
214000,107,4653,128290,-5117,3309,126005,41,19238,143,0,11972,0.0010000000000000009
215002,750,2926,128034,-2267,1314,127330,41,19238,168,1,11973,0.0010020000000000029
216000,556,2366,127575,193,186,127651,38,19241,156,1,11974,0.0009979999999999989
217000,3311,2066,127968,-2587,658,127046,42,19237,172,1,11975,0.0010000000000000009
218000,2331,2952,128376,-593,1305,126548,41,19237,168,1,11976,0.0010000000000000009
219000,2496,1484,127946,1221,-167,127198,35,19240,168,1,11977,0.0010000000000000009
220000,2178,1354,128065,-2257,-3,127629,33,19239,143,1,11978,0.0010000000000000009
221000,1565,2462,127994,-2942,1083,127116,33,19241,135,1,11979,0.0010000000000000009
222000,972,3862,127868,-445,2792,125679,31,19240,127,1,11980,0.0010000000000000009
223001,324,3218,127888,-3184,1628,127239,35,19242,143,1,11981,0.0010009999999999741
224033,411,2677,127947,-4550,1407,126952,37,19239,152,0,11982,0.0010320000000000051
225000,80,2884,128034,-1572,1564,127041,36,19239,152,0,11983,0.0009669999999999956
226001,1713,2582,127954,-2361,1673,127082,37,19244,147,0,11984,0.0010010000000000019
227000,1238,2789,128153,-2716,999,126866,37,19240,152,0,11985,0.0009989999999999999
228003,1126,1711,127867,-2095,-86,127367,38,19240,156,0,11986,0.0010030000000000039
229002,1105,864,127865,-1601,-485,127724,37,19240,152,0,11987,0.0009989999999999999
230000,1029,1342,127959,-2869,401,127036,33,19239,135,0,11988,0.0009979999999999989
231000,1345,3004,128315,-1709,2140,126400,32,19239,135,0,11989,0.0010000000000000009
232000,366,3018,128074,-3261,1587,127062,33,19239,131,0,11990,0.0010000000000000009
233000,666,2512,128054,-2078,1197,127390,33,19240,135,0,11991,0.0010000000000000009
234000,834,2711,127880,-1493,1670,127016,37,19242,152,0,11992,0.0010000000000000009
235000,936,3023,128026,-2532,1719,126803,43,19240,176,1,11993,0.0010000000000000009
236003,1498,3121,128065,-1663,1401,127288,36,19237,147,1,11994,0.0010030000000000039
237000,3368,2013,127760,722,651,127337,36,19237,147,1,11995,0.0009969999999999979
238000,1809,2154,128236,-1678,86,127166,38,19238,147,1,11996,0.0010000000000000009
239000,829,724,128200,-3109,-63,127507,38,19240,156,1,11997,0.0010000000000000009
240000,703,1277,128293,-1724,112,127713,33,19243,135,1,11998,0.0010000000000000009
241000,926,1562,128142,-2169,193,127657,31,19245,127,1,11999,0.0010000000000000009
242000,1011,2855,128293,-3379,1819,126459,33,19241,135,1,12000,0.0010000000000000009
243000,752,2446,128002,-2211,623,127296,34,19241,135,1,12001,0.0010000000000000009
244000,824,2900,127963,-1224,1646,126538,40,19243,139,1,12002,0.0010000000000000009
245000,117,2471,127856,-4013,825,127578,40,19236,164,0,12003,0.0010000000000000009
246000,1000,3361,127823,-3399,1974,126968,37,19239,152,0,12004,0.0010000000000000009
247001,1002,3684,127912,-1300,1982,126374,34,19240,139,0,12005,0.0010010000000000019
248000,255,2457,127883,-3105,1095,126590,35,19242,143,0,12006,0.0009989999999999999
249000,389,1935,127999,-3266,-19,127246,34,19242,143,0,12007,0.0010000000000000009
250000,575,634,127503,-1825,-606,127527,30,19244,139,0,12008,0.0010000000000000009
251000,1431,2422,128159,-1559,1355,126548,30,19235,123,0,12009,0.0010000000000000009
252000,1595,3029,128146,-2959,1364,126657,33,19239,135,0,12010,0.0010000000000000009
253000,1078,2436,128327,-1915,1141,127128,34,19238,139,0,12011,0.0010000000000000009
254000,896,1962,128020,-1860,564,127707,39,19240,160,1,12012,0.0010000000000000009
255000,251,2283,127934,-1639,1941,127465,34,19240,139,1,12013,0.0010000000000000009
256000,2397,3162,127931,-1068,2032,126465,35,19239,139,1,12014,0.0010000000000000009
257000,1028,2296,127719,-2279,786,126885,36,19239,143,1,12015,0.0010000000000000009
258000,1688,2262,127853,-845,1223,126746,36,19242,147,1,12016,0.0010000000000000009
259000,1322,2150,127797,-1372,783,127154,34,19243,139,1,12017,0.0010000000000000009
260000,1404,2985,127882,-2880,1846,126694,31,19244,127,1,12018,0.0010000000000000009
261000,1167,4034,128004,-2704,2576,126259,30,19244,123,1,12019,0.0010000000000000009
262003,757,3161,128066,-1963,1277,126829,33,19241,123,1,12020,0.0010029999999999761
263005,114,1235,127677,-2280,-193,127263,37,19244,135,1,12021,0.0010020000000000029
264000,-248,1723,127998,-4503,326,127265,37,19237,152,1,12022,0.0009950000000000236
265002,-313,2555,128493,-3947,1594,127312,43,19243,176,0,12023,0.0010020000000000029
266000,-352,3861,128530,-2162,3142,126600,35,19240,143,0,12024,0.0009979999999999989
267000,753,2816,128438,-3648,1177,126983,34,19240,139,0,12025,0.0010000000000000009
268001,1180,-356,127637,-3561,-2056,128479,32,19240,139,0,12026,0.0010009999999999741
269000,859,397,127707,1214,-678,125457,31,19241,131,0,12027,0.0009989999999999721
270000,1207,3303,128222,-2723,1823,127842,31,19239,127,0,12028,0.0010000000000000009
271001,1354,4149,128175,-4776,2935,125621,31,19240,127,0,12029,0.0010010000000000296
272000,516,5818,128580,-1099,4192,127783,33,19242,135,0,12030,0.0009989999999999721
273001,712,1121,127193,-2620,-360,127664,35,19238,143,0,12031,0.0010010000000000296
274001,-576,1720,127606,-2405,365,125739,46,19238,143,1,12032,0.0010000000000000009
275000,1216,1178,127841,-1866,324,127484,34,19240,188,1,12033,0.0009989999999999721
276001,3127,3438,128423,-1888,3655,126091,34,19238,139,1,12034,0.0010010000000000296
277000,2347,4652,128518,-2082,3444,126440,35,19244,143,1,12035,0.0009989999999999721
278000,592,3974,128257,-2493,-129,127164,32,19241,131,1,12036,0.0010000000000000009
279000,-724,197,127049,-2407,-1327,127497,30,19241,123,1,12037,0.0010000000000000009
280000,-55,1091,127905,-2765,-596,127697,32,19241,123,1,12038,0.0010000000000000009
281000,2024,2480,127969,-3153,3431,125734,32,19243,131,1,12039,0.0010000000000000009
282000,805,5826,128532,-3036,3997,125495,32,19237,131,1,12040,0.0010000000000000009
283000,2199,1837,127823,-1493,-2202,128195,35,19239,143,0,12041,0.0010000000000000009
284000,-1761,781,128000,512,2000,125168,34,19237,139,0,12042,0.0010000000000000009
285001,2037,-417,126903,-7473,-5359,132256,37,19242,152,0,12043,0.0010010000000000296
286000,1256,1769,128302,-3741,7301,123132,36,19242,152,0,12044,0.0009989999999999721
287000,567,10936,128762,2460,6412,125486,34,19243,147,0,12045,0.0010000000000000009
288000,754,2435,127060,-7529,176,127381,34,19240,139,0,12046,0.0010000000000000009
289001,-3166,528,127546,-2649,-1748,125393,33,19241,135,0,12047,0.0010010000000000296
290000,2811,-1581,127419,-334,-2213,130820,31,19240,127,0,12048,0.0009989999999999721
291000,798,3339,127844,-2306,4775,124310,33,19239,135,0,12049,0.0010000000000000009
292002,2734,7352,129664,-3106,4147,127032,38,19239,135,0,12050,0.0010020000000000029
293000,1797,987,128301,-905,-1574,127690,43,19241,156,0,12051,0.0009979999999999989
294002,-900,-991,127232,-1825,-2565,128654,43,19237,176,1,12052,0.0010020000000000029
295000,1813,-2391,128614,-3251,-2938,129406,52,19240,213,1,12053,0.0009979999999999989
296000,1054,4059,127914,-2572,4754,124553,37,19243,152,1,12054,0.0010000000000000009
297000,3570,7653,128552,-3277,5735,125753,34,19245,139,1,12055,0.0010000000000000009
298000,1212,3282,128011,-282,729,127620,34,19245,139,1,12056,0.0010000000000000009
299000,-1588,125,127299,-270,-2098,126968,31,19240,139,1,12057,0.0010000000000000009
300000,2033,-191,127375,-5956,-825,128836,34,19240,127,1,12058,0.0010000000000000009
301000,2466,4679,128660,1475,4708,125661,34,19244,139,1,12059,0.0010000000000000009
302000,2642,6675,128631,405,4907,124064,34,19242,139,1,12060,0.0010000000000000009
303000,-27,1881,128005,-9101,-927,128872,40,19242,164,0,12061,0.0010000000000000009
304000,-1436,-1566,127757,-700,-3612,129406,38,19242,156,0,12062,0.0010000000000000009
305002,1087,-262,127253,1557,-1014,127189,38,19238,156,0,12063,0.0010020000000000029
306000,-505,5612,128665,-9161,4943,125190,35,19238,156,0,12064,0.0009979999999999989
307003,2851,6024,128866,-2576,3883,126895,35,19242,143,0,12065,0.0010029999999999761
308000,1652,1577,127465,3747,-431,126177,33,19242,135,0,12066,0.0009970000000000256
309000,322,-217,127439,-4322,-1831,128078,33,19242,135,0,12067,0.0010000000000000009
310001,1977,-235,127534,-4030,-1378,128298,33,19242,135,0,12068,0.0010009999999999741
311000,1501,4149,128033,2346,3912,124509,35,19239,135,0,12069,0.0009990000000000276
312001,748,6832,129120,-3601,4937,126537,38,19240,143,1,12070,0.0010009999999999741
313000,1212,837,127817,-7446,-734,129342,38,19236,156,1,12071,0.0009990000000000276
314000,1007,1698,128214,3884,608,126003,38,19236,156,1,12072,0.0010000000000000009
315000,593,1969,127829,-602,291,127164,41,19239,168,1,12073,0.0010000000000000009
316000,2058,1972,127519,-6823,707,127231,39,19242,160,1,12074,0.0010000000000000009
317000,3699,3889,128532,1671,2572,127168,36,19242,160,1,12075,0.0010000000000000009
318006,3090,2877,127611,1853,1590,126142,33,19240,147,1,12076,0.0010060000000000069
319001,112,2079,128062,-4904,719,127299,33,19242,135,1,12077,0.0009949999999999681
320000,1754,-700,127818,-1314,-2240,128452,34,19238,139,1,12078,0.0009990000000000276
321000,1100,1870,127814,72,594,126494,34,19237,139,1,12079,0.0010000000000000009
322000,1031,6191,128538,-5313,5712,125503,38,19238,156,1,12080,0.0010000000000000009
323001,-355,6247,128479,-3703,2147,126309,42,19238,156,0,12081,0.0010009999999999741
324000,-1311,1329,126818,-2027,-202,126676,38,19242,172,0,12082,0.0009990000000000276
325000,1352,1697,127432,-3420,-334,128467,38,19238,156,0,12083,0.0010000000000000009
326000,3102,459,127594,-495,382,126961,40,19240,164,0,12084,0.0010000000000000009
327000,2016,3951,128166,102,3368,125294,37,19243,152,0,12085,0.0010000000000000009
328000,1539,3102,128547,-5151,507,128047,33,19239,135,0,12086,0.0009999999999999454
329000,498,1553,128061,-1437,204,127279,32,19239,135,0,12087,0.0010000000000000009
330000,1079,765,127602,-241,-764,127468,37,19243,131,0,12088,0.0010000000000000009
331000,508,2121,127747,-4090,2308,126749,37,19240,152,0,12089,0.0010000000000000009
332000,972,5157,128042,-3194,4107,125605,37,19238,152,0,12090,0.0010000000000000009
333000,1627,4990,127960,-799,2948,126446,44,19236,180,1,12091,0.0010000000000000009
334000,2676,2829,127504,-655,-232,128299,36,19240,147,1,12092,0.0010000000000000009
335000,3130,393,127629,-1294,-285,127561,37,19240,147,1,12093,0.0010000000000000009
336007,2372,1662,127997,-132,288,126739,36,19242,152,1,12094,0.0010070000000000356
337001,2280,2425,128251,-1388,1154,127123,36,19241,147,1,12095,0.0009939999999999949
338000,1310,2012,128186,-2555,787,127759,32,19241,131,1,12096,0.0009989999999999721
339000,1201,2473,128129,-2422,1579,126750,33,19240,135,1,12097,0.0010000000000000009
340000,-163,3675,127847,-2393,2089,126341,33,19243,135,1,12098,0.0010000000000000009
341000,483,2503,127609,-2633,1158,126887,36,19243,135,1,12099,0.0010000000000000009
342000,1443,2731,127937,-2352,1201,126588,40,19242,147,0,12100,0.0010000000000000009
343004,653,3082,127833,-2351,2268,127056,36,19241,164,0,12101,0.0010040000000000049
344000,1855,3566,127876,-1840,1928,126521,36,19239,147,0,12102,0.0009959999999999969
345002,356,2436,127949,-3578,782,126940,38,19239,156,0,12103,0.0010020000000000029
346000,-21,1427,127713,-2975,-293,127246,35,19240,143,0,12104,0.0009979999999999989
347000,358,1183,127788,-2681,-475,127861,33,19240,135,0,12105,0.0010000000000000009
348000,797,1063,128051,-2409,43,127206,31,19240,135,0,12106,0.0010000000000000009
349000,1837,2941,128524,-2330,1781,126556,34,19241,127,0,12107,0.0010000000000000009
350000,1014,2848,128441,-2034,1572,126849,34,19244,139,0,12108,0.0010000000000000009
351000,1120,2460,128107,-1945,1122,127419,35,19239,143,0,12109,0.0010000000000000009
352000,914,2559,127771,-2222,1097,127549,38,19239,156,0,12110,0.0010000000000000009
353000,293,3704,127883,-1959,2650,126205,46,19239,188,1,12111,0.0010000000000000009
354000,1028,3424,127960,-2277,1762,126592,36,19238,188,1,12112,0.0010000000000000009
355003,2706,1453,127950,-1289,-98,127544,38,19241,147,1,12113,0.0010029999999999761
356002,1705,1474,127973,-977,-127,127417,38,19238,156,1,12114,0.0009990000000000276
357000,1299,1669,128334,-1476,663,127153,35,19243,143,1,12115,0.0009979999999999989
358000,930,1728,128440,-3163,75,127757,33,19240,135,1,12116,0.0010000000000000009
359000,1792,1254,128063,-2589,-312,127841,30,19247,123,1,12117,0.0010000000000000009
360000,995,2617,128235,-926,1294,126556,33,19247,123,1,12118,0.0010000000000000009
361005,175,1961,127794,-3150,475,127035,37,19241,135,1,12119,0.0010049999999999781
362003,-49,2633,127896,-3829,1551,126576,37,19236,152,1,12120,0.0009979999999999989
363000,-562,2747,127837,-2888,1255,127375,40,19236,164,0,12121,0.0009970000000000256
364003,1380,3985,127940,-2664,2422,126512,35,19240,143,0,12122,0.0010029999999999761
365001,708,2993,127849,-3306,1450,126961,36,19237,147,0,12123,0.0009979999999999989
366000,1212,1675,127534,-2049,81,126501,32,19237,147,0,12124,0.0009990000000000276
367000,869,1401,127943,-1003,-125,127410,30,19242,131,0,12125,0.0010000000000000009
368000,671,1321,127567,-3167,-315,127079,30,19237,123,0,12126,0.0010000000000000009
369000,1522,3441,128110,-2430,2448,126111,31,19241,127,0,12127,0.0010000000000000009
370000,560,3465,128119,-2024,1966,126894,32,19240,131,0,12128,0.0010000000000000009
371000,871,2780,128130,-2422,549,127484,36,19239,147,0,12129,0.0010000000000000009
372000,598,983,127720,-2561,-728,127600,39,19239,147,1,12130,0.0010000000000000009
373000,1406,1536,127882,-1493,1281,126936,34,19245,160,1,12131,0.0010000000000000009
374000,3330,3073,128346,-1810,2203,126668,34,19237,139,1,12132,0.0010000000000000009
375000,1691,3139,128047,-1665,1246,126901,36,19243,147,1,12133,0.0010000000000000009
376000,1434,2454,128005,-1156,879,127125,32,19241,131,1,12134,0.0010000000000000009
377000,736,1713,127801,-2517,590,127461,31,19240,127,1,12135,0.0010000000000000009
378000,872,2732,127762,-2461,2161,126338,30,19240,127,1,12136,0.0010000000000000009
379000,922,4004,127913,-2622,2949,125882,31,19240,123,1,12137,0.0010000000000000009
380001,552,3228,127913,-2365,1404,127051,31,19240,127,1,12138,0.0010009999999999741
381000,432,1796,127771,-2613,71,127380,35,19240,143,1,12139,0.0009990000000000276
382000,321,1629,127981,-3477,594,127591,41,19237,168,1,12140,0.0010000000000000009
383000,10,2788,128317,-3928,1867,127083,44,19241,180,0,12141,0.0010000000000000009
384000,690,3638,128306,-2539,1842,126368,37,19241,180,0,12142,0.0010000000000000009
385002,1075,1653,127938,-3126,-949,128007,32,19241,152,0,12143,0.0010019999999999474
386000,1169,-333,127821,-2222,-1372,127691,32,19245,131,0,12144,0.0009980000000000544
387000,492,1271,128011,-1052,851,126698,33,19241,135,0,12145,0.0009999999999999454
388001,250,4078,128374,-3194,3165,126101,32,19238,131,0,12146,0.0010010000000000296
389000,1451,5264,128536,-3615,4154,126518,32,19239,131,0,12147,0.0009989999999999721
390000,512,3333,128005,-1439,877,127904,34,19239,139,0,12148,0.0010000000000000009
391000,1812,1030,127452,-1232,-324,127216,38,19240,139,0,12149,0.0010000000000000009
392000,496,1812,127652,-2378,411,126774,45,19235,156,1,12150,0.0010000000000000009
393000,2596,1287,127224,-1347,-182,127021,45,19243,184,1,12151,0.0010000000000000009
394000,2282,5944,129537,2531,5113,124020,36,19241,147,1,12152,0.0010000000000000009
395001,2339,2177,127408,-6665,-72,129225,34,19240,139,1,12153,0.0010010000000000296
396000,-225,3706,128464,-2070,2575,126536,33,19240,135,1,12154,0.0009989999999999721
397003,-1180,1858,127158,1865,384,126638,30,19242,135,1,12155,0.0010030000000000316
398000,1295,2406,127557,-5662,895,126450,30,19241,123,1,12156,0.0009969999999999701
399000,1480,2017,128151,-3722,325,127173,30,19239,123,1,12157,0.0010000000000000009
400000,3710,1980,127641,1468,1184,126974,33,19240,135,0,12158,0.0010000000000000009
401001,-1676,4383,128463,-4064,3031,125227,37,19242,152,0,12159,0.0010010000000000296
402000,-857,1809,127589,-7532,-235,128771,36,19242,147,0,12160,0.0009989999999999721
403001,1557,1750,128118,-1436,842,126475,38,19243,147,0,12161,0.0010010000000000296
404001,-1911,1893,127395,4467,279,127840,35,19245,156,0,12162,0.0010000000000000009
405000,5581,1984,127831,-11906,622,125810,35,19242,143,0,12163,0.0009989999999999721
406000,-581,3038,128072,1012,1638,126991,33,19242,135,0,12164,0.0010000000000000009
407000,2617,3408,127917,4191,2252,126711,31,19246,127,0,12165,0.0010000000000000009
408000,-1392,3254,127388,-9570,2056,126314,34,19241,139,0,12166,0.0010000000000000009
409002,-2011,2576,128519,-4133,1254,127824,37,19241,139,0,12167,0.0010020000000000029
410000,3663,2828,127303,2896,1543,125928,37,19240,152,0,12168,0.0009979999999999989
411001,-522,3046,128006,-5462,1525,126547,37,19240,152,0,12169,0.0010010000000000296
412000,3117,2443,128497,-1742,761,126550,46,19237,188,1,12170,0.0009989999999999721
413000,747,1034,127737,-961,-253,126531,48,19247,197,1,12171,0.0010000000000000009
414000,1805,859,128430,-2506,-891,130484,38,19241,156,1,12172,0.0010000000000000009
415001,4941,797,128669,-1162,-264,126155,35,19241,156,1,12173,0.0010010000000000296
416000,-1333,2688,127581,-1875,1409,125776,35,19236,143,1,12174,0.0009989999999999721
417002,1295,4182,128750,-4099,2180,128439,35,19239,143,1,12175,0.0010020000000000029
418003,-821,2088,127736,-725,-194,126388,32,19244,131,1,12176,0.0010009999999999741
419000,1773,1948,127219,-3651,1669,127341,32,19244,131,1,12177,0.0009970000000000256
420000,752,5957,128738,-1932,5296,124504,35,19241,143,1,12178,0.0010000000000000009
421000,179,3959,127684,-1562,-518,128032,41,19241,143,0,12179,0.0010000000000000009
422000,2536,553,127114,-1959,13,126973,37,19243,168,0,12180,0.0010000000000000009
423000,-1026,1754,128487,-3515,-3,128123,37,19240,152,0,12181,0.0010000000000000009
424000,2303,1259,127909,-4319,756,126528,38,19241,156,0,12182,0.0010000000000000009
425000,208,3613,128586,-986,1910,126377,36,19241,147,0,12183,0.0010000000000000009
426000,959,1929,128465,-2046,-138,128224,31,19241,127,0,12184,0.0010000000000000009
427000,551,1841,127468,-5459,507,126266,32,19241,127,0,12185,0.0010000000000000009
428000,-183,1687,128014,-516,93,127392,35,19239,131,0,12186,0.0010000000000000009
429001,2452,1664,127887,1060,1704,126966,35,19236,143,0,12187,0.0010009999999999741
430000,250,4433,128140,-5274,2882,126059,38,19241,156,1,12188,0.0009990000000000276
431000,3313,2166,128291,-3157,418,128883,31,19241,127,1,12189,0.0010000000000000009
432000,2154,3185,128414,2805,2798,125514,40,19241,164,1,12190,0.0010000000000000009
433001,-684,3507,127872,-2231,928,126521,39,19241,160,1,12191,0.0010009999999999741
434002,1983,-311,127033,-7615,-1384,128455,37,19239,160,1,12192,0.0010010000000000296
435000,1281,2590,128502,2715,1683,126486,34,19238,152,1,12193,0.0009979999999999989
436032,3793,2809,127544,363,1413,126984,34,19243,139,1,12194,0.0010319999999999774
437000,146,3632,128478,-5829,2099,126000,32,19238,131,1,12195,0.0009680000000000244
438000,1707,865,128473,-670,-977,128589,35,19245,143,1,12196,0.0010000000000000009
439000,1768,1182,127571,254,784,127380,35,19245,143,1,12197,0.0010000000000000009
440000,-148,3181,128232,-5098,2753,126172,38,19234,143,1,12198,0.0010000000000000009
441000,440,4468,128369,-4464,2232,127167,45,19239,156,0,12199,0.0010000000000000009
442003,-1405,1954,127117,-2047,1222,125804,45,19240,184,0,12200,0.0010029999999999761
443000,1175,4586,128051,-2580,2735,127251,36,19240,147,0,12201,0.0009970000000000256
444000,1784,711,127468,-3181,-1276,128415,38,19240,156,0,12202,0.0010000000000000009
445002,877,2531,127671,1078,1858,125063,37,19240,152,0,12203,0.0010019999999999474
446000,2522,2449,128339,-3327,398,127890,32,19242,152,0,12204,0.0009980000000000544
447000,1996,1932,127939,-1942,876,127013,33,19243,131,0,12205,0.0009999999999999454
448000,1658,1837,127815,544,202,127024,33,19240,135,0,12206,0.0010000000000000009
449000,360,2929,127918,-4203,2166,126939,37,19243,152,0,12207,0.0010000000000000009
450000,-212,4468,128232,-3918,2893,126219,40,19240,164,1,12208,0.0010000000000000009
451000,1219,3233,127757,-854,1734,126977,42,19244,172,1,12209,0.0010000000000000009
452000,2222,1856,127768,-1564,539,127577,38,19244,172,1,12210,0.0010000000000000009
453000,3156,2273,128150,-2757,1025,126651,42,19236,156,1,12211,0.0010000000000000009
454000,2765,2193,127962,1534,323,127023,42,19238,172,1,12212,0.0010000000000000009
455001,2374,1249,127955,16,76,127064,36,19241,147,1,12213,0.0010010000000000296
456003,1709,2396,128185,-3926,1156,127437,33,19242,135,1,12214,0.0010020000000000029
457000,1413,3083,127922,-1503,1882,126864,32,19242,131,1,12215,0.0009969999999999701
458000,305,3854,127777,-846,2568,125326,34,19242,131,1,12216,0.0010000000000000009
459004,117,2161,127794,-4533,669,127464,38,19241,139,1,12217,0.0010040000000000049
460000,649,2030,128007,-3238,656,126866,38,19239,156,0,12218,0.0009959999999999969
461000,372,3016,128035,-1544,1790,127091,41,19244,168,0,12219,0.0010000000000000009
462000,1738,3537,128128,-2616,2168,126635,37,19241,152,0,12220,0.0010000000000000009
463001,822,3312,128110,-3001,1945,126743,38,19244,156,0,12221,0.0010010000000000296
464000,772,755,127658,-1272,-1481,127837,37,19244,156,0,12222,0.0009989999999999721
465001,1078,-210,127624,-2381,-982,127906,33,19241,152,0,12223,0.0010010000000000296
466000,1907,1610,128305,-2090,1638,126500,33,19238,135,0,12224,0.0009989999999999721
467000,1193,4288,128544,-2029,3161,126086,32,19241,131,0,12225,0.0010000000000000009
468001,474,3571,128364,-3080,1383,127570,34,19239,139,0,12226,0.0010010000000000296
469000,548,2004,127960,-1532,776,127521,36,19242,147,0,12227,0.0009989999999999721
470001,709,2259,127651,-1520,1164,127108,41,19242,147,0,12228,0.0010010000000000296
471001,1269,3103,127877,-2979,1724,126480,46,19238,168,1,12229,0.0010000000000000009
472000,2407,2857,128247,-667,1033,127162,46,19238,188,1,12230,0.0009989999999999721
473000,3580,1954,128079,-4,787,127332,37,19242,152,1,12231,0.0010000000000000009
474001,1133,1944,128515,-2378,-208,127463,38,19242,156,1,12232,0.0010010000000000296
475000,888,1201,128226,-3122,423,127247,32,19243,131,1,12233,0.0009989999999999721
476001,759,1422,128343,-1237,-463,127790,32,19243,131,1,12234,0.0010009999999999741
477000,1740,1421,127891,-2329,562,127080,33,19240,131,1,12235,0.0009990000000000276
478000,1227,2920,128226,-3552,1419,126426,33,19241,135,1,12236,0.0010000000000000009
479000,785,2285,127772,-1449,1445,127023,34,19241,139,1,12237,0.0010000000000000009
480001,463,3435,128035,-2026,1917,126898,38,19240,156,0,12238,0.0010009999999999741
481000,-719,2770,127931,-4633,1116,127517,41,19241,168,0,12239,0.0009990000000000276
482000,1577,2827,127870,-2838,2174,126688,37,19241,152,0,12240,0.0010000000000000009
483002,880,2724,127807,-1473,754,126615,34,19239,152,0,12241,0.0010020000000000029
484000,760,2111,127742,-2555,620,126478,33,19242,139,0,12242,0.0009979999999999989
485003,748,1399,127823,-3489,-771,127560,33,19241,135,0,12243,0.0010029999999999761
486002,453,1499,127960,-1385,836,127193,31,19243,127,0,12244,0.0009990000000000276
487002,1831,3564,128362,-1725,2242,126530,30,19238,123,0,12245,0.0010000000000000009
488000,725,2959,128155,-3115,1367,126724,33,19238,135,0,12246,0.0009979999999999989
489000,1138,2189,128020,-1696,396,127397,37,19240,135,0,12247,0.0010000000000000009
490000,1116,1095,127645,-1715,33,127646,37,19238,152,1,12248,0.0010000000000000009
491000,1769,2535,128311,-773,1958,126662,37,19237,152,1,12249,0.0010000000000000009
492000,2530,3468,127991,-2743,1863,126567,35,19240,143,1,12250,0.0010000000000000009
493000,1343,2728,128001,-1984,1300,126910,34,19245,139,1,12251,0.0010000000000000009
494000,1488,2820,127925,-602,1162,127095,32,19240,131,1,12252,0.0010000000000000009
495002,1205,1438,127693,-2325,-70,127208,33,19240,131,1,12253,0.0010020000000000029
496000,997,2524,127809,-3141,1717,126804,32,19242,135,1,12254,0.0009979999999999989
497000,1312,4027,128291,-2083,2882,125832,32,19240,131,1,12255,0.0010000000000000009
498000,454,3240,127983,-1633,1815,127024,33,19242,135,1,12256,0.0010000000000000009
499000,-37,1477,127867,-3889,143,127408,34,19240,139,1,12257,0.0010000000000000009
500000,-474,1650,128121,-4299,455,127384,39,19242,160,1,12258,0.0010000000000000009
501000,-130,2392,128142,-3346,1277,127369,40,19242,160,0,12259,0.0010000000000000009
502000,766,3456,128397,-2340,1995,126476,35,19240,164,0,12260,0.0010000000000000009
503000,1095,1953,128015,-4823,139,127467,35,19239,143,0,12261,0.0010000000000000009
504000,1576,-337,127406,-1246,-1847,128210,34,19242,139,0,12262,0.0010000000000000009
505000,140,2570,128470,315,1741,125683,30,19242,123,0,12263,0.0010000000000000009
506000,618,2485,127776,-5118,613,127622,32,19241,131,0,12264,0.0010000000000000009
507002,761,5495,128688,-3443,4365,126003,32,19241,131,0,12265,0.0010019999999999474
508000,581,3720,127933,-434,2044,127932,36,19240,131,0,12266,0.0009980000000000544
509000,544,1438,127409,-3159,136,126502,36,19239,147,0,12267,0.0010000000000000009
510000,113,1762,127970,-2470,246,126868,41,19236,168,1,12268,0.0010000000000000009
511000,1595,1631,127390,-1261,1763,127187,38,19242,156,1,12269,0.0010000000000000009
512000,3060,4763,128800,-1419,3244,126180,34,19241,139,1,12270,0.0010000000000000009
513000,1039,4669,128354,-3806,3043,126556,34,19241,139,1,12271,0.0010000000000000009
514000,-44,2834,127867,-1715,-517,127400,34,19242,139,1,12272,0.0010000000000000009
515000,-1054,548,127387,-1929,-1054,127534,34,19243,139,1,12273,0.0010000000000000009
516000,1209,348,127789,-3823,-87,127634,30,19244,123,1,12274,0.0010000000000000009
517000,1918,3691,128013,-2499,3625,125314,32,19240,131,1,12275,0.0010000000000000009
518000,3017,4244,128000,34,936,126604,34,19238,139,0,12276,0.0010000000000000009
519000,-1270,2790,128457,-2296,3207,124939,34,19238,139,0,12277,0.0010000000000000009
520000,714,-518,126499,-5180,-5977,132366,38,19240,139,0,12278,0.0010000000000000009
521001,22,236,128071,-4016,5308,124323,38,19241,156,0,12279,0.0010009999999999186
522001,-311,9158,128347,-599,6165,125120,36,19243,147,0,12280,0.0010000000000000009
523002,965,4672,127407,-5018,2498,126169,35,19239,143,0,12281,0.0010010000000000296
524000,-1830,1548,127558,-1998,-1900,125979,32,19240,131,0,12282,0.0009980000000000544
525000,2854,-1849,127330,-2850,-2506,130106,30,19240,123,0,12283,0.0010000000000000009
526000,346,1864,127844,12,2822,125877,34,19238,123,0,12284,0.0010000000000000009
527000,2299,6152,129235,-2990,4080,125904,36,19239,139,0,12285,0.0010000000000000009
528000,1363,2322,128454,-3998,-315,127964,36,19239,147,0,12286,0.0010000000000000009
529000,-7,530,127926,-457,-1142,128968,40,19240,164,0,12287,0.0010000000000000009
530000,1322,-1463,127845,-1630,-2738,128131,48,19236,197,1,12288,0.0010000000000000009
531000,-1544,2926,127829,-5656,3899,125478,35,19236,143,1,12289,0.0010000000000000009
532020,3666,6776,128659,19,4948,126155,34,19242,143,1,12290,0.0010199999999999099
533000,2317,3559,127672,-1269,1411,126967,36,19240,139,1,12291,0.000980000000000092
534000,79,1149,127805,197,-295,126895,36,19240,147,1,12292,0.0010000000000000009
535000,1006,883,127619,-4432,-737,128401,31,19241,127,1,12293,0.0010000000000000009
536000,1505,1752,128187,-232,1275,127007,30,19239,123,1,12294,0.0009999999999998899
537000,3523,5532,128827,-724,3895,125692,34,19239,139,1,12295,0.0010000000000000009
538000,262,3633,128146,-5714,1744,127254,37,19242,139,1,12296,0.0010000000000000009
539000,-1186,1137,128091,-3452,-1035,127400,36,19241,152,0,12297,0.0010000000000000009
540000,764,-600,127472,-234,-1761,128569,36,19241,147,0,12298,0.0010000000000000009
541006,-645,2260,127825,-4099,1924,126403,38,19240,156,0,12299,0.0010060000000000624
542002,3001,5674,128735,-4811,4106,126099,38,19241,156,0,12300,0.0009959999999999969
543000,1677,3116,128330,1050,1206,126586,33,19240,135,0,12301,0.0009979999999999434
544003,1362,1002,127450,-482,-801,127547,32,19240,135,0,12302,0.0010030000000000872
545000,1447,-23,127662,-4892,-1458,128114,32,19245,131,0,12303,0.0009969999999999146
546000,262,1476,127631,-639,787,126727,32,19241,131,0,12304,0.0010000000000000009
547000,1909,5426,128615,-1194,4514,125401,37,19239,152,0,12305,0.0010000000000000009
548000,-277,4326,128513,-5317,2345,127621,39,19239,160,1,12306,0.0010000000000000009
549000,2660,646,127903,-2254,-603,128116,34,19237,139,1,12307,0.0010000000000000009
550000,1251,1802,128112,1897,606,126553,40,19237,139,1,12308,0.0010000000000000009
551003,1320,2361,127818,-2028,1097,126711,42,19237,164,1,12309,0.0010030000000000872
552000,3745,2145,127729,-3700,747,127112,42,19238,172,1,12310,0.0009969999999999146
553000,2199,3041,128278,1513,1698,126758,37,19239,152,1,12311,0.0010000000000000009
554000,2918,1937,127602,-683,569,127156,34,19238,139,1,12312,0.0010000000000000009
555000,-367,2170,128158,-3964,786,127567,34,19238,139,1,12313,0.0010000000000000009
556000,1267,211,127855,-1317,-1228,128029,36,19238,139,1,12314,0.0010000000000000009
557000,1666,4187,128156,-1949,2932,125821,36,19240,147,1,12315,0.0010000000000000009
558000,52,5331,128288,-3855,4149,125730,36,19237,147,1,12316,0.0010000000000000009
559000,384,4311,127994,-2940,499,126832,41,19236,168,0,12317,0.0010000000000000009
560000,-637,-87,127163,-2104,-493,127114,39,19241,160,0,12318,0.0010000000000000009
561000,2429,2253,128080,-2101,462,127979,39,19243,160,0,12319,0.0010000000000000009
562000,2265,1545,127924,-2129,1077,126681,38,19243,160,0,12320,0.0010000000000000009
563000,686,3758,128269,-431,2212,126192,35,19239,156,0,12321,0.0010000000000000009
564000,1569,1946,128242,-3979,-793,128498,35,19236,143,0,12322,0.0010000000000000009
565000,937,1377,128120,-1007,712,126698,34,19240,139,0,12323,0.0010000000000000009
566001,1487,1883,127612,-985,492,127534,34,19241,139,0,12324,0.0010010000000000296
567000,1296,4081,127915,-3861,4146,125680,36,19240,147,0,12325,0.0009989999999999721
568000,562,5401,128095,-2113,2969,126309,42,19240,172,1,12326,0.0010000000000000009
569000,1337,2947,127654,-499,798,127261,34,19239,172,1,12327,0.0010000000000000009
570000,2547,844,128034,-698,-875,127923,39,19240,139,1,12328,0.0010000000000000009
571000,2967,1177,128097,-1736,660,126962,39,19241,160,1,12329,0.0010000000000000009
572000,2219,2442,128296,140,1220,126418,38,19239,156,1,12330,0.0010000000000000009
573000,1977,1860,128157,-2141,0,127919,34,19243,139,1,12331,0.0010000000000000009
574001,1337,2120,128208,-2623,951,127554,33,19243,135,1,12332,0.0010010000000000296
575000,923,2811,127767,-1532,1733,126452,33,19240,135,1,12333,0.0009989999999999721
576000,491,3805,127873,-2172,2204,126149,34,19240,135,1,12334,0.0010000000000000009
577002,888,2725,127959,-2898,1124,127062,34,19240,139,1,12335,0.0010020000000000584
578000,892,2610,127831,-2231,1704,126692,38,19241,156,0,12336,0.0009979999999999434
579000,345,3301,127986,-2378,2619,126907,36,19242,147,0,12337,0.0010000000000000009
580000,1453,3486,128001,-2367,2009,126632,37,19242,152,0,12338,0.0010000000000000009
581002,127,2177,127875,-2671,-91,127032,37,19241,152,0,12339,0.0010020000000000584
582001,689,568,127670,-2693,-898,127855,33,19239,152,0,12340,0.0009989999999999721
583000,1000,336,128001,-2787,-758,127864,33,19243,135,0,12341,0.0009989999999999721
584000,1831,1796,128460,-1704,1026,127190,33,19243,135,0,12342,0.0010000000000000009
585003,810,3992,128463,-2331,2903,126241,33,19242,135,0,12343,0.0010029999999999761
586000,521,3632,128220,-3396,1827,127039,36,19238,147,0,12344,0.0009970000000000256
587000,412,2111,127740,-1689,485,127447,40,19238,147,0,12345,0.0010000000000000009
588000,770,2493,127609,-1858,1432,126985,43,19239,164,0,12346,0.0010000000000000009
589000,1114,3456,127988,-2863,2410,126202,43,19238,176,1,12347,0.0010000000000000009
590000,2991,2738,128239,-1091,1323,127025,35,19243,143,1,12348,0.0010000000000000009
591000,2815,1462,127984,-397,-172,127606,35,19241,143,1,12349,0.0010000000000000009
592001,1553,992,128093,-1959,-551,127756,36,19246,147,1,12350,0.0010010000000000296
593002,857,1684,128437,-2501,457,127451,35,19246,147,1,12351,0.0010009999999999186
594001,459,1207,128193,-2116,-385,127754,30,19243,143,1,12352,0.0009990000000000832
595000,1427,1714,128011,-2657,586,127241,30,19240,123,1,12353,0.0009989999999999721
596002,525,3533,128150,-2782,1983,126310,32,19243,131,1,12354,0.0010019999999999474
597000,491,2688,127758,-2273,1517,126864,34,19237,139,1,12355,0.0009980000000000544
598000,-71,3071,127891,-2980,1508,126768,40,19239,164,0,12356,0.0010000000000000009
599003,-94,2265,127803,-4242,849,127529,35,19239,164,0,12357,0.0010029999999999761
600000,1746,3067,128310,-2582,2562,126689,36,19239,143,0,12358,0.0009970000000000256
601001,589,2608,127624,-2438,891,126941,36,19244,147,0,12359,0.0010010000000000296
602002,965,2023,128107,-3213,576,126851,34,19242,139,0,12360,0.0010009999999999186
603002,251,1594,127620,-1896,25,127580,31,19242,127,0,12361,0.0010000000000000009
604000,805,1661,128039,-2434,251,126574,31,19243,127,0,12362,0.0009980000000000544
605000,1522,3135,128290,-2434,1761,126665,32,19243,127,0,12363,0.0010000000000000009
606000,1014,2633,128165,-1885,1146,126778,34,19241,131,0,12364,0.0010000000000000009
607000,1662,2085,128004,-1748,436,127339,34,19241,139,0,12365,0.0010000000000000009
608003,349,1653,127816,-2008,854,127700,34,19240,139,1,12366,0.0010029999999999761
609002,2392,3326,128180,-1745,2527,126485,33,19241,135,1,12367,0.0009989999999999721
610000,1597,3839,128026,-2021,2617,126611,37,19241,152,1,12368,0.0009980000000000544
611008,992,2635,127861,-1735,597,127042,35,19241,152,1,12369,0.0010080000000000089
612005,1009,1990,127785,-2138,376,127077,32,19241,143,1,12370,0.0009970000000000256
613004,900,1229,127654,-2142,465,127225,32,19241,131,1,12371,0.0009989999999999721
614000,1951,3127,128084,-1621,2403,126153,28,19244,115,1,12372,0.0009959999999999969
615000,705,3790,128238,-2306,2126,126339,30,19239,123,1,12373,0.0010000000000000009
616001,1073,1912,127885,-2635,-198,127983,35,19238,143,1,12374,0.0010010000000000296
617000,-149,988,128041,-2623,-302,127378,40,19238,164,1,12375,0.0009989999999999721
618000,-349,1442,127867,-3929,1232,127313,43,19238,164,0,12376,0.0010000000000000009
619000,-371,3871,128147,-4446,3164,126429,35,19238,176,0,12377,0.0010000000000000009
620000,540,4993,128099,-2240,2693,126377,35,19241,143,0,12378,0.0010000000000000009
621000,1496,1663,127584,-3353,-500,127623,33,19236,135,0,12379,0.0010000000000000009
622002,935,547,127336,-696,-1086,127402,31,19240,127,0,12380,0.0010019999999999474
623000,1381,1289,127705,-1041,890,126146,30,19240,123,0,12381,0.0009980000000000544
624000,1219,3611,128292,-3264,2944,126484,31,19242,123,0,12382,0.0010000000000000009
625000,1458,5366,128954,-2449,3204,127105,33,19240,127,0,12383,0.0010000000000000009
626000,688,1910,127680,-2359,160,128217,33,19242,135,0,12384,0.0010000000000000009
627001,-139,1398,128108,-2063,-68,127100,37,19238,152,0,12385,0.0010009999999999186
628000,459,635,127634,-2368,-497,127007,44,19237,180,1,12386,0.0009990000000000832
629000,1535,3140,127536,-579,2344,125802,34,19237,139,1,12387,0.0010000000000000009
630000,3720,4672,128116,-3010,2460,127227,36,19241,139,1,12388,0.0010000000000000009
631000,1737,4290,128174,-1953,3606,126089,34,19239,147,1,12389,0.0010000000000000009
632000,-195,3568,127676,-68,1014,126706,34,19241,139,1,12390,0.0010000000000000009
633000,96,898,127264,-3632,-844,127467,31,19242,127,1,12391,0.0010000000000000009
634000,1576,727,127487,-2849,-410,127602,29,19244,119,1,12392,0.0010000000000000009
635000,2540,3654,128194,-799,3055,125787,32,19243,131,1,12393,0.0010000000000000009
636000,-44,4792,128348,-4000,3149,125750,35,19243,131,0,12394,0.0010000000000000009
637000,-1546,2029,128055,-5295,618,127612,34,19240,143,0,12395,0.0010000000000000009
638000,-45,684,127757,-3344,-747,128123,34,19237,139,0,12396,0.0010000000000000009
639000,-450,2517,127789,3391,1276,127204,38,19243,156,0,12397,0.0010000000000000009
640000,2488,2159,127610,-7194,674,125526,36,19242,147,0,12398,0.0010000000000000009
641000,3303,2946,127954,-4057,1563,127003,32,19240,131,0,12399,0.0010000000000000009
642001,1568,3140,128513,5596,1944,127511,34,19240,131,0,12400,0.0010009999999999186
643001,322,2900,127249,-5699,1570,125492,34,19241,139,0,12401,0.0010000000000000009
644000,-3142,2628,128242,-8804,1310,127326,34,19241,139,0,12402,0.0009990000000000832
645000,2124,2998,127962,3600,1485,127636,34,19239,139,0,12403,0.0010000000000000009
646002,1041,2373,127305,-4327,1089,125644,37,19238,152,0,12404,0.0010019999999999474
647000,1647,4861,129059,-4361,3699,127873,43,19236,176,0,12405,0.0009980000000000544
648000,2319,1417,127588,1986,-1,125695,51,19236,176,1,12406,0.0010000000000000009
649000,-555,-152,127611,-3191,-1557,129725,38,19243,209,1,12407,0.0010000000000000009
650000,5487,-260,129201,-208,-1632,128771,38,19240,156,1,12408,0.0010000000000000009
651000,839,2659,127733,-2699,1400,124590,36,19241,147,1,12409,0.0010000000000000009
652000,120,5090,128989,-2795,3750,127381,32,19240,131,1,12410,0.0010000000000000009
653000,-1150,2554,128389,-1686,982,128372,31,19242,127,1,12411,0.0010000000000000009
654001,55,-675,126891,-4597,33,127269,32,19242,127,1,12412,0.0010009999999999186
655000,2738,4158,128156,-2069,4879,125708,37,19238,131,1,12413,0.0009989999999999721
656000,1025,6746,128502,218,3942,125310,37,19240,152,0,12414,0.0010000000000000009
657001,1624,2742,127424,-3019,-393,126489,40,19246,164,0,12415,0.0010010000000000296
658000,1251,-355,128261,-520,-2385,130012,36,19243,147,0,12416,0.0009989999999999721
659002,320,-453,127817,-2914,97,126561,36,19242,147,0,12417,0.0010020000000000584
660000,750,4119,128140,-4368,3230,125733,36,19242,147,0,12418,0.0009979999999999434
661000,230,3908,129077,-3149,1687,127528,34,19243,147,0,12419,0.0010000000000000009
662000,849,2325,127955,-1116,95,126746,32,19241,139,0,12420,0.0010000000000000009
663000,57,305,127302,-3879,-1727,127918,32,19240,131,0,12421,0.0010000000000000009
664000,1076,310,127818,-462,55,127590,34,19240,139,0,12422,0.0010000000000000009
665000,2243,3980,127975,-29,4173,124978,36,19237,147,1,12423,0.0010000000000000009
666000,1149,4893,128450,-4942,2276,128254,34,19237,139,1,12424,0.0010000000000000009
667000,4011,1559,128002,-1760,697,127466,37,19237,139,1,12425,0.0010000000000000009
668001,-127,3112,128263,2290,1893,125592,43,19237,152,1,12426,0.0010010000000000296
669000,61,915,127086,-5706,-1491,128199,43,19244,176,1,12427,0.0009989999999999721
670000,2044,1669,128024,-4031,1584,126412,40,19243,164,1,12428,0.0010000000000000009
671000,2017,3665,128130,2630,2139,127123,35,19240,143,1,12429,0.0010000000000000009
672000,3081,3438,127783,-1611,2202,126002,34,19240,139,1,12430,0.0010000000000000009
673002,-96,2349,128579,-4724,-272,127202,34,19239,139,1,12431,0.0010020000000000584
674000,2476,-447,127878,1385,-1023,128539,34,19240,139,1,12432,0.0009979999999999434
675000,1058,2401,127671,-2136,1807,126214,34,19237,139,1,12433,0.0010000000000000009
676000,304,4598,128487,-5545,3895,126503,38,19240,156,1,12434,0.0010000000000000009
677000,-124,3825,127737,-3202,1616,126524,45,19238,184,0,12435,0.0010000000000000009
678000,-937,2713,127488,-2286,2204,125817,37,19239,152,0,12436,0.0010000000000000009
679000,1222,2869,128117,-3517,-200,128564,39,19239,152,0,12437,0.0010000000000000009
680003,2360,-272,126959,-935,-874,127026,37,19240,160,0,12438,0.0010030000000000872
681000,1568,4260,128214,363,2985,125129,37,19241,152,0,12439,0.0009969999999999146
682001,3066,2190,128345,-3916,242,128540,34,19246,139,0,12440,0.0010010000000000296
683000,1483,2355,128359,-763,1024,126299,32,19239,131,0,12441,0.0009989999999999721
684000,741,1204,127706,-800,-376,127929,35,19235,143,0,12442,0.0010000000000000009
685000,-250,3659,128200,-5154,2727,126412,39,19235,143,0,12443,0.0010000000000000009
686000,55,3775,127851,-2986,2109,126604,44,19234,160,1,12444,0.0010000000000000009
687000,847,2843,127905,-664,1391,127129,44,19242,180,1,12445,0.0010000000000000009
688000,3017,1416,128357,-1642,537,127506,37,19241,152,1,12446,0.0010000000000000009
689000,3234,2970,128107,-1103,1528,126715,39,19240,160,1,12447,0.0010000000000000009
690000,2787,1078,127623,2101,-160,127374,38,19239,156,1,12448,0.0010000000000000009
691002,2404,1833,127844,-2026,420,126999,30,19239,156,1,12449,0.0010020000000000584
692000,1689,2989,128253,-3078,1429,127421,32,19242,123,1,12450,0.0009979999999999434
693000,656,2994,127587,-873,1726,126362,32,19241,131,1,12451,0.0010000000000000009
694000,151,2772,128037,-2148,1381,126170,33,19240,135,1,12452,0.0010000000000000009
695002,-18,2504,128120,-4520,1017,127693,37,19239,152,1,12453,0.0010020000000000584
696000,613,2841,128123,-2331,1633,126729,40,19240,164,0,12454,0.0009979999999999434
697000,1509,3268,128406,-1053,2586,126902,37,19240,164,0,12455,0.0010000000000000009
698000,1771,3362,128093,-2613,1940,126678,38,19240,152,0,12456,0.0010000000000000009
699003,815,2002,127802,-2486,616,127082,38,19240,156,0,12457,0.0010029999999999761
700001,740,-48,127655,-1175,-1345,127944,36,19241,147,0,12458,0.0009980000000000544
701000,1149,780,128067,-2898,494,127273,34,19239,139,0,12459,0.0009989999999999721
702000,1397,3341,128336,-2662,2985,126172,33,19241,135,0,12460,0.0010000000000000009
703000,470,4225,128678,-2107,1929,126620,34,19241,135,0,12461,0.0010000000000000009
704000,490,2255,128138,-3079,187,127678,33,19241,139,0,12462,0.0010000000000000009
705000,803,1595,127750,-1817,491,127467,33,19240,135,0,12463,0.0010000000000000009
706000,1359,2279,127848,-1675,1582,126720,40,19235,164,1,12464,0.0010000000000000009
707000,1482,3624,128099,-3196,2348,126519,45,19238,184,1,12465,0.0010000000000000009
708000,3487,3241,128224,-357,1207,127172,38,19242,156,1,12466,0.0010000000000000009
709000,2071,2355,128175,-1353,591,127204,36,19242,147,1,12467,0.0010000000000000009
710000,1095,442,127820,-2695,-1109,127822,34,19240,147,1,12468,0.0010000000000000009
711001,768,1094,128070,-2464,-193,127339,31,19245,139,1,12469,0.0010010000000000296
712000,752,1468,128104,-1298,395,127493,31,19246,127,1,12470,0.0009989999999999721
713000,1678,2600,128155,-3110,1615,126520,33,19240,135,1,12471,0.0010000000000000009
714000,467,3145,128109,-2928,1277,126933,33,19240,135,1,12472,0.0010000000000000009
715000,667,2333,127781,-1507,1457,126780,38,19240,156,1,12473,0.0010000000000000009
716000,-5,2600,127744,-3101,871,127083,42,19240,156,0,12474,0.0010000000000000009
717000,-62,2063,127653,-4024,1016,127118,37,19241,172,0,12475,0.0010000000000000009
718001,1996,3516,128285,-1393,2235,126127,37,19241,152,0,12476,0.0010010000000000296
719000,371,3041,127787,-2654,1087,126408,37,19237,152,0,12477,0.0009989999999999721
720000,533,2661,128071,-2917,472,126865,34,19238,139,0,12478,0.0010000000000000009
721000,272,669,127474,-2448,-915,127932,31,19241,127,0,12479,0.0010000000000000009
722003,937,1873,128085,-1952,921,126864,33,19241,127,0,12480,0.0010029999999999761
723000,1777,3165,128246,-2602,1972,126445,33,19242,135,0,12481,0.0009970000000000256
724000,1291,2817,128311,-1929,1285,126808,33,19241,135,0,12482,0.0010000000000000009
725000,1045,1792,128144,-1402,310,127184,37,19242,152,1,12483,0.0010000000000000009
726000,455,1796,127936,-3124,699,127797,41,19240,168,1,12484,0.0010000000000000009
727000,2441,3475,128052,-1482,1822,126698,36,19240,147,1,12485,0.0010000000000000009
728000,1782,3402,128176,-1954,1887,126614,36,19240,147,1,12486,0.0010000000000000009
729000,1309,2412,127761,-1919,928,126982,34,19240,147,1,12487,0.0010000000000000009
730000,1318,1809,127807,-1410,102,127270,34,19240,139,1,12488,0.0010000000000000009
731001,1137,1695,127798,-1598,822,126987,31,19241,127,1,12489,0.0010010000000000296
732000,1155,3916,128056,-2872,2775,126119,31,19241,127,1,12490,0.0009989999999999721
733000,574,4373,128270,-2716,3172,126003,33,19240,135,1,12491,0.0010000000000000009
734011,290,2335,127839,-1849,584,127323,35,19240,135,1,12492,0.0010109999999999841
735000,-92,542,127742,-3452,-474,127368,38,19243,143,1,12493,0.0009890000000000176
736000,-348,1638,128187,-4249,439,127579,38,19237,156,0,12494,0.0010000000000000009
737000,250,3408,128283,-3165,2451,126546,46,19239,188,0,12495,0.0010000000000000009
738001,651,4223,128277,-2860,2446,126158,35,19241,143,0,12496,0.0010010000000000296
739002,1596,1083,127974,-4294,-946,128376,34,19240,139,0,12497,0.0010009999999999186
740000,369,-820,127491,11,-1832,127570,32,19240,139,0,12498,0.0009980000000000544
741000,766,2800,128133,-1451,1354,126063,30,19242,131,0,12499,0.0010000000000000009
742000,1215,3085,127958,-4372,1964,127374,30,19240,123,0,12500,0.0010000000000000009
743000,929,6682,128884,-2007,5312,125433,31,19241,127,0,12501,0.0010000000000000009
744000,1153,2559,127509,-2018,895,128128,33,19240,135,0,12502,0.0010000000000000009
745000,-679,1050,127198,-2579,-278,125698,39,19245,160,0,12503,0.0010000000000000009
746000,687,1502,128067,-1851,242,127929,44,19245,160,1,12504,0.0010000000000000009
747000,2975,2602,127186,-889,844,125838,35,19240,180,1,12505,0.0010000000000000009
748001,2539,5451,128640,-2087,3963,126653,35,19242,143,1,12506,0.0010009999999999186
749003,1972,4038,128248,-2642,1184,126890,32,19243,131,1,12507,0.0010020000000000584
750000,-954,956,127395,-1781,-1021,127394,34,19241,139,1,12508,0.0009970000000000256
751000,107,491,127773,-2110,-988,127792,30,19241,123,1,12509,0.0010000000000000009
752000,2877,1035,127473,-3636,416,126510,30,19241,123,1,12510,0.0010000000000000009
753000,1331,4755,128474,1299,6122,123193,34,19244,123,1,12511,0.0010000000000000009
754000,1676,3950,128195,-4757,-2240,130081,35,19240,139,0,12512,0.0010000000000000009
755000,-479,-1099,127517,-5655,1339,126470,35,19241,143,0,12513,0.0010000000000000009
756000,-1770,4901,128339,-108,2752,127359,38,19241,156,0,12514,0.0010000000000000009
757000,352,4001,127536,-6585,4477,124903,38,19240,156,0,12515,0.0010000000000000009
758002,-927,5730,128104,683,882,126235,36,19240,147,0,12516,0.0010019999999999474
759000,2701,-1544,127493,-4582,-2087,127634,31,19239,147,0,12517,0.0009980000000000544
760000,3073,2479,127740,-2518,638,127009,30,19241,127,0,12518,0.0010000000000000009
761000,330,1477,128897,3302,857,128275,30,19242,123,0,12519,0.0010000000000000009
762000,2045,3119,128223,-5341,1816,125230,32,19241,131,0,12520,0.0010000000000000009
763000,-1496,2240,128313,-7496,581,129090,35,19243,143,0,12521,0.0010000000000000009
764000,2429,1752,128690,4700,-313,128537,42,19243,172,0,12522,0.0010000000000000009
765000,-173,893,127198,-4623,961,124467,46,19239,172,0,12523,0.0010000000000000009
766000,-147,5206,128572,-6912,3772,127517,44,19237,188,1,12524,0.0010000000000000009
767000,2192,3178,128347,2445,2064,126920,44,19240,180,1,12525,0.0010000000000000009
768000,3070,2352,127555,1422,349,126134,35,19243,143,1,12526,0.0010000000000000009
769000,2461,1209,128494,-6083,9,129146,34,19240,139,1,12527,0.0010000000000000009
770000,1305,2762,128088,1181,1346,126102,35,19240,143,1,12528,0.0010000000000000009
771000,18,1174,128135,-484,-474,127060,32,19240,143,1,12529,0.0010000000000000009
772002,2246,2615,128628,-6472,1572,128782,33,19246,131,1,12530,0.0010019999999999474
773002,-218,3641,128184,-2843,2530,125843,33,19243,135,1,12531,0.0010000000000000009
774002,181,4331,128015,-323,2603,125557,37,19240,152,0,12532,0.0010000000000000009
775002,-968,1207,127984,-5428,-1223,128038,39,19240,160,0,12533,0.0010000000000000009
776000,1761,-506,127538,-1573,-869,128723,38,19243,156,0,12534,0.0009979999999999434
777000,2386,3558,128116,-689,2805,125011,38,19243,156,0,12535,0.0010000000000000009
778008,1062,4214,128214,-3940,2559,126880,34,19243,156,0,12536,0.0010080000000000089
779002,2134,2327,127815,-1596,469,127057,34,19241,139,0,12537,0.0009940000000000504
780000,0,1009,127683,-985,-670,127296,30,19244,123,0,12538,0.0009979999999999434
781000,-28,1174,127766,-4852,157,127415,31,19242,127,0,12539,0.0010000000000000009
782000,782,3104,127837,-2566,1758,126432,35,19234,143,0,12540,0.0010000000000000009
783000,734,5045,128403,359,3954,125364,39,19234,143,1,12541,0.0010000000000000009
784000,663,2536,128258,-4909,524,128360,33,19238,160,1,12542,0.0010000000000000009
785000,4028,1071,127496,-3048,-546,127274,33,19240,135,1,12543,0.0010000000000000009
786000,690,3064,128499,3903,2072,126656,40,19241,164,1,12544,0.0010000000000000009
787001,2415,1863,127537,-3094,286,126591,41,19241,168,1,12545,0.0010010000000000296
788002,1237,1908,127756,-6539,493,127276,38,19240,156,1,12546,0.0010010000000000296
789000,2552,2593,128407,2936,1342,127698,34,19240,156,1,12547,0.0009979999999999434
790000,834,2431,127278,-938,1055,126017,33,19239,139,1,12548,0.0010000000000000009
791002,90,2622,128401,-7036,1142,128219,33,19242,135,1,12549,0.0010020000000000584
792000,2389,2020,128212,713,609,126907,34,19241,139,1,12550,0.0009979999999999434
793000,1260,3713,127744,-581,2497,125818,36,19239,147,1,12551,0.0010000000000000009
794000,515,5121,128609,-4666,3653,126934,43,19245,176,1,12552,0.0010000000000000009
795000,-18,1823,127446,-3395,517,126666,44,19245,176,0,12553,0.0010000000000000009
796000,305,1944,127912,-364,738,127233,38,19244,180,0,12554,0.0010000000000000009
797000,1642,1236,128109,-3953,-576,128505,38,19241,156,0,12555,0.0010000000000000009
798003,1345,1769,127855,-2979,1828,125459,37,19242,152,0,12556,0.0010030000000000872
799000,926,3506,128405,514,1237,126996,34,19241,139,0,12557,0.0009969999999999146
800000,1653,1879,128072,-3692,496,128169,32,19242,131,0,12558,0.0010000000000000009
801000,1737,1912,127948,-45,1037,126540,34,19242,139,0,12559,0.0010000000000000009
802000,1898,2956,127460,-1297,2171,126544,38,19239,139,0,12560,0.0010000000000000009
803000,637,4026,128035,-3863,1985,126399,42,19238,156,0,12561,0.0010000000000000009
804000,1324,3200,127951,-1488,1684,126642,42,19237,172,1,12562,0.0010000000000000009
805000,149,2201,127908,485,-125,128271,39,19241,160,1,12563,0.0010000000000000009
806000,2597,1741,128258,-3250,1321,126779,37,19240,152,1,12564,0.0010000000000000009
807005,2034,3438,128462,-668,1082,126856,40,19240,164,1,12565,0.0010050000000000336
808002,2218,1230,127971,1199,-313,127462,36,19240,164,1,12566,0.0009970000000000256
809000,2665,793,127997,-2722,-716,128034,33,19242,147,1,12567,0.0009979999999999434
810000,2138,1600,128068,-2907,730,127367,33,19245,135,1,12568,0.0010000000000000009
811002,1400,4559,127994,407,3957,125260,33,19244,135,1,12569,0.0010020000000000584
812002,552,4045,127893,-3293,1673,126771,35,19240,143,1,12570,0.0010000000000000009
813001,-83,2463,128008,-4564,736,127671,37,19242,152,1,12571,0.0009989999999999721
814000,187,2195,127753,-1549,1478,126927,40,19242,152,0,12572,0.0009989999999999721
815001,1460,3321,128261,-2166,1850,126461,37,19239,164,0,12573,0.0010010000000000296
816001,1342,2720,128127,-3110,918,127065,37,19239,152,0,12574,0.0010000000000000009
817000,1285,1686,128142,-1967,91,127067,38,19241,156,0,12575,0.0009989999999999721
818002,622,405,127724,-1846,-985,128020,36,19244,147,0,12576,0.0010020000000000584
819000,1078,1388,127847,-2962,503,127282,34,19242,139,0,12577,0.0009979999999999434
820000,1274,2415,128208,-2043,1778,126640,30,19242,139,0,12578,0.0010000000000000009
821000,446,3700,128020,-2413,2353,126200,34,19240,123,0,12579,0.0010000000000000009
822000,845,2517,127988,-3106,907,127333,34,19239,139,0,12580,0.0010000000000000009
823000,650,2022,127721,-1299,801,127327,37,19240,152,0,12581,0.0010000000000000009
824000,1108,3004,127796,-1815,1605,126596,41,19235,168,1,12582,0.0010000000000000009
825000,947,3478,127990,-3630,2215,126752,40,19241,164,1,12583,0.0010000000000000009
826000,3842,2380,127817,-628,474,127221,36,19241,164,1,12584,0.0010000000000000009
827000,2351,1452,127965,-255,172,127330,38,19240,147,1,12585,0.0010000000000000009
828001,1236,684,127875,-2832,-658,127474,38,19237,156,1,12586,0.0010010000000000296
829000,1028,2019,128282,-2820,551,127186,34,19241,139,1,12587,0.0009989999999999721
830000,583,1659,128125,-958,308,127673,31,19244,127,1,12588,0.0010000000000000009
831000,1227,2559,128108,-3330,1288,126766,33,19243,135,1,12589,0.0010000000000000009
832000,76,2977,128182,-3994,1492,126616,35,19243,135,1,12590,0.0010000000000000009
833000,509,2905,127936,-1249,1487,126796,40,19240,143,1,12591,0.0010000000000000009
834000,-42,2232,127792,-2126,499,127023,40,19238,164,0,12592,0.0010000000000000009
835000,-185,2188,127817,-5100,668,127469,43,19241,176,0,12593,0.0010000000000000009
836000,2162,3418,128275,-1583,2380,126427,38,19244,156,0,12594,0.0010000000000000009
837000,19,3041,127829,-1935,1516,126350,34,19243,139,0,12595,0.0010000000000000009
838000,588,2769,127892,-3173,1119,126563,32,19243,139,0,12596,0.0010000000000000009
839000,108,705,127650,-3680,-895,127406,30,19243,131,0,12597,0.0010000000000000009
840000,1014,2038,128086,-971,659,126595,30,19245,123,0,12598,0.0010000000000000009
841000,1805,3252,128229,-2142,2010,126526,30,19240,123,0,12599,0.0010000000000000009
842000,973,2857,128426,-3086,1613,127180,34,19244,139,0,12600,0.0010000000000000009
843000,998,1701,128275,-1142,593,127689,37,19241,152,1,12601,0.0010000000000000009
844000,230,1778,127934,-2204,1477,127692,31,19241,127,1,12602,0.0010000000000000009
845000,2059,3257,127827,-1985,1944,126757,36,19241,127,1,12603,0.0010000000000000009
846000,1691,2984,128033,-2320,922,126741,37,19241,147,1,12604,0.0010000000000000009
847000,1178,2155,127846,-1674,1421,126632,37,19241,152,1,12605,0.0010000000000000009
848000,1593,2621,127691,-1574,671,127310,31,19240,127,1,12606,0.0010000000000000009
849009,1267,2607,127849,-2553,1810,126623,29,19237,119,1,12607,0.0010090000000000376
850003,952,3916,128045,-2296,2902,125984,31,19237,127,1,12608,0.0009939999999999394
851000,897,3706,128083,-2462,1239,127218,33,19239,127,1,12609,0.0009970000000000256
852000,223,1570,127886,-1743,-444,127349,35,19238,135,1,12610,0.0010000000000000009
853000,40,707,127931,-4085,6,127433,35,19239,143,1,12611,0.0010000000000000009
854000,-539,2270,128194,-4615,1739,127300,41,19237,168,0,12612,0.0010000000000000009
855000,-239,4060,128365,-2304,3359,126619,41,19242,168,0,12613,0.0010000000000000009
856000,650,3565,128001,-2825,1049,127070,37,19242,152,0,12614,0.0010000000000000009
857000,943,777,127659,-4055,-1761,127953,33,19239,152,0,12615,0.0010000000000000009
858000,1378,-1110,127258,1064,-1596,127240,31,19244,135,0,12616,0.0010000000000000009
859000,847,3293,128265,-1598,2986,125065,31,19240,127,0,12617,0.0010000000000000009
860001,2094,4480,128298,-5502,2868,127318,31,19238,127,0,12618,0.0010010000000000296
861000,372,5617,128605,-1520,3735,126653,33,19239,135,0,12619,0.0009989999999999721
862000,1090,2239,127685,-1358,-449,127706,34,19240,139,0,12620,0.0010000000000000009
863001,-472,154,127376,-2632,-678,127227,40,19240,139,0,12621,0.0010009999999999186
864000,888,1193,127778,-1844,-48,126478,36,19239,164,1,12622,0.0009990000000000832
865000,4132,3872,127757,-1426,3556,126446,36,19245,147,1,12623,0.0010000000000000009
866000,2234,4721,128442,-2298,3149,127024,36,19238,147,1,12624,0.0010000000000000009
867001,1682,5078,128408,-2419,2935,126117,33,19243,135,1,12625,0.0010009999999999186
868000,-1154,615,127106,-1851,-1711,128079,29,19242,119,1,12626,0.0009990000000000832
869000,241,-3,127506,-2241,-981,127528,29,19242,119,1,12627,0.0010000000000000009
870003,2665,1689,127744,-2322,1190,126745,31,19242,119,1,12628,0.0010029999999999761
871000,1502,4991,128274,-2608,4036,125347,31,19241,127,1,12629,0.0009970000000000256
872001,157,4236,128510,-3710,2447,126349,36,19237,147,0,12630,0.0010009999999999186
873000,-1864,820,127861,-4163,-739,128610,34,19241,139,0,12631,0.0009990000000000832
874000,2206,98,127556,-1674,-733,127949,38,19241,156,0,12632,0.0010000000000000009
875000,-2612,3095,128103,2472,2038,125678,35,19241,156,0,12633,0.0010000000000000009
876000,6107,1485,126977,-10841,56,126520,36,19239,143,0,12634,0.0010000000000000009
877000,599,4640,128932,1850,3594,127357,36,19239,147,0,12635,0.0010000000000000009
878000,1427,3120,127599,4245,1571,126221,31,19245,127,0,12636,0.0010000000000000009
879002,-975,2727,126991,-13536,1201,126381,31,19240,127,0,12637,0.0010019999999999474
880001,-3296,2108,129195,1344,815,127927,34,19242,139,0,12638,0.0009989999999999721
881000,5104,1807,126482,545,373,127230,35,19242,139,0,12639,0.0009990000000000832
882000,-693,3425,128757,-7584,2667,125748,41,19243,143,0,12640,0.0010000000000000009
883000,3115,4827,129049,1509,2754,127681,41,19240,168,0,12641,0.0010000000000000009
884000,1192,-996,126976,-1196,-2319,125811,48,19238,197,1,12642,0.0010000000000000009
885002,249,110,128921,-2335,-1012,129403,35,19239,143,1,12643,0.0010019999999999474
886000,5908,312,128199,-1072,-1122,126965,36,19239,147,1,12644,0.0009980000000000544
887001,-594,4671,127741,-2161,3709,124179,34,19239,139,1,12645,0.0010009999999999186
888000,832,5859,129185,-1999,4313,129380,32,19244,139,1,12646,0.0009990000000000832
889001,-966,-111,127442,-3067,-1589,126557,32,19238,131,1,12647,0.0010009999999999186
890000,599,1273,127092,-3142,-241,127373,32,19242,131,1,12648,0.0009990000000000832
891001,3836,5600,128797,-1878,5796,124925,36,19244,147,1,12649,0.0010009999999999186
892000,-288,5788,127715,856,1953,125154,38,19240,156,0,12650,0.0009990000000000832
893000,2533,1041,127578,-5804,-1921,129072,35,19240,143,0,12651,0.0009999999999998899
894000,-397,-1535,128261,-1561,-2807,129443,38,19242,143,0,12652,0.0010000000000000009
895001,567,1135,127842,-1057,2173,125265,37,19236,156,0,12653,0.0010010000000000296
896000,431,4901,128705,-6031,3295,126399,37,19238,152,0,12654,0.0009989999999999721
897000,430,3569,128676,-1224,1314,127511,35,19241,143,0,12655,0.0010000000000000009
898001,1497,1794,127571,-781,-735,126488,32,19240,131,0,12656,0.0010010000000000296
899000,-287,-208,127311,-4560,-1325,128578,32,19240,131,0,12657,0.0009989999999999721
900000,2084,1500,127817,700,2012,125954,34,19241,131,0,12658,0.0010000000000000009
901000,2212,5690,128041,-1284,4666,125203,38,19237,139,1,12659,0.0010000000000000009
902000,859,3896,128597,-4781,1063,129104,38,19240,156,1,12660,0.0010000000000000009
903000,3893,1980,127717,564,1026,126414,38,19242,156,1,12661,0.0010000000000000009
904001,-1383,2606,127946,360,441,126431,40,19238,164,1,12662,0.0010010000000000296
905000,1350,626,127472,-5892,-966,128127,41,19242,168,1,12663,0.0009989999999999721
906002,1682,2510,128237,-2175,2165,126314,34,19242,168,1,12664,0.0010020000000000584
907000,2701,3628,128136,2581,1837,127339,33,19242,139,1,12665,0.0009979999999999434
908000,1999,2985,127854,-3299,2096,125885,33,19242,135,1,12666,0.0010000000000000009
909002,418,1272,128602,-3388,-1475,128280,34,19239,139,1,12667,0.0010020000000000584
910000,2570,382,127635,1595,342,127483,34,19242,139,1,12668,0.0009979999999999434
911000,742,3477,127917,-4315,2477,126518,37,19238,152,1,12669,0.0010000000000000009
912002,256,5698,128814,-4684,4465,126312,43,19238,152,1,12670,0.0010020000000000584
913002,-828,3203,127348,-2752,982,126399,38,19237,176,0,12671,0.0010000000000000009
914000,-457,2847,127572,-3485,1322,126534,38,19242,156,0,12672,0.0009979999999999434
915001,2046,924,127697,-2571,-1375,129121,38,19240,156,0,12673,0.0010010000000000296
916001,2284,792,127312,-60,944,125851,39,19240,160,0,12674,0.0010000000000000009
917000,1939,4449,128611,-1004,2579,126412,37,19241,152,0,12675,0.0009989999999999721
918000,2297,2032,127993,-4228,619,128029,34,19241,152,0,12676,0.0010000000000000009
919001,633,1922,128204,315,499,126794,34,19240,139,0,12677,0.0010010000000000296
920000,673,815,127586,-2329,-68,127788,34,19241,139,0,12678,0.0009989999999999721
921000,-228,3563,128209,-5120,2738,126129,37,19236,152,0,12679,0.0010000000000000009
922001,1219,3916,128026,-1641,2408,126965,42,19239,172,1,12680,0.0010010000000000296
923000,1310,3652,128001,301,1370,126882,35,19239,143,1,12681,0.0009989999999999721
924000,3472,1795,127867,-1992,340,127332,40,19239,143,1,12682,0.0010000000000000009
925000,2946,2350,128202,289,665,126854,38,19239,164,1,12683,0.0010000000000000009
926000,2388,596,127671,1373,-892,127172,38,19240,156,1,12684,0.0010000000000000009
927000,2515,2015,127971,-2675,935,127418,34,19243,139,1,12685,0.0010000000000000009
928000,1582,2924,128169,-3242,1459,127029,34,19241,139,1,12686,0.0010000000000000009
929000,269,3504,127826,-237,2527,125986,32,19241,131,1,12687,0.0010000000000000009
930000,112,2758,127929,-3690,1167,127068,34,19241,131,1,12688,0.0010000000000000009
931002,205,2241,127980,-4117,978,126990,38,19241,139,1,12689,0.0010020000000000584
932000,602,3055,128020,-1256,1694,126791,38,19244,156,0,12690,0.0009979999999999434
933000,2405,2850,128062,-1812,1666,126873,38,19241,156,0,12691,0.0010000000000000009
934000,1097,3147,128026,-2800,1893,126610,34,19241,139,0,12692,0.0010000000000000009
935000,1217,1749,127768,-1904,387,127443,36,19240,147,0,12693,0.0010000000000000009
936000,398,501,127636,-1906,-851,127740,34,19240,139,0,12694,0.0010000000000000009
937000,1042,1047,127805,-3272,-409,127222,32,19241,139,0,12695,0.0010000000000000009
938001,1503,3287,128547,-2077,2624,126194,34,19244,131,0,12696,0.0010010000000000296
939001,215,3288,128423,-2125,1578,126869,34,19241,139,0,12697,0.0010000000000000009
940002,1199,1967,128135,-3149,555,127499,34,19243,139,0,12698,0.0010010000000000296
941000,563,2263,127934,-1343,1284,127120,40,19238,164,0,12699,0.0009979999999999434
942000,1287,3137,127838,-1644,2272,126490,45,19238,184,1,12700,0.0010000000000000009
943000,1170,3732,127932,-2287,1825,126725,34,19238,184,1,12701,0.0010000000000000009
944000,3154,2249,127751,555,576,127272,36,19243,139,1,12702,0.0010000000000000009
945000,1931,1926,127963,-1771,-100,127323,36,19240,147,1,12703,0.0010000000000000009
946000,833,323,127890,-2685,-579,127591,35,19240,143,1,12704,0.0010000000000000009
947000,1104,1593,128354,-2072,218,127563,33,19239,135,1,12705,0.0010000000000000009
948000,1063,1857,128293,-2192,556,127507,31,19239,127,1,12706,0.0010000000000000009
949000,1353,2988,128163,-2818,2071,126295,33,19245,127,1,12707,0.0010000000000000009
950001,769,2728,128093,-2808,427,127182,37,19243,135,1,12708,0.0010010000000000296
951002,564,2544,127819,-1486,1586,126387,37,19240,152,1,12709,0.0010009999999999186
952001,-248,2533,127887,-3219,847,127320,40,19240,164,0,12710,0.0009990000000000832
953002,338,3073,127688,-3887,1808,127003,35,19238,143,0,12711,0.0010009999999999186
954000,1535,3986,128219,-2118,2173,126578,37,19242,152,0,12712,0.0009980000000000544
955000,140,2296,127909,-2145,707,126694,34,19242,152,0,12713,0.0010000000000000009
956000,406,1667,127967,-3052,-329,127145,31,19237,139,0,12714,0.0010000000000000009
957000,650,15,127629,-2966,-1274,127936,31,19243,127,0,12715,0.0010000000000000009
958000,1581,2402,128149,-1030,2064,126500,30,19240,123,0,12716,0.0010000000000000009
959000,1476,4002,128220,-2688,2299,126225,34,19240,139,0,12717,0.0010000000000000009
960000,781,3527,128190,-2993,2103,126839,35,19241,143,0,12718,0.0010000000000000009
961000,713,1816,128001,-1236,-298,127691,39,19241,143,1,12719,0.0010000000000000009
962000,301,1185,127795,-1614,728,127716,33,19239,160,1,12720,0.0010000000000000009
963000,2504,2824,128022,-1236,1593,126789,33,19236,135,1,12721,0.0010000000000000009
964001,1784,2695,128089,-2377,1164,126684,36,19244,147,1,12722,0.0010010000000000296
965000,1529,2503,128179,-569,1437,126839,36,19240,147,1,12723,0.0009989999999999721
966000,1090,1968,127710,-2129,409,127419,32,19244,131,1,12724,0.0010000000000000009
967000,971,2583,127909,-2799,1313,126940,30,19244,131,1,12725,0.0010000000000000009
968000,971,3851,127864,-2359,2755,126007,31,19242,123,1,12726,0.0010000000000000009
969000,1082,4056,127979,-2141,2273,126531,31,19238,127,1,12727,0.0010000000000000009
970001,385,1665,127729,-2003,-28,127316,34,19239,139,1,12728,0.0010010000000000296
971000,-161,1454,127835,-3780,195,127408,38,19236,156,1,12729,0.0009989999999999721
972000,-247,2401,128440,-3968,1283,127270,43,19243,176,0,12730,0.0010000000000000009
973000,-308,3241,128458,-2361,2404,126952,36,19243,176,0,12731,0.0010000000000000009
974000,727,2680,128398,-3403,1221,126779,37,19244,147,0,12732,0.0010000000000000009
975000,1168,-243,127685,-4207,-2052,128579,37,19243,152,0,12733,0.0010000000000000009
976002,412,360,127670,1248,-269,126603,34,19240,139,0,12734,0.0010019999999999474
977001,808,3644,128094,-2831,2164,125812,30,19242,123,0,12735,0.0009990000000000832
978000,1183,4186,128061,-5316,3069,126953,30,19240,123,0,12736,0.0009989999999999721
979000,872,5635,128667,-736,3952,126252,33,19240,135,0,12737,0.0010000000000000009
980000,1359,1139,127079,-2067,-497,128082,37,19242,135,0,12738,0.0010000000000000009
981000,-811,1561,127716,-2119,405,125906,44,19241,152,1,12739,0.0010000000000000009
982000,1535,986,127697,-2741,-605,128200,44,19235,180,1,12740,0.0010000000000000009
983001,2664,3613,128346,-1362,3094,125260,33,19244,135,1,12741,0.0010009999999999186
984000,2195,5176,128335,-2151,3603,126889,34,19243,139,1,12742,0.0009990000000000832
985008,378,3672,128049,-3835,567,127086,33,19243,135,1,12743,0.0010080000000000089
986000,-677,405,127074,-1640,-1983,127778,30,19244,135,1,12744,0.0009919999999999929
987000,1540,-1307,126955,-61,-749,126677,30,19244,123,1,12745,0.0010000000000000009
988000,2108,4118,128286,-1592,3000,126022,30,19240,123,1,12746,0.0010000000000000009
989000,3286,3288,127716,-5171,2365,127051,32,19239,131,1,12747,0.0010000000000000009
990000,-795,5182,128652,896,3492,126095,34,19239,139,0,12748,0.0010000000000000009
991001,-1541,2845,127807,-6428,283,126786,34,19239,139,0,12749,0.0010009999999999186
992001,-1754,565,126986,-6551,-553,127986,38,19237,139,0,12750,0.0010000000000000009
993000,1298,2167,128474,3771,1109,126759,37,19240,156,0,12751,0.0009990000000000832
994000,2255,2789,127508,-5323,2304,125167,37,19239,152,0,12752,0.0010000000000000009
995000,2619,5046,128729,-4715,3202,126885,33,19240,135,0,12753,0.0010000000000000009
996000,888,942,128205,4104,-1555,128246,30,19245,123,0,12754,0.0010000000000000009
997001,415,280,127488,-4476,-263,126610,31,19240,127,0,12755,0.0010009999999999186
998001,-686,1810,128266,-7080,824,129004,34,19240,127,0,12756,0.0010000000000000009
999000,1756,3584,128514,2178,3104,125680,36,19239,139,0,12757,0.0009990000000000832
1000003,443,4212,127752,-4025,2456,125029,36,19238,147,0,12758,0.0010029999999999761
1001000,708,2955,128479,-4285,1700,129612,44,19237,180,0,12759,0.0009969999999999146
1002000,507,825,127655,-198,-964,126135,52,19239,213,1,12760,0.001000000000000112
1003000,2881,1933,127657,-1289,1147,126669,38,19242,156,1,12761,0.0009999999999998899
1004001,3512,2407,128648,-1966,950,128639,36,19242,156,1,12762,0.0010010000000000296
1005000,3572,2435,127611,-478,1208,125809,34,19246,147,1,12763,0.0009989999999999721
1006000,-365,2210,128447,-1519,85,127289,34,19241,139,1,12764,0.001000000000000112
1007000,-155,1398,128488,-4414,28,129129,31,19243,127,1,12765,0.0009999999999998899
1008000,986,2574,127860,-3347,1785,125786,32,19244,131,1,12766,0.001000000000000112
1009000,261,4817,128152,-341,4094,125722,35,19236,143,1,12767,0.0009999999999998899
1010001,683,3924,128376,-4962,983,127189,41,19236,143,0,12768,0.0010010000000000296
1011000,658,255,126887,-1840,-1856,128019,37,19241,168,0,12769,0.0009989999999999721
1012000,2058,1288,128017,950,253,127359,37,19237,152,0,12770,0.001000000000000112
1013000,1108,3417,128151,-4439,2454,126229,38,19241,156,0,12771,0.0009999999999998899
1014003,1279,4473,128442,-3739,2762,125722,35,19241,143,0,12772,0.0010030000000000872
1015000,1398,1899,128142,29,-81,127963,33,19240,135,0,12773,0.0009969999999999146
1016002,-281,1026,127680,-2962,-391,126931,33,19240,135,0,12774,0.0010019999999999474
1017001,109,1177,127676,-4771,-43,127116,33,19243,135,0,12775,0.0009990000000001942
1018000,1728,2675,127988,-303,1985,126467,33,19240,135,0,12776,0.0009989999999999721
1019000,919,4942,128586,-363,3563,125970,36,19239,147,1,12777,0.0009999999999998899
1020003,1931,1506,127827,-5932,-11,128836,36,19242,147,1,12778,0.0010030000000000872
1021000,2839,2357,128446,1098,1346,126665,37,19237,152,1,12779,0.0009969999999999146
1022000,355,2676,128074,1355,1181,126658,41,19237,168,1,12780,0.001000000000000112
1023000,1568,1201,127470,-5399,-112,127136,40,19240,168,1,12781,0.0009999999999998899
1024002,1625,2728,128041,-3314,1430,127052,36,19238,164,1,12782,0.0010019999999999474
1025003,3009,2780,127667,2760,1304,127251,36,19242,147,1,12783,0.0010010000000000296
1026009,394,3144,127707,-2969,1878,125597,34,19243,139,1,12784,0.0010060000000000624
1027002,1246,1525,128390,-4453,7,127855,33,19239,135,1,12785,0.0009930000000000216
1028002,2199,1631,127826,1235,718,127688,34,19239,139,1,12786,0.0009999999999998899
1029000,949,3897,127982,-2076,2618,126637,40,19242,139,1,12787,0.0009980000000000544
1030002,748,4303,128520,-5254,3217,126635,47,19245,164,0,12788,0.0010019999999999474
1031000,-1022,2388,127265,-2789,933,126185,47,19235,192,0,12789,0.0009980000000000544
1032000,955,2519,127719,-2486,581,128526,36,19243,147,0,12790,0.001000000000000112
1033000,1597,848,127890,-3297,-312,127777,38,19238,156,0,12791,0.0009999999999998899
1034000,1497,2583,127726,-1573,2420,125547,38,19238,156,0,12792,0.001000000000000112
1035001,1831,3646,128292,-536,1081,127404,34,19243,156,0,12793,0.0010010000000000296
1036002,1781,1711,128055,-3735,358,127382,33,19241,139,0,12794,0.0010009999999998076
1037001,2038,1707,127830,117,-371,127387,33,19243,135,0,12795,0.0009990000000001942
1038000,927,2033,127421,-3416,2389,126250,34,19237,139,0,12796,0.0009989999999999721
1039000,96,5135,128298,-3824,3426,126205,39,19242,160,0,12797,0.0009999999999998899
1040000,1057,3672,127977,-1211,1928,127053,43,19241,176,1,12798,0.001000000000000112
1041000,1122,3309,127810,-1384,888,127381,36,19241,176,1,12799,0.0009999999999998899
1042000,3208,1152,127805,-2823,-214,127690,39,19241,147,1,12800,0.001000000000000112
1043000,2595,2016,128393,817,305,126605,39,19239,160,1,12801,0.0009999999999998899
1044003,2345,1377,127951,171,-252,127615,37,19238,152,1,12802,0.0010030000000000872
1045002,2102,1726,128198,-3943,641,127792,34,19240,139,1,12803,0.0009989999999999721
1046000,1315,2983,128145,-1852,2294,126477,33,19240,135,1,12804,0.0009980000000000544
1047000,464,4492,127871,-815,2934,125683,32,19240,135,1,12805,0.0009999999999998899
1048000,45,2547,127554,-4192,858,126973,34,19242,131,1,12806,0.001000000000000112
1049000,530,2122,127900,-3399,800,127038,34,19240,139,0,12807,0.0009999999999998899
1050000,696,3001,128051,-1455,1738,127193,42,19242,172,0,12808,0.001000000000000112
1051000,1916,3398,128080,-2503,2274,126628,37,19242,152,0,12809,0.0009999999999998899
1052000,973,3158,128353,-3171,1438,126974,36,19243,147,0,12810,0.001000000000000112
1053002,613,910,127557,-1623,-973,127778,37,19243,147,0,12811,0.0010019999999999474
1054001,936,118,127756,-2446,-1080,127634,34,19242,152,0,12812,0.0009989999999999721
1055000,1352,910,127968,-2267,281,127363,34,19241,139,0,12813,0.0009989999999999721
1056000,1735,3822,128554,-1961,2808,125870,32,19239,131,0,12814,0.001000000000000112
1057000,493,3864,128315,-2887,2194,126656,33,19238,135,0,12815,0.0009999999999998899
1058000,713,2234,128013,-2301,915,127798,34,19242,139,0,12816,0.001000000000000112
1059000,656,2245,127696,-1414,951,126990,39,19242,139,0,12817,0.0009999999999998899
1060000,870,2634,127716,-2265,1693,126818,46,19244,160,1,12818,0.001000000000000112
1061000,1733,3318,128144,-2711,1737,126731,46,19241,188,1,12819,0.0009999999999998899
1062001,3491,2138,127710,1021,525,127424,38,19238,156,1,12820,0.0010010000000000296
1063001,1680,1856,128026,-1681,191,127205,38,19243,156,1,12821,0.0009999999999998899
1064000,651,907,128226,-2926,43,127438,34,19245,139,1,12822,0.0009990000000001942
1065000,375,1713,128438,-2334,347,127477,33,19245,139,1,12823,0.0009999999999998899
1066001,1138,1717,128200,-1854,167,127563,33,19246,135,1,12824,0.0010010000000000296
1067000,1052,2507,128144,-3274,1246,126632,33,19243,135,1,12825,0.0009989999999999721
1068000,804,2291,128228,-3149,600,127047,33,19240,135,1,12826,0.001000000000000112
1069000,556,2736,128065,-1162,1589,126899,38,19236,156,1,12827,0.0009999999999998899
1070000,-327,2628,127953,-3608,1282,127178,42,19240,172,0,12828,0.001000000000000112
1071000,916,3565,127693,-3952,1683,127219,34,19240,139,0,12829,0.0009999999999998899
1072000,769,3718,127962,-1715,2119,126309,36,19240,139,0,12830,0.0009999999999998899
1073000,344,2004,127681,-2033,536,126544,32,19241,147,0,12831,0.001000000000000112
1074000,378,1612,127866,-3314,67,126922,32,19241,131,0,12832,0.0009999999999998899
1075000,698,1056,127638,-2750,-469,127505,31,19243,127,0,12833,0.001000000000000112
1076000,1642,2808,128092,-1099,1459,126489,31,19240,127,0,12834,0.0009999999999998899
1077000,1125,3425,128407,-2938,2035,126724,34,19240,139,0,12835,0.001000000000000112
1078003,1097,2381,128205,-2431,1093,127574,37,19239,139,0,12836,0.0010030000000000872
1079000,845,1002,127775,-1133,-524,127641,39,19237,152,1,12837,0.0009969999999999146
1080000,502,1646,127933,-2342,1628,127138,39,19241,160,1,12838,0.0009999999999998899
1081000,2812,3841,128256,-1235,1574,126379,36,19242,147,1,12839,0.001000000000000112
1082001,1013,3476,128032,-2526,1731,126760,37,19238,152,1,12840,0.0010010000000000296
1083002,1366,2755,128026,-900,1045,127010,35,19238,143,1,12841,0.0010010000000000296
1084000,1049,1736,127612,-1777,-30,127368,30,19237,143,1,12842,0.0009979999999998324
1085003,1502,2324,127628,-2344,1725,126599,31,19244,123,1,12843,0.0010030000000000872
1086000,1662,3734,128041,-2534,2855,125631,31,19241,127,1,12844,0.0009969999999999146
1087000,886,3576,128056,-1958,1424,127178,31,19241,127,1,12845,0.001000000000000112
1088000,274,1448,128054,-3158,-251,127477,34,19239,139,1,12846,0.0009999999999998899
1089000,-620,1362,128158,-4429,335,127507,38,19240,156,1,12847,0.001000000000000112
1090000,-700,2645,128327,-3992,1757,127579,47,19240,156,0,12848,0.0009999999999998899
1091000,-500,3775,128313,-2109,2613,126050,35,19241,192,0,12849,0.001000000000000112
1092000,752,3017,128285,-4542,255,127316,35,19240,143,0,12850,0.0009999999999998899
1093001,1558,-318,127737,-1665,-2747,128557,35,19239,143,0,12851,0.0010010000000000296
1094000,498,588,127557,1325,1382,125523,31,19244,127,0,12852,0.0009989999999999721
1095000,1048,3514,128185,-4744,1352,127468,29,19241,119,0,12853,0.001000000000000112
1096000,1319,4021,128222,-3789,4471,126302,31,19241,119,0,12854,0.0009999999999998899
1097000,683,5555,128684,-421,2441,127202,33,19243,127,0,12855,0.001000000000000112
1098000,1101,985,127176,-3088,-492,127807,33,19239,135,0,12856,0.0009999999999998899
1099000,-329,1677,127669,-2387,194,126063,40,19239,164,1,12857,0.001000000000000112
1100000,1594,1336,127676,-1021,23,127109,43,19241,176,1,12858,0.0009999999999998899
1101000,2957,3826,128393,-1367,3671,126288,34,19242,139,1,12859,0.001000000000000112
1102000,2222,4851,128354,-3244,3446,126555,35,19242,139,1,12860,0.0009999999999998899
1103000,487,3915,127981,-1168,1332,126761,32,19242,143,1,12861,0.001000000000000112
1104000,-782,-128,126879,-2285,-1543,127618,32,19242,131,1,12862,0.0009999999999998899
1105000,499,579,127801,-2318,-778,127610,31,19244,127,1,12863,0.001000000000000112
1106000,2460,2516,127676,-3093,1984,126237,32,19241,131,1,12864,0.0009999999999998899
1107000,963,5954,128405,-2579,4754,125171,34,19239,139,1,12865,0.001000000000000112
1108000,-498,3517,128463,-4001,1187,127112,36,19239,139,0,12866,0.0009999999999998899
1109000,1957,-838,126789,-3251,-2965,128330,37,19241,147,0,12867,0.001000000000000112
1110000,-3107,2308,128542,4105,2331,125287,37,19240,152,0,12868,0.0009999999999998899
1111000,5140,-609,126367,-9926,-3288,129615,37,19240,152,0,12869,0.001000000000000112
1112000,635,6001,129504,-2767,7105,123565,36,19240,147,0,12870,0.0009999999999998899
1113000,1309,6956,127868,6698,3744,127435,35,19240,143,0,12871,0.001000000000000112
1114000,-77,718,126460,-12260,-208,126204,31,19240,127,0,12872,0.0009999999999998899
1115000,-4674,1822,129046,-1240,25,126449,33,19239,127,0,12873,0.001000000000000112
1116000,5420,-770,126620,1126,-1724,130217,34,19243,135,0,12874,0.0009999999999998899
1117000,-223,5404,128782,-5298,4944,123143,34,19240,139,0,12875,0.001000000000000112
1118000,3065,5340,129432,-1624,3150,129146,37,19237,152,0,12876,0.0009999999999998899
1119002,1854,-367,127583,592,-1801,125968,45,19237,184,1,12877,0.0010020000000001694
1120000,-2315,-1102,127823,-3809,-2738,128853,45,19237,184,1,12878,0.0009979999999998324
1121000,6315,-420,128998,-1570,-1741,130747,36,19244,184,1,12879,0.001000000000000112
1122000,-532,5413,127659,-1100,4749,123493,35,19239,147,1,12880,0.0009999999999998899
1123000,3230,6708,128803,-4686,5036,128982,35,19240,143,1,12881,0.001000000000000112
1124000,-1256,1270,128191,681,-234,126768,34,19241,139,1,12882,0.0009999999999998899
1125000,-1153,-1539,126488,-2557,-2989,128356,32,19242,131,1,12883,0.001000000000000112
1126000,5349,3495,128607,-6257,2033,126906,34,19242,139,1,12884,0.0009999999999998899
1127000,-261,7584,128843,4572,6546,123396,37,19239,139,1,12885,0.001000000000000112
1128000,3395,4003,127649,-4007,-1063,127765,38,19239,152,0,12886,0.0009999999999998899
1129000,-1923,-1301,127777,-7192,-3987,131276,38,19239,156,0,12887,0.001000000000000112
1130000,47,-1688,127909,2761,-667,126299,38,19239,156,0,12888,0.0009999999999998899
1131000,1298,4214,128025,-3259,4547,125178,37,19239,152,0,12889,0.001000000000000112
1132000,-1160,6246,129624,-4720,3745,127346,35,19240,143,0,12890,0.0009999999999998899
1133001,4259,3161,128015,3749,-607,126607,34,19240,143,0,12891,0.0010010000000000296
1134000,-1394,-843,126989,-4349,-2192,127786,31,19241,139,0,12892,0.0009989999999999721
1135000,1740,-617,127672,-2611,-1056,128681,31,19242,127,0,12893,0.001000000000000112
1136000,3104,3161,127826,672,4532,123860,33,19245,135,0,12894,0.0009999999999998899
1137000,-16,7543,128879,-2021,4492,126891,38,19238,156,1,12895,0.001000000000000112
1138000,2956,1994,128275,-6657,-359,129438,34,19238,139,1,12896,0.0009999999999998899
1139000,-69,1142,127756,3047,25,125670,39,19238,139,1,12897,0.001000000000000112
1140000,-593,1720,127963,-1124,-64,127198,41,19236,160,1,12898,0.0009999999999998899
1141000,2099,814,127385,-7775,602,127275,41,19238,168,1,12899,0.001000000000000112
1142000,1529,4353,128722,2659,3292,126285,37,19238,152,1,12900,0.0009999999999998899
1143000,5360,3457,127748,1068,1419,127013,37,19244,152,1,12901,0.001000000000000112
1144003,-1074,2515,127978,-5583,1002,126036,33,19241,135,1,12902,0.0010029999999998651
1145000,2638,-577,127895,111,-2848,129227,36,19241,135,1,12903,0.0009970000000001367
1146000,1244,1140,127561,-991,1263,126554,36,19243,147,1,12904,0.0009999999999998899
1147002,224,5034,128344,-5596,4683,126139,36,19236,147,1,12905,0.0010019999999999474
1148000,566,6645,128768,-4212,4170,125983,40,19239,164,0,12906,0.0009980000000000544
1149000,-2963,1573,127020,-2007,49,126050,44,19240,180,0,12907,0.001000000000000112
1150000,1371,2578,127622,-3378,607,127729,38,19240,156,0,12908,0.0009999999999998899
1151000,2123,-520,127314,-2315,-1909,128611,40,19240,156,0,12909,0.001000000000000112
1152000,2235,3152,127950,1725,3060,124719,36,19239,164,0,12910,0.0009999999999998899
1153000,2447,4141,128511,-4315,1689,127336,36,19241,147,0,12911,0.001000000000000112
1154000,445,1825,128354,-2628,589,127064,34,19243,139,0,12912,0.0009999999999998899
1155000,1275,745,127694,294,-1490,127935,32,19241,131,0,12913,0.001000000000000112
1156000,129,1511,127774,-4112,1230,127140,35,19238,143,0,12914,0.0009999999999998899
1157000,247,5540,128358,-4360,4081,125659,40,19238,143,0,12915,0.001000000000000112
1158000,1826,4506,127922,-863,3140,126272,38,19244,164,1,12916,0.0009999999999998899
1159000,1732,2899,127368,386,474,127652,38,19243,156,1,12917,0.001000000000000112
1160000,3913,689,127379,-2426,-586,127663,41,19241,168,1,12918,0.0009999999999998899
1161000,2797,2253,128231,858,549,126588,37,19240,152,1,12919,0.001000000000000112
1162000,2451,1301,128009,61,285,127389,36,19244,147,1,12920,0.0009999999999998899
1163005,1699,3078,128498,-3737,1599,127051,33,19244,135,1,12921,0.0010049999999999226
1164000,648,2219,127967,-2652,1017,127548,33,19242,135,1,12922,0.0009950000000000792
1165001,166,3502,127973,-1232,1975,126008,33,19238,135,1,12923,0.0010010000000000296
1166000,-81,1755,127759,-3707,438,127178,33,19237,135,1,12924,0.0009989999999999721
1167000,1363,3163,128105,-3386,1701,126867,36,19240,147,0,12925,0.001000000000000112
1168000,697,3497,128274,-982,2359,126861,43,19241,176,0,12926,0.0009999999999998899
1169000,1950,3581,127962,-3076,1890,126694,36,19241,147,0,12927,0.001000000000000112
1170000,985,2721,128107,-2638,1313,126869,38,19240,147,0,12928,0.0009999999999998899
1171000,233,1131,127625,-1647,-334,127462,36,19236,156,0,12929,0.001000000000000112
1172000,978,-236,127595,-2602,-1598,128146,36,19241,147,0,12930,0.0009999999999998899
1173000,1120,1447,128367,-3189,204,126892,33,19246,135,0,12931,0.001000000000000112
1174000,1372,4211,128647,-1901,2975,126220,33,19241,135,0,12932,0.0009999999999998899
1175000,562,3724,128489,-2442,1499,127237,34,19240,139,0,12933,0.001000000000000112
1176000,788,1424,127958,-2627,-267,128068,38,19240,139,0,12934,0.0009999999999998899
1177000,1289,1899,127655,-1200,1069,126977,40,19238,156,0,12935,0.001000000000000112
1178000,1246,3161,127810,-1506,2442,125991,40,19236,164,1,12936,0.0009999999999998899
1179000,1460,3715,128208,-3445,2071,126657,41,19241,168,1,12937,0.001000000000000112
1180000,3469,2158,128077,-180,319,127357,36,19238,147,1,12938,0.0009999999999998899
1181001,807,1643,128018,-1530,-446,127526,38,19241,156,1,12939,0.0010010000000000296
1182000,1203,859,128316,-3379,-246,127650,35,19241,156,1,12940,0.0009989999999999721
1183001,994,1244,128171,-1929,-119,127625,33,19241,143,1,12941,0.0010010000000000296
1184002,2263,2005,128165,-789,894,127127,33,19244,135,1,12942,0.0010010000000000296
1185000,1315,2633,128198,-2829,1166,126495,31,19239,127,1,12943,0.0009980000000000544
1186000,444,1880,127767,-3028,530,127366,32,19240,131,1,12944,0.0009999999999998899
1187003,442,3099,128019,-1703,1750,126880,36,19242,147,1,12945,0.0010030000000000872
1188000,-956,3166,127967,-3646,1914,126880,41,19242,147,0,12946,0.0009969999999999146
1189000,1264,3929,127812,-4421,2298,126822,37,19241,168,0,12947,0.001000000000000112
1190000,876,2745,127812,-1519,473,126984,37,19237,152,0,12948,0.0009999999999998899
1191001,1267,1287,127519,-1217,-187,126638,35,19240,143,0,12949,0.0010010000000000296
1192003,869,1545,127864,-3243,-284,127422,33,19241,135,0,12950,0.0010019999999999474
1193000,725,1335,127821,-2631,834,127280,29,19241,119,0,12951,0.0009969999999999146
1194001,1723,3744,128292,-1105,2556,126333,29,19241,119,0,12952,0.0010010000000000296
1195000,596,3362,128271,-3071,1667,126759,34,19240,119,0,12953,0.0009989999999999721
1196000,819,2100,128095,-2530,449,127129,34,19243,139,0,12954,0.001000000000000112
1197000,850,693,127713,-1319,-741,127797,38,19239,156,1,12955,0.0009999999999998899
1198000,924,1954,128128,-699,1919,127260,34,19242,139,1,12956,0.001000000000000112
1199000,3343,3769,128393,-2221,2536,126665,35,19243,143,1,12957,0.0009999999999998899
1200000,1099,3269,128109,-1737,1426,126803,36,19243,143,1,12958,0.001000000000000112
1201001,1257,2540,127799,-696,985,126953,32,19246,147,1,12959,0.0010010000000000296
1202000,1203,973,127625,-2357,-311,127658,32,19238,131,1,12960,0.0009989999999999721
1203000,1366,2267,127796,-2515,1249,126770,32,19244,131,1,12961,0.0009999999999998899
1204000,1486,4565,128270,-2387,3555,125597,32,19243,131,1,12962,0.001000000000000112
1205000,316,4118,127929,-2421,2246,126792,33,19240,135,1,12963,0.0009999999999998899
1206000,-35,1784,127787,-3005,169,127472,37,19240,152,1,12964,0.001000000000000112
1207000,-485,892,127913,-3864,-284,127740,42,19238,152,1,12965,0.0009999999999998899
1208000,-147,2332,128336,-3866,1163,127309,41,19243,172,0,12966,0.001000000000000112
1209001,828,3384,128542,-1871,2521,126393,41,19238,168,0,12967,0.0010010000000000296
1210000,920,2464,128084,-3930,648,127082,33,19242,135,0,12968,0.0009989999999999721
1211000,1410,-250,127703,-2683,-1796,128560,34,19241,139,0,12969,0.0009999999999998899
1212000,-141,1365,127908,151,455,126341,34,19241,139,0,12970,0.001000000000000112
1213000,615,3587,128035,-4115,2037,126392,30,19243,139,0,12971,0.0009999999999998899
1214000,1015,5013,128515,-4373,3841,126718,32,19242,123,0,12972,0.001000000000000112
1215000,1127,4681,128227,-876,2902,126832,32,19242,131,0,12973,0.0009999999999998899
1216000,1260,1151,127354,-1746,-181,127817,35,19239,143,0,12974,0.001000000000000112
1217000,-351,1647,127913,-2338,242,126542,41,19240,168,1,12975,0.0009999999999998899
1218000,1449,514,127342,-2832,-897,127408,34,19240,139,1,12976,0.001000000000000112
1219000,2489,4872,129208,-858,4114,125764,36,19242,139,1,12977,0.0009999999999998899
1220001,2082,4807,128073,-3444,3113,126625,34,19243,147,1,12978,0.0010010000000000296
1221000,184,1589,127555,-1462,148,126184,34,19241,139,1,12979,0.0009989999999999721
1222000,-432,652,127583,-45,-759,128890,32,19241,131,1,12980,0.001000000000000112
1223000,2501,-1049,127089,-4690,417,128339,29,19239,119,1,12981,0.0009999999999998899
1224000,1421,6212,128471,-2551,6676,123870,31,19241,127,1,12982,0.001000000000000112
1225000,1913,8078,128717,928,4614,124794,34,19241,127,1,12983,0.0009999999999998899
1226000,-2484,882,127130,-6073,-3512,129049,33,19244,139,0,12984,0.001000000000000112
1227001,260,-2703,127596,-2407,-2661,128791,33,19242,135,0,12985,0.0010010000000000296
1228000,73,1453,127523,-3599,2830,126842,38,19240,156,0,12986,0.0009989999999999721
1229000,1086,7991,128865,677,6816,124524,35,19243,143,0,12987,0.0009999999999998899
1230000,207,4172,128462,-6192,-245,125700,33,19238,135,0,12988,0.001000000000000112
1231000,2931,-908,127273,-2922,-3120,130149,30,19238,135,0,12989,0.0009999999999998899
1232000,1038,-1463,128001,3742,-1273,129064,32,19239,123,0,12990,0.001000000000000112
1233000,913,2885,127849,-3855,3357,124181,32,19242,131,0,12991,0.0009999999999998899
1234000,-914,6074,128221,-9174,4634,125594,34,19240,139,0,12992,0.001000000000000112
1235000,1136,4977,128881,2567,1981,128925,36,19244,147,0,12993,0.0009999999999998899
1236003,427,-183,127038,-1899,-1974,126954,41,19240,168,0,12994,0.0010030000000000872
1237017,-7,2418,127971,-6252,2764,127102,47,19240,168,1,12995,0.0010140000000000704
1238001,1166,3667,128354,-209,1606,125948,36,19234,192,1,12996,0.0009839999999998739
1239000,4911,2212,127490,2301,381,126862,36,19242,147,1,12997,0.0009989999999999721
1240000,3283,-401,128700,-3652,-1819,129562,37,19243,152,1,12998,0.001000000000000112
1241000,1685,1084,128015,-2226,161,127399,36,19240,147,1,12999,0.0009999999999998899
1242000,-1236,3340,128515,-1460,1974,125722,34,19242,139,1,13000,0.001000000000000112
1243000,-12,3493,128538,-2703,2171,128397,32,19242,139,1,13001,0.0009999999999998899
1244000,1053,2186,127680,-6437,188,126832,33,19240,131,1,13002,0.001000000000000112
1245000,353,4186,127832,416,3495,125580,33,19240,135,1,13003,0.0009999999999998899
1246000,719,3187,127956,-1564,900,126605,38,19240,156,0,13004,0.001000000000000112
1247000,1563,1545,126943,-3477,21,127473,36,19241,147,0,13005,0.0009999999999998899
1248000,1518,2846,128134,-1409,1570,126842,39,19240,160,0,13006,0.001000000000000112
1249000,2041,2790,128071,-2461,1320,127050,35,19240,160,0,13007,0.0009999999999998899
1250001,250,2572,128219,-2529,1100,126180,32,19242,143,0,13008,0.0010010000000000296
1251002,831,1323,128058,-2706,-690,127902,34,19242,131,0,13009,0.0010010000000000296
1252002,114,1070,127842,-3205,-34,127245,34,19241,139,0,13010,0.0009999999999998899
1253000,306,2069,127889,-2376,830,126841,34,19236,139,0,13011,0.0009980000000000544
1254000,1895,3720,128408,-1465,3117,126374,37,19243,152,0,13012,0.001000000000000112
1255000,328,3864,128275,-1451,1925,126806,38,19243,156,1,13013,0.0009999999999998899
1256000,3237,363,127623,-3395,-365,128340,38,19240,156,1,13014,0.001000000000000112
1257000,1815,2800,128512,1443,1847,126595,40,19240,156,1,13015,0.0009999999999998899
1258000,1035,3156,127931,-152,1764,126472,40,19238,164,1,13016,0.001000000000000112
1259002,1693,1803,127336,-5798,449,127105,40,19244,164,1,13017,0.0010019999999999474
1260002,1532,2524,128438,-1104,1250,127278,36,19245,147,1,13018,0.0009999999999998899
1261000,2750,2188,127392,1233,579,127056,34,19245,139,1,13019,0.0009980000000000544
1262000,89,2571,128039,-3732,1384,125921,32,19241,139,1,13020,0.001000000000000112
1263000,2307,1099,128322,-2471,-440,128821,34,19242,131,1,13021,0.0009999999999998899
1264001,2393,3545,127975,302,2470,126256,34,19240,139,1,13022,0.0010010000000000296
1265000,314,4182,127989,-2976,2854,126348,40,19239,164,1,13023,0.0009989999999999721
1266000,482,3300,128186,-4763,1949,127021,44,19238,180,0,13024,0.001000000000000112
1267000,-1536,580,127082,-1995,-582,126671,38,19240,156,0,13025,0.0009999999999998899
1268000,1535,3432,127775,-3077,2022,127639,41,19240,156,0,13026,0.001000000000000112
1269000,1158,2050,127739,-3873,713,127111,37,19242,168,0,13027,0.0009999999999998899
1270000,1026,3092,127808,-137,2474,125630,37,19240,152,0,13028,0.001000000000000112
1271000,2152,2337,128013,-1540,-1097,128536,33,19241,135,0,13029,0.0009999999999998899
1272000,2059,912,127940,-2837,977,126822,37,19240,152,0,13030,0.001000000000000112
1273000,2608,2512,127900,319,672,126990,36,19238,147,0,13031,0.0009999999999998899
1274000,750,3924,127867,-1652,3824,125753,39,19238,147,0,13032,0.001000000000000112
1275002,30,5012,128339,-3758,1989,127000,41,19241,160,0,13033,0.0010019999999999474
1276000,358,1930,127760,-974,320,127732,41,19239,168,1,13034,0.0009980000000000544
1277000,2043,1874,127643,-1585,78,127453,35,19240,143,1,13035,0.0009999999999998899
1278000,2992,1753,128166,-2471,1483,126778,39,19241,160,1,13036,0.001000000000000112
1279000,2848,2475,128331,1432,478,126891,38,19241,156,1,13037,0.0009999999999998899
1280000,2513,1194,127841,-945,-88,127579,33,19241,156,1,13038,0.001000000000000112
1281000,1586,2223,128037,-3377,1523,127259,31,19240,135,1,13039,0.0009999999999998899
1282000,1719,2940,127743,-864,2001,126224,31,19240,127,1,13040,0.001000000000000112
1283000,479,3838,127722,-1379,2273,125623,32,19238,131,1,13041,0.0009999999999998899
1284000,455,2654,127901,-4285,875,127477,35,19241,143,1,13042,0.001000000000000112
1285000,370,2642,128195,-2816,1635,126883,39,19242,160,0,13043,0.0009999999999998899
1286000,-124,2953,128198,-1465,1962,127074,34,19242,160,0,13044,0.001000000000000112
1287001,1511,2930,127960,-2479,1871,126862,36,19240,139,0,13045,0.0010009999999998076
1288000,994,2587,128103,-2990,506,126975,36,19242,147,0,13046,0.0009990000000001942
1289000,981,713,127901,-1124,-905,127543,36,19241,147,0,13047,0.0009999999999998899
1290003,1475,571,127753,-2466,-466,127707,35,19241,143,0,13048,0.0010030000000000872
1291002,1431,1973,128375,-2519,1023,126879,32,19239,131,0,13049,0.0009989999999999721
1292002,1044,4079,128368,-2064,3071,126094,33,19239,131,0,13050,0.0009999999999998899
1293000,399,3022,128140,-3178,1244,127322,36,19239,135,0,13051,0.0009980000000000544
1294000,359,1898,127867,-2163,687,127314,36,19238,147,0,13052,0.001000000000000112
1295001,710,2672,127787,-1700,1379,127169,37,19240,152,0,13053,0.0010009999999998076
1296000,1099,3388,127924,-2177,1959,126381,43,19243,176,1,13054,0.0009990000000001942
1297003,2195,2896,128331,-1288,1510,126983,36,19241,147,1,13055,0.0010029999999998651
1298000,3099,1985,128042,112,566,127482,37,19241,152,1,13056,0.0009970000000001367
1299000,1209,1796,128305,-1708,177,127341,34,19236,152,1,13057,0.0009999999999998899
1300000,726,1148,128085,-3153,-142,127265,34,19241,139,1,13058,0.001000000000000112
1301001,652,1088,128151,-1891,-389,127740,34,19241,139,1,13059,0.0010009999999998076
1302001,1416,1483,128039,-2230,181,127531,33,19240,135,1,13060,0.001000000000000112
1303000,1042,3302,128442,-3420,1913,126272,32,19244,131,1,13061,0.0009989999999999721
1304000,727,2593,127905,-2220,1105,127134,34,19244,139,1,13062,0.001000000000000112
1305000,191,3460,128063,-1858,1935,126568,41,19239,139,0,13063,0.0009999999999998899
1306003,-584,2176,127783,-4237,703,127875,36,19244,168,0,13064,0.0010030000000000872
1307000,1663,2444,127905,-3330,1579,127099,36,19240,147,0,13065,0.0009969999999999146
1308000,746,3060,127819,-1173,1487,126303,36,19239,147,0,13066,0.001000000000000112
1309001,733,2413,127811,-3244,1190,126485,33,19242,135,0,13067,0.0010009999999998076
1310003,355,1654,128051,-3203,40,127440,31,19242,127,0,13068,0.0010020000000001694
1311000,295,1393,127824,-1876,43,127402,30,19242,127,0,13069,0.0009969999999999146
1312001,1503,2748,128224,-1738,1377,126794,33,19238,123,0,13070,0.0010010000000000296
1313000,929,2395,128209,-3435,986,126919,33,19240,135,0,13071,0.0009989999999999721
1314000,1481,2150,128259,-1471,715,127481,36,19241,147,0,13072,0.0009999999999998899
1315000,677,1457,128017,-1417,181,127624,39,19240,160,1,13073,0.001000000000000112
1316000,1479,2723,128386,-2200,2003,126585,32,19244,131,1,13074,0.0009999999999998899
1317000,2091,3738,127851,-1579,2525,126540,37,19244,131,1,13075,0.001000000000000112
1318000,1208,2543,127785,-1497,806,126944,36,19240,152,1,13076,0.0009999999999998899
1319000,1291,2069,127637,-1493,582,127145,36,19240,147,1,13077,0.001000000000000112
1320000,1274,1414,127752,-1887,658,127078,32,19243,131,1,13078,0.0009999999999998899
1321000,1514,2960,127989,-1991,2997,126015,30,19242,123,1,13079,0.001000000000000112
1322000,1131,3949,128265,-2689,2999,126544,32,19240,131,1,13080,0.0009999999999998899
1323000,631,3004,127946,-2550,541,127348,34,19240,131,1,13081,0.001000000000000112
1324001,-55,926,127728,-3128,-521,127317,39,19240,139,1,13082,0.0010010000000000296
1325000,-464,1395,127873,-4220,293,127670,39,19239,160,1,13083,0.0009989999999999721
1326000,-190,2898,128316,-3735,2252,126847,42,19237,172,0,13084,0.0009999999999998899
1327000,701,4124,128341,-2474,2651,126009,35,19243,143,0,13085,0.001000000000000112
1328000,1075,2491,127976,-4220,-481,128131,36,19241,147,0,13086,0.0009999999999998899
1329001,1293,-539,127254,-618,-1936,127836,32,19241,147,0,13087,0.0010010000000000296
1330000,581,1566,128172,-897,1520,125688,33,19242,131,0,13088,0.0009989999999999721
1331001,1122,2592,127808,-4274,1167,127802,33,19240,135,0,13089,0.0010010000000000296
1332000,1154,5620,128634,-2266,5513,125126,33,19241,135,0,13090,0.0009989999999999721
1333003,753,4293,127937,-1869,1245,127902,32,19239,131,0,13091,0.0010030000000000872
1334000,395,1462,127569,-3084,29,127169,36,19238,147,0,13092,0.0009969999999999146
1335000,259,1390,127737,-1553,-262,126403,46,19238,147,1,13093,0.001000000000000112
1336000,1503,1428,127378,-613,615,127554,37,19243,188,1,13094,0.0009999999999998899
1337000,3697,4751,128823,-2059,3710,126009,37,19241,152,1,13095,0.001000000000000112
1338000,1429,4945,128372,-1978,3619,126369,34,19240,139,1,13096,0.0009999999999998899
1339000,231,2790,127876,-1554,-167,127479,32,19246,131,1,13097,0.001000000000000112
1340000,-855,26,127181,-2554,-966,127632,28,19241,115,1,13098,0.0009999999999998899
1341003,929,746,127840,-3019,-548,127865,31,19241,127,1,13099,0.0010030000000000872
1342001,1968,3823,128023,-2690,3742,125338,34,19245,127,1,13100,0.0009980000000000544
1343000,729,5961,128687,-2884,3932,125850,36,19240,139,0,13101,0.0009989999999999721
1344000,1593,1022,127732,-4150,-1703,128304,36,19241,147,0,13102,0.0009999999999998899
1345000,-2135,763,127994,3493,658,125592,37,19241,152,0,13103,0.001000000000000112
1346000,2685,539,127374,-7276,-2845,130549,37,19242,152,0,13104,0.0009999999999998899
1347002,804,1536,128241,-5417,3321,124959,35,19242,143,0,13105,0.0010020000000001694
1348002,1213,10618,128885,3539,8258,125185,34,19240,143,0,13106,0.0009999999999998899
1349002,650,1798,127049,-5400,-93,127043,32,19243,139,0,13107,0.001000000000000112
1350000,-3392,1045,127436,-5412,-606,125630,32,19242,131,0,13108,0.0009979999999998324
1351000,3330,-1164,127670,912,-2552,129696,32,19241,131,0,13109,0.001000000000000112
1352000,997,3462,127743,-1906,3262,125755,36,19242,147,0,13110,0.0009999999999998899
1353000,2983,6888,129653,-3835,5341,126259,38,19242,156,0,13111,0.001000000000000112
1354000,1812,854,128102,161,-921,127732,44,19242,156,0,13112,0.0009999999999998899
1355000,-1149,-987,127344,-2625,-2437,127782,53,19238,180,1,13113,0.001000000000000112
1356001,2105,-1672,128773,-3433,-3007,130022,53,19240,217,1,13114,0.0010010000000000296
1357000,1100,4009,127671,-39,3210,125891,36,19240,147,1,13115,0.0009989999999999721
1358000,3277,7925,128672,-5621,6400,124192,35,19242,143,1,13116,0.0009999999999998899
1359000,43,3211,128377,577,1621,128422,33,19244,135,1,13117,0.001000000000000112
1360000,-1556,-1081,126853,15,-2783,128012,32,19244,135,1,13118,0.0009999999999998899
1361000,2997,461,127550,-5974,-872,128291,34,19242,131,1,13119,0.001000000000000112
1362000,2600,5485,128962,65,4250,124460,34,19240,139,1,13120,0.0009999999999998899
1363000,2602,7099,128315,2632,5938,125027,35,19242,143,1,13121,0.001000000000000112
1364000,-284,214,127593,-9007,-3623,130036,41,19243,168,0,13122,0.0009999999999998899
1365000,-737,-2252,127880,-2856,-3146,129063,36,19239,147,0,13123,0.001000000000000112
1366000,1113,403,127398,3498,2846,125102,38,19239,147,0,13124,0.0009999999999998899
1367000,-855,7012,128734,-9005,5528,126030,35,19235,156,0,13125,0.001000000000000112
1368000,3304,5195,129047,-4773,1569,127113,35,19237,143,0,13126,0.0009999999999998899
1369000,433,431,126973,4856,-1954,126446,32,19239,131,0,13127,0.001000000000000112
1370000,740,-1129,127472,-6347,-2416,129378,31,19240,127,0,13128,0.0009999999999998899
1371000,2124,444,127663,-1220,1042,126298,35,19240,143,0,13129,0.001000000000000112
1372000,1746,5921,128103,2315,6262,124186,37,19240,143,0,13130,0.0009999999999998899
1373000,620,5986,129072,-8184,1593,129101,35,19236,152,1,13131,0.001000000000000112
1374000,2121,-48,127682,-3223,-1451,127247,35,19240,143,1,13132,0.0009999999999998899
1375000,-263,1674,128057,4509,733,126342,41,19240,168,1,13133,0.001000000000000112
1376000,1657,1327,127506,-5688,-89,127565,40,19239,164,1,13134,0.0009999999999998899
1377000,2150,3278,127991,-4533,3074,126145,37,19240,152,1,13135,0.001000000000000112
1378000,3842,4255,128517,4622,1970,127448,35,19240,152,1,13136,0.0009999999999998899
1379000,2129,2443,127499,-2229,1556,126026,35,19242,143,1,13137,0.001000000000000112
1380000,-531,1301,128318,-5513,-1441,127789,35,19242,143,1,13138,0.0009999999999998899
1381000,2072,-1176,127609,1610,-1288,128309,34,19240,139,1,13139,0.001000000000000112
1382000,683,3217,128014,-3285,3014,126280,35,19238,143,1,13140,0.0009999999999998899
1383000,1076,6127,128942,-6171,5369,126088,38,19239,156,1,13141,0.001000000000000112
1384000,-677,4808,128018,-1917,1932,126193,44,19239,156,0,13142,0.0009999999999998899
1385000,-1379,1196,127029,-1850,318,126414,41,19242,180,0,13143,0.001000000000000112
1386000,2082,1421,127897,-3441,-752,128843,41,19240,168,0,13144,0.0009999999999998899
1387000,2657,569,127498,-656,341,126858,38,19236,156,0,13145,0.001000000000000112
1388001,1888,5082,128409,857,3565,125324,37,19240,152,0,13146,0.0010010000000000296
1389001,1557,2321,128456,-5858,314,128118,35,19243,143,0,13147,0.0009999999999998899
1390002,301,1530,128086,-1848,1,127215,32,19243,131,0,13148,0.0010010000000000296
1391000,1120,403,127676,-201,-747,127842,36,19242,131,0,13149,0.0009980000000000544
1392001,160,3656,128024,-4165,2880,126410,40,19243,147,0,13150,0.0010010000000000296
1393000,986,4602,128007,-3200,3066,126078,40,19238,164,1,13151,0.0009989999999999721
1394000,1513,4337,127931,-1242,2893,126305,46,19243,188,1,13152,0.0009999999999998899
1395000,3056,1315,127929,-341,-275,128036,36,19238,147,1,13153,0.001000000000000112
1396000,3120,899,128041,-1094,-40,127226,39,19238,160,1,13154,0.0009999999999998899
1397000,1898,2160,127963,-857,724,126732,37,19240,160,1,13155,0.001000000000000112
1398000,2164,2803,128242,-987,1257,127024,35,19239,152,1,13156,0.0009999999999998899
1399000,722,2330,127973,-2959,1017,127310,35,19240,143,1,13157,0.001000000000000112
1400000,758,2106,127670,-2658,913,126886,33,19241,135,1,13158,0.0009999999999998899
1401000,204,3169,128131,-1893,1835,126342,33,19240,135,1,13159,0.001000000000000112
1402000,537,2240,127660,-2790,836,126836,35,19240,143,1,13160,0.0009999999999998899
1403000,1143,3323,128099,-2740,2199,126903,39,19240,143,0,13161,0.001000000000000112
1404000,455,3756,128096,-2434,2536,126872,37,19242,160,0,13162,0.0009999999999998899
1405000,1587,3260,127905,-1855,1805,126698,37,19243,152,0,13163,0.001000000000000112
1406000,365,1449,127722,-3186,-12,126973,39,19240,160,0,13164,0.0009999999999998899
1407001,575,415,127675,-1878,-899,127262,38,19246,156,0,13165,0.0010010000000000296
1408000,639,1392,127870,-2875,173,127251,34,19239,139,0,13166,0.0009989999999999721
1409000,1337,2705,128389,-3026,1317,126753,32,19239,139,0,13167,0.001000000000000112
1410000,958,3989,128414,-1839,2736,126294,32,19241,131,0,13168,0.0009999999999998899
1411003,911,2617,127911,-2322,1324,127408,32,19236,131,0,13169,0.0010030000000000872
1412000,999,1261,127935,-1834,8,127606,36,19240,147,0,13170,0.0009969999999999146
1413002,1604,1640,127565,-1363,1563,126725,41,19240,168,0,13171,0.0010019999999999474
1414002,1187,4023,128284,-2022,3233,126217,47,19236,192,1,13172,0.001000000000000112
1415000,2457,3810,128617,-2112,1065,127336,37,19236,192,1,13173,0.0009980000000000544
1416000,2072,1684,127824,-612,-228,127480,37,19244,152,1,13174,0.0009999999999998899
1417000,1117,385,128024,-1625,-1233,128009,37,19242,152,1,13175,0.001000000000000112
1418000,950,1241,128316,-2629,621,127106,37,19240,152,1,13176,0.0009999999999998899
1419000,1155,1821,128262,-1774,292,127663,33,19241,135,1,13177,0.001000000000000112
1420000,2054,2109,128184,-1953,1502,126518,33,19240,135,1,13178,0.0009999999999998899
1421000,790,3488,128205,-2840,1596,126766,32,19240,135,1,13179,0.001000000000000112
1422000,694,1831,127719,-2672,658,127209,36,19240,131,1,13180,0.0009999999999998899
1423000,272,2241,127796,-2230,650,127107,36,19241,147,0,13181,0.001000000000000112
1424000,-215,2126,127917,-4343,1064,127313,42,19245,172,0,13182,0.0009999999999998899
1425000,1657,3411,128467,-1927,2849,126289,35,19240,143,0,13183,0.001000000000000112
