t_us,ax,ay,az,ax1,ay1,az1,shunt_raw,bus_raw,curr_raw,pg_rpm,seq,dt
0,5250,3868,128457,-3311,5692,120598,119,19232,487,0,25003,
1000,3725,8612,124842,-9810,5276,124052,125,19225,512,0,25004,0.001
2000,8073,4877,127931,-3960,5224,125686,152,19235,623,1,25005,0.001
3001,11306,4149,127173,5196,-376,125322,102,19235,418,1,25006,0.0010009999999999997
4000,10852,-4129,128265,5442,-4419,130760,112,19235,418,1,25007,0.0009990000000000003
5000,4482,-1342,128764,-7290,-3703,126112,117,19231,459,1,25008,0.001
6000,7005,-9325,126405,-3663,-9375,132809,117,19229,479,1,25009,0.001
7001,3133,9810,130256,992,9825,121970,144,19226,590,0,25010,0.0010009999999999993
8000,8551,6403,127631,-4986,5701,124882,113,19233,463,0,25011,0.0009990000000000008
9000,5141,3936,126309,-5352,3284,123612,124,19233,508,0,25012,0.0009999999999999992
10000,9403,-3779,128471,168,-4874,129908,122,19229,508,0,25013,0.0010000000000000009
11001,10270,-4059,126558,1558,-4476,128005,141,19229,500,0,25014,0.0010010000000000002
12000,3628,3014,130661,-1073,1592,126296,141,19221,577,1,25015,0.0009989999999999999
13000,4607,-7729,127234,-8936,-8479,132373,156,19238,639,1,25016,0.0009999999999999992
14000,8037,8743,128425,1254,7836,122951,109,19231,446,1,25017,0.0009999999999999992
15000,8247,1545,128023,-3871,652,128797,111,19231,455,1,25018,0.0010000000000000009
16002,9745,1206,125348,830,339,120028,125,19228,455,1,25019,0.0010019999999999994
17000,6681,-5135,128053,3129,-6591,133579,142,19225,512,0,25020,0.0009979999999999989
18000,9886,4270,128435,-3757,2203,124350,142,19234,582,0,25021,0.0010000000000000009
19000,9045,2388,128537,262,2107,126714,118,19231,483,0,25022,0.0010000000000000009
20000,8934,-2952,128225,3140,-3799,129811,121,19225,496,0,25023,0.0010000000000000009
21000,9498,-2984,126327,-2338,-3610,128913,132,19223,541,0,25024,0.0009999999999999974
22000,4933,-1151,129276,-2458,-2530,125998,159,19223,541,1,25025,0.0010000000000000009
23000,10115,2781,129049,-1287,3563,127096,109,19236,651,1,25026,0.0010000000000000009
24001,7900,-2746,128555,1986,-2752,129365,109,19228,446,1,25027,0.0010009999999999984
25002,8250,2994,127844,-2618,1509,123976,112,19229,459,1,25028,0.0010010000000000019
26000,11859,-2776,125949,1036,-4773,129621,117,19231,479,1,25029,0.0009979999999999989
27000,6971,273,128000,4658,2404,124902,149,19227,610,0,25030,0.0010000000000000009
28000,8212,-1561,129137,-9862,-4302,129169,115,19227,610,0,25031,0.0009999999999999974
29000,9553,-472,128148,1128,2158,126139,115,19231,471,0,25032,0.0010000000000000009
30001,5437,1384,129130,947,-4104,129832,115,19231,471,0,25033,0.0010010000000000019
31002,10251,-4309,126284,-10996,-3470,126427,117,19228,479,0,25034,0.0010009999999999984
32000,11642,7013,129344,7221,6388,126235,142,19230,582,1,25035,0.0009980000000000024
33000,16501,-1038,126569,10428,-892,130366,100,19235,410,1,25036,0.0010000000000000009
34001,10546,1675,127506,-6331,1540,121164,110,19235,410,1,25037,0.001000999999999995
35000,7149,-4203,127859,1483,-7696,133401,112,19234,451,1,25038,0.0009989999999999999
36001,9028,-1604,126696,2339,2424,125410,112,19230,459,1,25039,0.0010010000000000019
37000,6974,8770,129990,-3711,6737,124869,130,19227,532,0,25040,0.0009989999999999999
38000,11438,-1260,128374,1046,-2492,128141,104,19232,426,0,25041,0.0010000000000000009
39000,9303,-772,126912,608,-2378,125917,119,19228,487,0,25042,0.0010000000000000009
40000,10728,-5335,128060,1997,-5644,131850,117,19228,487,0,25043,0.0010000000000000009
41000,10826,495,127056,2220,2083,124071,134,19229,479,0,25044,0.000999999999999994
42002,6091,5652,128806,-4118,4196,126594,134,19226,549,1,25045,0.0010020000000000029
43002,9450,3222,128118,-1009,2553,125524,115,19234,471,1,25046,0.0010000000000000009
44000,8526,-943,126738,4633,-3000,128330,104,19234,426,1,25047,0.0009979999999999989
45000,9766,-2461,127338,-1693,-2281,128283,108,19231,442,1,25048,0.0010000000000000009
46001,11282,1739,126449,1013,1469,123545,118,19231,442,1,25049,0.0010010000000000019
47000,9143,3704,128432,2329,2657,127911,128,19224,483,0,25050,0.0009989999999999999
48001,11321,4671,126887,1729,2256,125085,128,19232,524,0,25051,0.001000999999999995
49000,8648,3221,127178,-4181,467,126930,116,19232,475,0,25052,0.0009989999999999999
50000,8722,2555,128286,1507,2111,126815,116,19231,475,0,25053,0.0010000000000000009
51000,7368,805,127233,1275,-130,125100,124,19228,508,0,25054,0.0010000000000000009
52001,5808,874,128702,-6496,136,127528,161,19228,659,1,25055,0.0010010000000000019
53000,6384,689,128617,-683,942,128074,105,19233,659,1,25056,0.0009989999999999999
54000,10112,-1454,126059,-727,-2452,128476,107,19232,430,1,25057,0.0010000000000000009
55000,9197,9135,128005,2644,10243,116067,107,19231,438,1,25058,0.0010000000000000009
56000,11823,7311,126415,1917,4192,130545,115,19229,471,1,25059,0.000999999999999994
57001,4087,-13670,125114,-2758,-13754,131773,148,19230,606,0,25060,0.0010010000000000019
58000,8635,10065,130712,-13443,10331,119954,110,19230,451,0,25061,0.0009989999999999999
59000,9389,-445,128430,12988,-1748,131627,114,19233,451,0,25062,0.0010000000000000009
60000,2038,-1862,128050,-1962,-2778,126406,120,19231,467,0,25063,0.0010000000000000009
61000,10257,-5527,125847,-11691,-6250,130256,120,19226,491,0,25064,0.0010000000000000009
62000,2440,19046,128667,2591,18014,114684,150,19223,614,1,25065,0.0010000000000000009
63000,17912,4369,128275,-1909,3499,128153,100,19237,410,1,25066,0.0010000000000000009
64002,5607,-9834,126180,6930,-11303,131187,109,19237,446,1,25067,0.0010020000000000029
65000,6543,-1727,129254,-5874,-2089,127821,114,19232,446,1,25068,0.0009979999999999989
66000,7411,6241,128777,-4868,5872,125711,139,19228,467,1,25069,0.0010000000000000009
67000,2767,1083,128690,6747,-96,128666,139,19219,569,0,25070,0.000999999999999987
68000,11338,2600,128379,-8759,2188,119593,100,19234,410,0,25071,0.0010000000000000009
69002,2493,10900,127481,-3296,10225,126431,127,19228,520,0,25072,0.0010020000000000029
70000,11384,-6567,126659,-4155,-6772,130861,124,19227,508,0,25073,0.0009979999999999989
71000,5680,-2529,127581,7990,-3645,126899,140,19227,508,0,25074,0.0010000000000000009
72000,6044,562,128934,-7602,-1235,127078,171,19225,573,1,25075,0.0010000000000000009
73000,5270,4839,129150,-8706,459,125257,171,19230,700,1,25076,0.0010000000000000009
74000,9512,-7316,127145,6461,-9523,134527,105,19232,430,1,25077,0.0010000000000000009
75000,11325,2517,127263,-3357,9300,116408,111,19232,455,1,25078,0.0010000000000000009
76006,4346,7116,127548,-2623,-1341,128022,127,19230,520,1,25079,0.001005999999999993
77001,9692,-6079,127336,-5729,-4327,130678,154,19230,520,0,25080,0.0009950000000000098
78000,7544,2568,128094,6209,974,127790,117,19235,631,0,25081,0.0009989999999999999
79000,9955,1406,128213,-4705,3053,124958,117,19231,479,0,25082,0.0010000000000000009
80003,7749,4073,128002,1484,-1977,124333,116,19229,475,0,25083,0.00100299999999999
81000,9242,-13836,126393,-1499,-14550,137205,126,19223,516,0,25084,0.0009970000000000118
82000,10137,1495,128646,-545,6598,120171,166,19240,680,1,25085,0.000999999999999987
83000,7051,10277,129839,-713,2537,125551,113,19240,680,1,25086,0.0010000000000000009
84000,9679,-1115,128661,-8402,-4207,129426,113,19229,463,1,25087,0.0010000000000000009
85000,5402,-7288,126340,5663,-8991,132200,113,19227,463,1,25088,0.0010000000000000009
86000,10217,-1187,128381,735,2307,125550,113,19227,463,1,25089,0.0010000000000000009
87000,7610,7289,126954,-170,4603,121183,140,19229,573,0,25090,0.0010000000000000009
88000,9588,-5334,128196,-3290,-5836,131244,109,19231,446,0,25091,0.0010000000000000009
89000,13637,-171,128212,3617,1179,126259,119,19231,446,0,25092,0.0010000000000000009
90000,7785,1066,128466,4387,-748,127715,121,19231,487,0,25093,0.0010000000000000009
91000,9976,-638,127243,-3860,-2611,127307,121,19225,496,0,25094,0.0010000000000000009
92000,5179,-5884,128009,-711,-6271,130834,142,19225,582,1,25095,0.0010000000000000009
93000,14866,3224,128452,4219,4737,126322,97,19233,397,1,25096,0.0010000000000000009
94000,10101,3563,127120,2907,1172,123823,110,19231,451,1,25097,0.0010000000000000009
95000,8809,-59,126885,-3326,-670,126585,112,19231,451,1,25098,0.0010000000000000009
96000,11569,-1695,127659,2629,-2374,127513,132,19235,459,1,25099,0.0010000000000000009
97000,7762,2357,128486,3306,2964,127163,132,19225,541,0,25100,0.000999999999999987
98002,11070,1248,129398,-2786,-1430,127843,97,19232,397,0,25101,0.0010020000000000029
99000,6498,-7094,126880,-2821,-7494,128890,116,19230,475,0,25102,0.0009979999999999989
100000,11222,-1099,129348,4154,-3058,127240,115,19226,471,0,25103,0.0010000000000000009
101000,8247,681,126364,3393,-659,127888,128,19226,524,0,25104,0.0010000000000000009
102000,7721,2838,127087,-7287,2672,124821,130,19231,524,1,25105,0.0010000000000000009
103000,10124,4177,127450,1980,3329,125250,104,19239,532,1,25106,0.0010000000000000009
104002,11389,3489,127061,3243,2507,126214,104,19232,426,1,25107,0.0010020000000000029
105000,9903,-2644,127382,2003,-3955,128960,105,19239,430,1,25108,0.0009979999999999989
106000,7582,-4975,126298,-1717,-6005,128329,117,19227,479,1,25109,0.0010000000000000009
107000,8265,6573,127998,-1328,5378,124059,132,19227,541,0,25110,0.0010000000000000009
108000,9678,5258,127881,2955,4878,126545,114,19232,541,0,25111,0.0010000000000000009
109000,9013,1303,126797,-4625,534,125984,117,19230,467,0,25112,0.0010000000000000009
110000,7423,323,128084,59,-566,126057,117,19228,479,0,25113,0.0010000000000000009
111000,9379,217,127634,958,-163,126713,125,19227,512,0,25114,0.0010000000000000009
112000,6004,-1109,127795,-290,-1652,128010,159,19239,651,1,25115,0.000999999999999987
113000,5957,757,127077,-3108,-126,125499,100,19236,410,1,25116,0.0010000000000000009
114002,11242,10222,127371,-7422,9867,123765,106,19236,410,1,25117,0.0010020000000000029
115002,9967,56,126573,10312,-1070,123883,115,19229,434,1,25118,0.0010000000000000009
116000,7904,4400,126269,3207,3502,126800,115,19228,471,1,25119,0.0009979999999999989
117000,9233,-10222,127268,-13977,-10618,130156,148,19228,606,0,25120,0.0010000000000000009
118000,7835,1557,128809,3455,634,126879,113,19233,463,0,25121,0.0010000000000000009
119000,7865,-3200,125359,5987,-4558,127085,117,19232,479,0,25122,0.0010000000000000009
120000,1969,9533,127656,-8293,8390,121496,120,19232,479,0,25123,0.0010000000000000009
121000,6691,469,125571,-6194,-1600,128301,141,19229,491,0,25124,0.0010000000000000009
122000,6511,6771,127818,1119,7696,123037,141,19224,577,1,25125,0.0010000000000000009
123000,14627,3371,128587,-1798,-1673,127227,91,19235,373,1,25126,0.0010000000000000009
124000,8300,-3296,128656,5025,-6485,130335,113,19233,463,1,25127,0.0010000000000000009
125000,6010,-9979,126989,-4710,-11533,133153,116,19229,475,1,25128,0.0010000000000000009
126000,5562,803,129140,-5902,6997,122258,135,19229,475,1,25129,0.0010000000000000009
127000,2710,12919,128393,-1230,8695,126520,117,19222,553,0,25130,0.0010000000000000009
128000,8872,1537,127150,-6539,766,123128,117,19232,479,0,25131,0.0010000000000000009
129000,6627,3028,125802,-3797,-744,127585,124,19227,508,0,25132,0.0010000000000000009
130000,10461,-6530,126636,4570,-6012,129652,124,19229,508,0,25133,0.0010000000000000009
131000,7215,2301,128115,1677,1578,124944,138,19223,565,0,25134,0.0010000000000000009
132000,5757,-5804,128861,-11481,-6577,134060,183,19223,565,1,25135,0.0010000000000000009
133000,5485,4136,128007,-1363,8916,121854,107,19236,750,1,25136,0.0010000000000000009
134000,9459,430,127679,-1325,-507,130902,107,19227,438,1,25137,0.0009999999999999731
135001,10094,-1811,126046,-588,-898,122474,111,19224,455,1,25138,0.0010010000000000019
136000,6727,-302,126536,964,-3106,128231,122,19224,500,1,25139,0.0009989999999999999
137000,7578,-1424,128515,-4646,491,129165,161,19235,659,0,25140,0.0010000000000000009
138001,10219,6831,128993,2025,4693,123429,119,19235,659,0,25141,0.0010010000000000019
139001,8372,-5376,127103,-1836,-7133,133964,118,19229,487,0,25142,0.0010000000000000009
140001,8042,846,127770,-777,743,121266,118,19240,483,0,25143,0.0010000000000000009
141000,8200,-4907,127019,2822,-6525,132042,126,19218,516,1,25144,0.0009989999999999999
142000,7733,151,128757,-6550,965,124792,160,19235,655,1,25145,0.0010000000000000009
143000,10548,2933,127897,827,-9,126674,109,19237,446,1,25146,0.0010000000000000009
144000,7293,-184,127541,-666,-328,129127,113,19237,463,1,25147,0.0010000000000000009
145000,8044,-12,126312,-22,-2376,125880,116,19234,463,1,25148,0.0010000000000000009
146000,8168,-5686,126535,1549,-5745,130980,143,19231,475,1,25149,0.0010000000000000009
147000,10143,5096,128084,-2725,5204,121999,143,19225,586,0,25150,0.0010000000000000009
148000,11064,234,128177,1324,-515,126452,100,19232,410,0,25151,0.0010000000000000009
149000,9423,1682,128604,2221,387,128577,118,19229,483,0,25152,0.0010000000000000009
150000,7673,-4650,128126,-2125,-5355,131621,117,19229,479,0,25153,0.0010000000000000009
151000,10097,-1740,126423,-631,-2122,127218,137,19228,479,1,25154,0.0010000000000000009
152000,7524,4250,129122,3792,2938,125337,97,19225,561,1,25155,0.0010000000000000009
153000,13030,-1809,128068,525,-560,127079,97,19236,397,1,25156,0.0010000000000000009
154002,9909,3168,128467,-4347,2580,125533,112,19231,459,1,25157,0.0010020000000000029
155000,9658,-3401,126765,5987,-4576,129221,113,19230,463,1,25158,0.0009979999999999989
156003,8020,1463,127398,3743,687,125555,127,19230,520,0,25159,0.0010030000000000039
157000,6765,-929,128665,-5842,-1345,129118,106,19223,520,0,25160,0.0009969999999999979
158000,12999,1102,126668,-1617,-507,126668,119,19235,434,0,25161,0.0010000000000000009
159000,9967,2629,128248,6018,2300,126542,119,19232,487,0,25162,0.0010000000000000009
160000,10761,-247,127039,-1467,-719,125767,116,19232,475,0,25163,0.0010000000000000009
161002,7411,-2447,126843,-895,-3245,127738,126,19229,516,0,25164,0.0010020000000000029
162000,6258,1364,128057,35,-421,128824,143,19238,586,1,25165,0.0009979999999999989
163000,11362,4078,127399,-19,3796,124112,102,19238,586,1,25166,0.0010000000000000009
164000,8788,4007,127285,-504,3006,126098,101,19238,418,1,25167,0.0009999999999999731
165000,12386,-1289,126649,1585,-1237,128011,101,19239,414,1,25168,0.0010000000000000009
166001,10197,-945,126511,3273,-2088,124482,114,19228,467,0,25169,0.0010010000000000019
167000,7896,7416,130181,-1165,-1724,126071,148,19232,606,0,25170,0.0009989999999999999
168000,8455,-2061,127289,-1167,1041,127548,114,19230,467,0,25171,0.0010000000000000009
169000,7361,5935,129378,-4028,5464,124211,115,19230,467,0,25172,0.0010000000000000009
170000,8035,-873,126570,3669,-4062,129263,120,19237,471,0,25173,0.0010000000000000009
171000,7857,-1882,126351,-2271,709,124715,120,19229,491,0,25174,0.0010000000000000009
172000,6419,3901,128839,-3725,4040,126854,156,19225,639,1,25175,0.0010000000000000009
173000,10122,3314,126912,-1022,89,126889,102,19241,418,1,25176,0.0010000000000000009
174000,8356,-1319,124725,2883,1356,121283,112,19228,459,1,25177,0.0010000000000000009
175000,8837,10583,129930,1925,6902,129316,113,19228,459,1,25178,0.0010000000000000009
176000,9108,-10669,123621,-1660,-13665,131594,139,19227,463,1,25179,0.0010000000000000009
177000,3001,8473,131469,-16356,13565,119040,139,19227,569,0,25180,0.0010000000000000009
178000,16660,4703,127596,10865,-1902,130547,108,19232,442,0,25181,0.0010000000000000009
179000,350,-3093,126652,4846,-4186,128608,117,19231,479,0,25182,0.0010000000000000009
180000,6900,-7554,125652,-18477,-8711,130526,118,19230,483,0,25183,0.0010000000000000009
181000,6022,8829,126372,7008,14668,116967,141,19230,483,1,25184,0.0010000000000000009
182000,7858,16488,129129,-6219,9728,126692,97,19222,577,1,25185,0.0010000000000000009
183000,13247,-9273,127131,2177,-11417,129136,97,19235,397,1,25186,0.0010000000000000009
184000,2498,-3830,126506,-2091,-6347,128807,114,19235,467,1,25187,0.0010000000000000009
185000,11770,252,129647,-6334,1594,127823,113,19228,463,1,25188,0.0010000000000000009
186002,2805,5269,127650,5625,2096,123509,134,19224,549,0,25189,0.0010020000000000029
187005,8741,-3750,127794,-7337,-2937,133130,135,19224,553,0,25190,0.0010030000000000039
188002,3594,11169,126854,-5920,10352,117703,125,19234,553,0,25191,0.0009969999999999979
189000,7521,-922,126574,-5829,-4328,130982,123,19230,512,0,25192,0.0009979999999999989
190002,11109,-3316,126754,7357,-1871,126412,123,19231,504,0,25193,0.0010020000000000029
191002,4134,1031,127616,-852,-1636,127692,133,19222,545,0,25194,0.0010000000000000009
192000,9335,-574,128059,-14187,571,127348,173,19237,709,1,25195,0.0009979999999999989
193000,6367,566,128292,7746,-2438,128356,106,19237,434,1,25196,0.0010000000000000009
194000,12079,-7649,126455,-1316,-6239,130936,110,19229,434,1,25197,0.0009999999999999731
195000,5401,13549,129029,-1879,11988,115786,121,19236,451,1,25198,0.0010000000000000009
196000,7783,-7358,125301,-3980,-9557,134669,121,19230,496,0,25199,0.0010000000000000009
197000,7693,1093,129056,-580,1102,125924,156,19232,639,0,25200,0.0010000000000000009
198001,8393,428,128465,2625,671,128673,115,19230,471,0,25201,0.0010010000000000019
199000,10039,4632,128088,-4793,4074,122571,119,19230,487,0,25202,0.0009989999999999999
200003,5765,-7107,127247,2083,-9274,131056,123,19232,487,0,25203,0.0010030000000000039
201000,12177,-8378,128033,-2349,-8743,132604,157,19228,504,1,25204,0.0009969999999999979
202000,5198,13280,129652,3608,12357,119450,157,19232,643,1,25205,0.0010000000000000009
203000,10056,423,127393,-5293,-1197,128035,106,19232,434,1,25206,0.0010000000000000009
204000,7171,-3148,127150,-4696,-4154,128182,114,19232,467,1,25207,0.0010000000000000009
205000,7842,-4589,127738,6002,-5360,133189,112,19228,459,1,25208,0.0010000000000000009
206000,10151,6165,127472,9,5196,120031,136,19228,459,1,25209,0.0010000000000000009
207000,6529,-1971,127963,-2354,-2294,127907,102,19228,557,0,25210,0.0010000000000000009
208001,14931,-4174,126946,-2101,-5695,130511,102,19233,418,0,25211,0.0010010000000000019
209000,8972,5405,128098,7200,4337,124148,119,19237,487,0,25212,0.0009989999999999999
210000,10128,-764,127299,-2032,-1788,127346,119,19234,487,0,25213,0.0010000000000000009
211000,7162,-4330,127091,-829,-5083,129825,134,19224,549,1,25214,0.0010000000000000009
212000,7846,-2035,128877,-493,-3664,128657,87,19224,549,1,25215,0.0010000000000000009
213000,13462,5979,128846,3737,5945,121679,110,19230,356,1,25216,0.0010000000000000009
214000,6901,448,127182,1037,-2566,128341,110,19231,451,1,25217,0.0010000000000000009
215000,13838,-2768,127098,-2346,-1666,126230,110,19233,451,1,25218,0.0010000000000000009
216000,7937,544,127091,6860,1723,127502,127,19228,520,0,25219,0.0010000000000000009
217000,8704,1864,129470,-1535,1726,127737,121,19231,496,0,25220,0.0010000000000000009
218000,7222,-4392,126736,-2122,-5531,127852,116,19231,496,0,25221,0.0010000000000000009
219000,8026,1530,129068,1100,648,128295,114,19230,475,0,25222,0.0010000000000000009
220000,11747,-1220,126812,4617,-3009,127349,114,19232,467,0,25223,0.0010000000000000009
221000,7750,-262,126310,-4725,527,126182,122,19226,500,1,25224,0.0010000000000000009
222000,9154,3840,128023,-130,2963,124475,161,19239,659,1,25225,0.0010000000000000009
223000,11118,6550,126120,3168,6124,124519,103,19232,422,1,25226,0.0010000000000000009
224000,11328,1091,127701,756,-3143,129632,104,19232,422,1,25227,0.0009999999999999731
225000,7594,-6131,125861,894,-6205,128033,112,19230,426,1,25228,0.0010000000000000009
226000,9528,2420,128113,-1091,1871,125887,112,19229,459,0,25229,0.0010000000000000009
227000,7450,5002,128507,2030,3912,126184,144,19235,590,0,25230,0.0010000000000000009
228000,10538,2881,128220,-1456,1167,126039,114,19232,467,0,25231,0.0010000000000000009
229000,7213,1809,127246,-2419,1366,125608,117,19229,479,0,25232,0.0010000000000000009
230000,9607,2438,127688,1270,800,125853,121,19229,479,0,25233,0.0010000000000000009
231000,8304,-4110,125634,3380,-5531,129059,152,19230,496,1,25234,0.0010000000000000009
232001,2993,3665,128659,-9761,4548,124049,152,19227,623,1,25235,0.0010010000000000019
233000,11030,4624,126296,-2074,2239,127616,97,19230,397,1,25236,0.0009989999999999999
234000,7845,10,125799,2954,1773,125724,105,19232,430,1,25237,0.0010000000000000009
235002,8909,4474,129034,4650,3924,122280,113,19230,463,1,25238,0.0010020000000000029
236001,5259,-5490,124741,-7087,-9882,133405,141,19230,577,0,25239,0.0009989999999999999
237002,8432,-3749,128293,-13795,-950,126537,102,19227,577,0,25240,0.0010010000000000019
238000,11118,5851,128635,15531,3327,127561,116,19234,418,0,25241,0.0009979999999999989
239001,2024,4390,126457,-2948,4050,123779,116,19230,475,0,25242,0.0010010000000000019
240000,7447,334,126593,-17084,-2392,126761,116,19229,475,0,25243,0.0009989999999999999
241000,4832,-2534,125728,10095,-1633,127870,139,19225,569,1,25244,0.0010000000000000009
242000,10034,13459,128680,-4748,11319,121732,105,19225,430,1,25245,0.0010000000000000009
243000,10737,-3645,129694,-2277,-4221,127775,112,19233,430,1,25246,0.0010000000000000009
244000,3101,-3934,127553,737,-5761,130949,114,19230,459,1,25247,0.0010000000000000009
245000,9783,-6518,128641,-3085,-5984,130465,114,19227,467,1,25248,0.0010000000000000009
246000,1980,9299,128435,-1687,8105,121525,129,19225,528,0,25249,0.0010000000000000009
247000,6346,773,127205,-3934,-313,130207,130,19234,532,0,25250,0.0010000000000000009
248001,6093,4995,127173,-6727,4650,120675,124,19234,508,0,25251,0.0010010000000000019
249000,9076,1337,127807,-2187,93,128809,125,19228,508,0,25252,0.0009989999999999999
250000,8640,-4758,127026,6824,-5115,128559,133,19231,512,0,25253,0.0010000000000000009
251000,4381,-1993,127463,-5341,-3325,127868,133,19224,545,1,25254,0.0010000000000000009
252000,6781,-3387,129119,-11931,-4710,130638,170,19233,696,1,25255,0.0010000000000000009
253000,8075,6856,128545,6012,6319,122998,110,19231,451,1,25256,0.0010000000000000009
254000,10023,-7960,125683,-1830,-8922,133890,110,19235,451,1,25257,0.0010000000000000009
255000,6019,5493,126857,-2551,3746,119303,121,19235,451,1,25258,0.0010000000000000009
256000,8582,-1534,127562,-1415,-2067,129134,157,19231,496,0,25259,0.0010000000000000009
257000,7376,3963,128868,-486,2315,125282,157,19234,643,0,25260,0.0010000000000000009
258000,8666,-3404,128825,815,-2262,131593,117,19230,479,0,25261,0.0010000000000000009
259000,7665,1518,127732,-3538,-992,119791,118,19229,483,0,25262,0.0010000000000000009
260000,9367,877,128709,1665,2434,133300,119,19228,487,0,25263,0.0010000000000000009
261002,10626,-9802,126880,1489,-4745,127673,152,19228,487,1,25264,0.0010020000000000029
262000,5063,5507,129382,-1234,5112,124777,104,19232,623,1,25265,0.0009979999999999989
263000,9982,1073,127356,-3108,1205,126859,104,19235,426,1,25266,0.0010000000000000009
264000,6865,3868,127957,-4090,-497,126390,114,19230,467,1,25267,0.0010000000000000009
265000,9778,-8860,127058,5395,-9166,134149,114,19233,467,1,25268,0.0010000000000000009
266000,8479,1362,126937,-2701,6492,118803,134,19226,549,0,25269,0.0010000000000000009
267000,7931,4496,128023,-434,-1597,129215,114,19226,549,0,25270,0.0010000000000000009
268000,11467,-1357,125838,837,2054,126085,115,19235,467,0,25271,0.0009999999999999454
269000,10094,-1846,128347,1410,-375,129007,115,19232,471,0,25272,0.0010000000000000009
270000,9530,-3576,127458,1543,-3682,127586,116,19230,475,0,25273,0.0010000000000000009
271000,8164,513,126756,-808,-622,125820,133,19224,545,1,25274,0.0010000000000000009
272001,9081,-1767,129525,1509,-2707,131331,96,19236,393,1,25275,0.0010010000000000296
273000,13575,4553,127727,3650,5828,121007,111,19236,393,1,25276,0.0009989999999999721
274000,9265,2539,127409,3701,-1196,127998,109,19233,455,1,25277,0.0010000000000000009
275000,9990,-1814,127145,-1873,-1927,126176,109,19228,446,1,25278,0.0010000000000000009
276000,8695,-1825,127783,-315,-590,128725,124,19227,508,0,25279,0.0010000000000000009
277000,8789,735,129353,3471,1099,128000,121,19233,496,0,25280,0.0010000000000000009
278000,9362,644,128137,-778,-881,125627,119,19232,487,0,25281,0.0010000000000000009
279000,7845,-2858,128008,-2311,-3165,130213,117,19232,487,0,25282,0.0010000000000000009
280000,11404,-922,127177,3125,-758,126138,125,19230,479,0,25283,0.0010000000000000009
281000,8281,2243,126504,1380,2180,125847,159,19225,512,1,25284,0.0010000000000000009
282000,6753,5745,128075,-4804,4460,123752,159,19232,651,1,25285,0.0010000000000000009
283000,11346,407,126407,2690,-1061,127868,101,19231,414,1,25286,0.0010000000000000009
284000,8911,1997,128343,1902,428,127836,103,19234,422,1,25287,0.0010000000000000009
285001,8203,2291,127636,300,-986,125441,111,19234,455,1,25288,0.0010010000000000296
286000,8480,515,127601,-2081,993,127462,146,19228,455,0,25289,0.0009989999999999721
287002,8331,3694,128600,861,1105,126335,113,19233,598,0,25290,0.0010020000000000029
288000,10171,1856,127739,687,1911,125811,113,19232,463,0,25291,0.0009979999999999989
289000,8835,6163,127702,-1569,4618,123653,115,19231,471,0,25292,0.0010000000000000009
290000,8505,-242,126819,1351,-1840,126679,117,19230,479,0,25293,0.0010000000000000009
291002,7235,-2820,127119,-1985,-3064,129389,146,19230,598,1,25294,0.0010020000000000029
292000,4277,2899,128971,-4847,2312,127292,98,19223,598,1,25295,0.0009979999999999989
293000,10003,-446,124821,-452,-2114,127055,110,19233,401,1,25296,0.0010000000000000009
294000,6223,8200,128807,-1438,8228,118735,110,19231,451,1,25297,0.0010000000000000009
295000,14207,3336,125989,5406,1857,130883,111,19231,455,1,25298,0.0010000000000000009
296000,3988,-7862,125098,1728,-8684,129488,135,19223,553,0,25299,0.0010000000000000009
297000,8720,9437,130196,-24232,9148,119745,103,19238,422,0,25300,0.0010000000000000009
298000,10026,-303,128346,19708,-1161,132312,117,19238,422,0,25301,0.0010000000000000009
299000,1822,-7877,126419,620,-9427,130773,116,19231,479,0,25302,0.0010000000000000009
300001,8667,2340,127639,-17980,2119,124614,116,19231,475,0,25303,0.0010009999999999741
301000,3083,12989,126517,4851,11423,118760,138,19226,565,1,25304,0.0009990000000000276
302000,13451,11643,130448,-4390,12103,124943,121,19241,496,1,25305,0.0010000000000000009
303000,9158,-9967,127655,3249,-10143,134263,110,19231,451,1,25306,0.0010000000000000009
304000,4726,-897,129754,-1246,-2484,125295,110,19231,451,1,25307,0.0010000000000000009
305001,7880,90,128630,-7482,-381,128340,131,19229,451,1,25308,0.0010009999999999741
306000,4189,-2192,127383,3239,-3383,128850,131,19220,537,0,25309,0.0009990000000000276
307000,7963,6272,128803,-3133,5398,121856,134,19232,549,0,25310,0.0010000000000000009
308000,3301,6341,126699,-6536,6702,124289,125,19229,512,0,25311,0.0010000000000000009
309000,9641,-700,127782,-8831,-2945,127657,123,19235,504,0,25312,0.0010000000000000009
310000,9333,-2529,127922,8357,-5166,130866,130,19235,504,0,25313,0.0010000000000000009
311000,4771,-2458,128230,3097,-603,126669,165,19225,532,1,25314,0.0010000000000000009
312000,3568,1733,130084,-16796,-2068,127663,165,19230,676,1,25315,0.0010000000000000009
313000,8629,-4808,126662,8310,-2845,130197,115,19230,471,1,25316,0.0010000000000000009
314000,10547,5705,128390,-1073,8505,120656,116,19234,475,1,25317,0.0010000000000000009
315000,6320,3122,126605,-1931,-2496,126252,121,19228,496,1,25318,0.0010000000000000009
316001,7387,-5125,127063,-5232,-4970,129908,149,19228,496,0,25319,0.0010009999999999741
317000,8023,-268,129366,3266,-759,128409,114,19236,610,0,25320,0.0009990000000000276
318002,10394,3075,129097,3409,3652,124190,114,19229,467,0,25321,0.0010020000000000029
319000,6938,797,128402,-721,-6428,125691,119,19225,487,0,25322,0.0009979999999999989
320000,8160,-9253,126742,-4090,-9543,132527,121,19230,496,0,25323,0.0010000000000000009
321000,10133,2755,128191,1369,5348,122407,149,19230,610,1,25324,0.0010000000000000009
322000,7854,5503,129155,4820,3571,126326,102,19230,610,1,25325,0.0010000000000000009
323003,8027,-997,128396,-7843,-2915,127828,114,19231,418,1,25326,0.0010029999999999761
324002,7135,-6375,127866,-912,-7445,132434,114,19229,467,1,25327,0.0009990000000000276
325000,9770,243,128059,6739,2537,125573,112,19231,459,1,25328,0.0009979999999999989
326000,8087,4568,127381,-1616,904,123918,130,19221,532,0,25329,0.0010000000000000009
327000,7280,-3905,127090,-6606,-3777,128360,131,19236,537,0,25330,0.0010000000000000009
328000,13007,2141,127487,3501,2238,125880,118,19236,483,0,25331,0.0009999999999999454
329000,9636,400,129133,5132,-1463,128337,119,19232,483,0,25332,0.0010000000000000009
330000,8632,-1083,127759,-2165,-2681,126594,130,19231,487,0,25333,0.0010000000000000009
331001,6783,-7428,127958,-2276,-8617,132056,130,19230,532,1,25334,0.0010010000000000296
332000,12925,4197,128159,4862,4524,125421,90,19237,369,1,25335,0.0009989999999999721
333000,12606,4102,127387,5002,2158,125660,107,19234,438,1,25336,0.0010000000000000009
334000,9703,224,126006,-1755,-318,124449,108,19234,442,1,25337,0.0010000000000000009
335000,10332,-69,126493,-904,-1850,125431,122,19233,442,1,25338,0.0010000000000000009
336000,8123,-3279,127353,4184,-4654,127552,125,19226,500,0,25339,0.0010000000000000009
337000,9831,2522,130924,1432,1905,128055,125,19236,512,0,25340,0.0010000000000000009
338000,7546,-376,127658,-4650,-1318,126617,119,19229,487,0,25341,0.0010000000000000009
339002,9549,-1422,128739,2299,-2223,127841,116,19229,475,0,25342,0.0010020000000000029
340000,10878,-444,125980,4589,-1502,129332,122,19231,500,0,25343,0.0009979999999999989
341000,7795,1522,127138,-4101,1541,124227,155,19231,500,1,25344,0.0010000000000000009
342000,8003,7897,128807,-2070,7610,122171,101,19236,635,1,25345,0.0010000000000000009
343000,11845,1132,127125,4295,-30,128529,101,19235,414,1,25346,0.0010000000000000009
344000,8879,-2237,128377,3542,-3050,129044,105,19236,430,1,25347,0.0010000000000000009
345000,9238,-3622,126696,-1994,-4656,128508,111,19226,455,1,25348,0.0010000000000000009
346001,8220,4469,127814,-292,3345,123010,139,19228,569,0,25349,0.0010010000000000296
347000,10190,5978,127798,3292,3577,126778,109,19228,569,0,25350,0.0009989999999999721
348000,9367,1157,126476,-2096,235,127081,115,19229,446,0,25351,0.0010000000000000009
349000,7827,3625,127958,-3396,2991,124259,115,19235,471,0,25352,0.0010000000000000009
350000,9093,-3193,125442,5015,-4428,127948,118,19232,483,0,25353,0.0010000000000000009
351000,6667,1500,127938,191,687,125011,150,19220,614,1,25354,0.0010000000000000009
352000,5305,-105,127737,-9689,-546,128542,88,19233,360,1,25355,0.0010000000000000009
353000,7968,2766,126465,-2602,1385,123620,106,19233,360,1,25356,0.0010000000000000009
354000,9134,1261,126823,2871,1551,122967,110,19236,434,1,25357,0.0010000000000000009
355000,7083,5471,127467,5528,4249,126688,110,19232,451,1,25358,0.0010000000000000009
356000,7711,-9491,126659,-8426,-13349,137003,134,19226,549,0,25359,0.0010000000000000009
357000,6721,3101,129343,-4771,13070,116235,120,19235,491,0,25360,0.0010000000000000009
358000,10135,12171,130190,1514,1702,129456,117,19225,479,0,25361,0.0010000000000000009
359000,5495,-3458,128151,666,-5559,128151,114,19225,479,0,25362,0.0010000000000000009
360000,4979,-8063,124599,-2874,-11652,132639,134,19227,467,0,25363,0.0010000000000000009
361000,5516,5441,129126,-7402,15467,118342,134,19223,549,1,25364,0.0010000000000000009
362000,9157,19611,128554,-1537,9382,121253,125,19235,512,1,25365,0.0010000000000000009
363000,13074,-6626,128263,8711,-9584,135796,112,19231,459,1,25366,0.0010000000000000009
364000,4703,-8407,125808,-6674,-8080,128248,111,19232,455,1,25367,0.0010000000000000009
365000,7342,-1202,128421,-6222,445,126348,125,19232,455,1,25368,0.0010000000000000009
366001,2878,5545,128375,3705,3873,126456,140,19225,512,0,25369,0.0010009999999999741
367000,9787,1126,128735,-5039,912,126262,140,19236,573,0,25370,0.0009990000000000276
368000,4771,7874,127199,-8778,8537,122820,121,19229,496,0,25371,0.0010000000000000009
369000,6929,-310,127805,3389,-2791,128802,126,19232,516,0,25372,0.0010000000000000009
370000,6959,-11454,124513,740,-7567,129485,132,19226,541,0,25373,0.0010000000000000009
371000,4787,1911,130099,-5054,1193,127071,164,19226,541,1,25374,0.0010000000000000009
372000,5694,2697,128261,-4786,2901,125314,103,19224,672,1,25375,0.0010000000000000009
373000,8335,-317,127984,2868,-4093,131064,108,19233,422,1,25376,0.0010000000000000009
374000,8815,-6877,126513,-1570,-5310,127481,108,19234,442,1,25377,0.0010000000000000009
375001,6323,7496,127275,2052,7342,120128,117,19227,479,1,25378,0.0010009999999999741
376000,7394,590,127310,-7343,-2041,129947,147,19232,602,0,25379,0.0009990000000000276
377000,9208,460,128133,2019,-1275,127493,115,19232,471,0,25380,0.0010000000000000009
378000,8152,-757,127870,2845,-2027,128706,119,19229,471,0,25381,0.0010000000000000009
379000,8760,4109,128568,-2975,3303,121306,120,19233,487,0,25382,0.0010000000000000009
380000,8095,-7853,126641,706,-11458,133670,120,19225,491,0,25383,0.0010000000000000009
381000,9051,-8319,127569,-1553,-5619,129700,147,19229,602,1,25384,0.0010000000000000009
382002,9115,10887,130289,1450,10325,120566,104,19232,426,1,25385,0.0010020000000000029
383000,7690,2389,128375,-4925,242,128176,117,19232,479,1,25386,0.0009979999999999989
384000,7008,-5044,127504,-262,-6298,129224,114,19228,479,1,25387,0.0010000000000000009
385002,8892,-5684,126574,2284,-5104,132335,128,19235,467,1,25388,0.0010019999999999474
386000,9607,7980,127297,-123,8666,119954,128,19224,524,0,25389,0.0009980000000000544
387000,5890,-1504,128356,-638,-1675,128173,130,19232,532,0,25390,0.0009999999999999454
388000,13284,-4997,127897,-1878,-4893,130058,116,19227,475,0,25391,0.0010000000000000009
389001,9314,182,128076,5126,-473,126581,116,19233,475,0,25392,0.0010010000000000296
390000,8781,-498,128756,1349,-1240,128617,130,19233,475,0,25393,0.0009989999999999721
391000,7340,-1540,127920,-4110,-2354,125462,104,19227,532,1,25394,0.0010000000000000009
392000,12361,158,127945,3592,-1001,130304,104,19239,426,1,25395,0.0010000000000000009
393001,12671,3526,127450,4144,3014,124246,105,19237,430,1,25396,0.0010010000000000296
394000,7842,945,127003,2235,88,124858,108,19233,442,1,25397,0.0009989999999999721
395000,10730,-2805,127589,-3041,-3100,128232,119,19227,487,1,25398,0.0010000000000000009
396000,8158,1000,128652,2202,250,126962,133,19227,487,0,25399,0.0010000000000000009
397000,10443,3105,129087,2059,2780,128219,118,19232,545,0,25400,0.0010000000000000009
398000,8467,-4119,127320,-2839,-4590,127129,118,19230,483,0,25401,0.0010000000000000009
399003,8545,-302,127517,436,-1791,127575,116,19232,475,0,25402,0.0010030000000000316
400000,10932,-124,127074,3213,-290,127272,123,19227,504,0,25403,0.0009969999999999701
401000,6605,3358,127084,-1594,1508,124235,153,19231,627,1,25404,0.0010000000000000009
402000,9736,4490,128123,-3129,4063,127282,102,19231,627,1,25405,0.0010000000000000009
403000,10854,4804,126214,4381,2604,123712,104,19238,418,1,25406,0.0010000000000000009
404000,11481,2457,128517,1363,-2109,130297,104,19228,426,1,25407,0.0010000000000000009
405002,9304,-7211,127049,1389,-5665,127325,109,19229,446,1,25408,0.0010020000000000029
406000,8357,4126,128614,-1790,5014,124682,141,19235,577,0,25409,0.0009979999999999989
407002,10488,5031,128185,2497,3567,127683,111,19229,455,0,25410,0.0010020000000000029
408002,8808,2786,126842,-4172,1680,124447,115,19229,455,0,25411,0.0010000000000000009
409002,7857,-398,127752,566,-860,128621,114,19226,471,0,25412,0.0010000000000000009
410008,8724,1274,127519,-669,692,124771,114,19226,467,0,25413,0.0010060000000000069
411001,7227,1487,128219,-885,722,128842,141,19220,577,1,25414,0.0009930000000000216
412000,7594,-5660,126504,-810,-6129,127691,87,19237,356,1,25415,0.0009989999999999721
413000,7799,8242,127742,-7873,11104,120267,111,19235,455,1,25416,0.0010000000000000009
414001,12847,5126,126161,7073,1138,128872,110,19235,455,1,25417,0.0010010000000000296
415001,6076,940,125809,4650,1887,125525,129,19232,451,1,25418,0.0010000000000000009
416000,6672,-260,129364,-20599,-1975,126195,129,19224,528,0,25419,0.0009989999999999721
417000,9683,957,130105,6637,-825,127963,117,19230,479,0,25420,0.0010000000000000009
418000,7320,-5962,127453,6755,-8104,132744,119,19235,487,0,25421,0.0010000000000000009
419000,5092,5129,128525,-8310,5038,121055,119,19229,487,0,25422,0.0010000000000000009
420000,4214,9438,125001,-5991,4002,123357,134,19229,549,0,25423,0.0010000000000000009
421001,8235,9735,129376,-1988,7689,124734,127,19228,549,1,25424,0.0010009999999999741
422000,13241,-2679,125792,3191,-7302,130891,108,19238,520,1,25425,0.0009990000000000276
423000,8233,-2834,128832,2774,-678,125192,108,19231,442,1,25426,0.0010000000000000009
424000,5244,633,128109,-7326,-4343,129774,108,19232,442,1,25427,0.0010000000000000009
425000,6964,-8171,127117,-2520,-5814,130059,126,19227,516,1,25428,0.0010000000000000009
426000,3774,10086,129060,-655,10686,123213,166,19227,680,0,25429,0.0010000000000000009
427000,8311,3679,126944,-7713,1289,124823,124,19235,680,0,25430,0.0010000000000000009
428000,4900,4802,126381,-6676,3910,122459,123,19228,508,0,25431,0.0010000000000000009
429000,8582,-6263,128093,4416,-8735,135601,123,19229,504,0,25432,0.0010000000000000009
430000,7866,-123,126860,1039,1687,122351,125,19229,512,0,25433,0.0010000000000000009
431000,5136,2938,130356,-9727,-172,128776,160,19224,655,1,25434,0.0010000000000000009
432000,6871,-7901,127094,-904,-7752,131175,97,19224,397,1,25435,0.0010000000000000009
433000,8605,2721,128989,5427,2529,125012,112,19229,397,1,25436,0.0010000000000000009
434002,6803,870,127348,-7607,-63,126634,118,19233,459,1,25437,0.0010020000000000029
435000,7139,4874,127091,-987,3586,120885,118,19226,483,1,25438,0.0009979999999999989
436000,7088,-3990,127931,4141,-5638,134482,143,19230,586,0,25439,0.0010000000000000009
437002,9884,7048,127648,-2170,4958,121730,111,19231,455,0,25440,0.0010020000000000029
438000,9733,3159,129376,-4095,2282,127203,119,19229,487,0,25441,0.0009979999999999989
439000,8749,-5759,128140,5369,-6817,128983,120,19229,487,0,25442,0.0010000000000000009
440000,9006,-4592,127978,910,-5309,127984,148,19231,491,0,25443,0.0010000000000000009
441000,4776,-53,128404,-6623,-1135,128998,148,19220,606,1,25444,0.0010000000000000009
442000,9460,6396,128930,-10,5983,121610,95,19235,389,1,25445,0.0010000000000000009
443000,8298,-2838,127405,325,-3781,132963,116,19225,475,1,25446,0.0010000000000000009
444000,9205,1937,127591,-3895,961,123709,112,19231,459,1,25447,0.0010000000000000009
445000,9896,-2589,127121,6210,-2991,129381,128,19231,459,1,25448,0.0010000000000000009
446000,6823,-563,127259,577,-2200,123220,143,19228,524,0,25449,0.0010000000000000009
447000,10450,24,129093,-8101,496,129429,143,19231,586,0,25450,0.0009999999999999454
448000,9797,746,128555,6628,-337,125578,120,19236,491,0,25451,0.0010000000000000009
449000,9847,1311,128792,2130,1389,129115,117,19232,479,0,25452,0.0010000000000000009
450000,8278,-6894,127073,-3592,-6117,129220,126,19232,516,1,25453,0.0010000000000000009
451000,8182,1332,128620,1301,845,127129,114,19232,516,1,25454,0.0010000000000000009
452000,14779,187,127805,6402,2515,126751,108,19236,467,1,25455,0.0010000000000000009
453000,10846,3820,127729,470,5059,123314,108,19230,442,1,25456,0.0010000000000000009
454000,10663,-4352,126837,-668,-6192,129919,109,19232,446,1,25457,0.0010000000000000009
455000,8845,-410,127806,1285,1585,124942,120,19226,491,1,25458,0.0010000000000000009
456000,8165,2256,128704,-1705,-222,129456,150,19235,614,0,25459,0.0010000000000000009
457000,9403,-2481,127156,-936,-2213,127117,117,19235,614,0,25460,0.0010000000000000009
458000,8950,1795,127676,-829,-58,126792,118,19230,479,0,25461,0.0010000000000000009
459000,10347,-1966,127089,4570,-2489,129317,118,19232,483,0,25462,0.0010000000000000009
460000,8587,1178,126431,357,1834,123621,120,19229,491,0,25463,0.0010000000000000009
461000,7458,4016,127896,-6492,3048,126186,150,19232,614,1,25464,0.0010000000000000009
462000,11258,2845,127125,3074,2740,124529,101,19234,414,1,25465,0.0010000000000000009
463003,9774,1902,127430,3406,-183,127748,105,19234,430,1,25466,0.0010030000000000316
464000,9320,-2516,127709,-2223,-3807,128324,109,19230,430,1,25467,0.0009969999999999701
465000,9103,-703,126919,1053,-1049,125850,135,19230,446,1,25468,0.0010000000000000009
466000,8006,2889,129112,968,2152,128915,135,19228,553,0,25469,0.0010000000000000009
467001,11446,2430,127320,-63,2762,124371,108,19233,442,0,25470,0.0010010000000000296
468000,7985,2662,126637,-3955,1063,125784,117,19228,479,0,25471,0.0009989999999999721
469001,9795,2243,126836,4068,1486,125403,118,19233,483,0,25472,0.0010010000000000296
470002,7850,-139,126992,-387,308,128048,143,19233,483,0,25473,0.0010009999999999741
471001,6996,-2624,126929,-8171,-2709,127724,99,19223,586,1,25474,0.0009990000000000276
472000,7226,3638,128953,156,3085,124940,99,19232,405,1,25475,0.0009989999999999721
473000,7974,2388,126321,-3571,-952,129420,108,19233,442,1,25476,0.0010000000000000009
474000,9053,-3952,125737,2941,-713,120884,109,19227,446,1,25477,0.0010000000000000009
475000,10641,13910,128416,4702,10303,127892,130,19227,532,1,25478,0.0010000000000000009
476000,6204,-10027,124765,-8682,-9654,130055,134,19228,532,0,25479,0.0010000000000000009
477000,8943,16005,131943,-11773,15315,117850,117,19235,549,0,25480,0.0010000000000000009
478000,10627,-9166,126776,17874,-11279,136735,117,19232,479,0,25481,0.0010000000000000009
479000,-1123,-1617,126565,-4135,-3702,125055,116,19232,475,0,25482,0.0010000000000000009
480000,9332,-8153,125754,-16429,-7759,130869,130,19226,532,0,25483,0.0010000000000000009
481000,2379,20581,128838,7253,21049,114830,157,19237,643,1,25484,0.0010000000000000009
482001,17176,9090,127119,-3977,6128,127004,109,19237,643,1,25485,0.0010009999999999741
483000,6516,-7887,126856,749,-8544,129563,111,19231,446,1,25486,0.0009990000000000276
484000,5501,-8495,125953,36,-9924,131086,111,19231,455,1,25487,0.0010000000000000009
485000,8692,536,129660,-6676,762,126008,123,19226,504,1,25488,0.0010000000000000009
486000,2533,3362,128211,4356,1704,127766,159,19236,651,0,25489,0.0010000000000000009
487000,10120,1875,126538,-8296,906,126723,121,19232,496,0,25490,0.0010000000000000009
488000,2314,10506,125367,-7224,9143,117570,125,19232,496,0,25491,0.0010000000000000009
489000,11484,-6496,126193,-1741,-7121,132111,129,19231,512,0,25492,0.0010000000000000009
490001,6319,544,126840,7774,-605,124623,129,19228,528,0,25493,0.0010009999999999741
491002,6023,-5899,129747,-8708,-6323,132704,158,19219,647,1,25494,0.0010010000000000296
492000,8456,5157,128509,-6087,4042,122781,92,19236,377,1,25495,0.0009979999999999989
493000,6994,-6951,127898,9083,-6797,136243,109,19230,446,1,25496,0.0010000000000000009
494000,10897,2191,126276,-5135,-145,113553,112,19230,446,1,25497,0.0010000000000000009
495000,4023,8130,127257,-1653,8410,131604,139,19225,459,1,25498,0.0010000000000000009
496000,8122,-3988,128096,-5404,-5460,127071,139,19224,569,0,25499,0.0010000000000000009
497000,9394,2687,128772,2970,3081,129204,101,19233,414,0,25500,0.0010000000000000009
498000,8817,-4662,127075,1258,-197,127234,121,19232,496,0,25501,0.0010000000000000009
499002,7860,5231,128538,-2608,-1059,123724,120,19230,491,0,25502,0.0010020000000000029
500000,8403,-13502,125797,2474,-12530,137505,141,19230,491,1,25503,0.0009979999999999989
501000,9738,4933,128815,-4409,12526,116532,95,19221,577,1,25504,0.0010000000000000009
502000,7755,9256,128065,1107,1087,128044,95,19240,389,1,25505,0.0010000000000000009
503002,9539,-2028,127707,-6937,-1993,127544,114,19229,467,1,25506,0.0010019999999999474
504000,7055,-5303,127097,7656,-7643,134829,112,19233,459,1,25507,0.0009980000000000544
505000,8025,-8430,126168,-418,1484,127887,128,19224,524,1,25508,0.0010000000000000009
506000,8633,11250,128912,-3373,8749,118231,154,19224,524,0,25509,0.0010000000000000009
507000,9975,-4552,127654,-1382,-7649,133599,114,19237,631,0,25510,0.0010000000000000009
508000,13469,222,127703,3702,2130,125046,114,19228,467,0,25511,0.0010000000000000009
509000,7946,-428,128287,3741,-4015,128408,117,19230,479,0,25512,0.0010000000000000009
510000,9727,-1452,127168,-4856,-1334,126681,126,19224,516,1,25513,0.0010000000000000009
511002,5633,-1432,129171,1521,-4305,130680,121,19244,496,1,25514,0.0010019999999999474
512000,13062,-3000,128570,4889,1215,128693,106,19244,434,1,25515,0.0009980000000000544
513000,8775,5816,127924,851,3464,122010,108,19233,434,1,25516,0.0010000000000000009
514000,9884,-1737,126374,-577,-2204,127714,117,19227,442,1,25517,0.0010000000000000009
515000,12229,1378,127390,2552,1121,125924,117,19231,479,0,25518,0.0010000000000000009
516000,8070,1998,128569,1534,1125,128691,152,19236,623,0,25519,0.0010000000000000009
517001,10539,878,127616,-2604,-1170,127294,117,19227,479,0,25520,0.0010009999999999186
518000,5577,-3155,127653,-846,-4321,128722,117,19227,479,0,25521,0.0009990000000000832
519000,10541,-1205,128338,2945,-763,128523,120,19231,479,0,25522,0.0010000000000000009
520000,9334,2637,126700,1930,1277,125792,144,19227,491,1,25523,0.0010000000000000009
521000,9476,7125,128876,-6296,6769,124738,144,19232,590,1,25524,0.0010000000000000009
522002,12414,3349,126355,5052,3349,126140,96,19237,393,1,25525,0.0010019999999999474
523000,9897,2073,127877,819,1553,126169,106,19232,434,1,25526,0.0009980000000000544
524000,10400,-3750,127144,1485,-5900,129470,108,19232,442,1,25527,0.0010000000000000009
525001,6611,-3001,126990,1,-2777,128515,131,19229,442,0,25528,0.0010009999999999186
526000,9161,4612,128670,-2012,3992,125250,105,19228,537,0,25529,0.0009990000000000832
527000,9763,4180,127831,970,4509,125368,105,19229,430,0,25530,0.0010000000000000009
528000,9489,3590,127571,-3663,2539,125243,116,19230,475,0,25531,0.0010000000000000009
529000,8983,-2244,126495,2651,-3103,127228,118,19226,483,0,25532,0.0010000000000000009
530000,8219,1983,126661,-327,1162,126139,139,19227,569,1,25533,0.0010000000000000009
531000,6340,-3187,127720,-3027,-4082,129947,123,19227,569,1,25534,0.0010000000000000009
532000,6769,3717,126393,-1653,3210,122289,107,19237,504,1,25535,0.0010000000000000009
533000,10424,7954,127149,-6689,6910,126979,107,19232,438,1,25536,0.0010000000000000009
534000,10506,1120,126421,7607,823,123654,109,19232,446,1,25537,0.0010000000000000009
535000,6835,5950,127350,2266,4951,125062,124,19224,508,0,25538,0.0010000000000000009
536000,6737,-8996,126640,-14215,-9983,132727,141,19233,577,0,25539,0.0009999999999998899
537000,7809,4041,129285,1518,2522,123601,117,19233,577,0,25540,0.0010000000000000009
538000,10120,-48,127034,7653,-1157,134247,118,19231,479,0,25541,0.0010000000000000009
539000,2540,11447,127182,-5283,9579,118414,118,19233,483,0,25542,0.0010000000000000009
540000,8361,162,126861,-8370,-244,129457,127,19228,520,1,25543,0.0010000000000000009
541002,6995,6285,128007,2452,4895,121421,167,19238,684,1,25544,0.0010020000000000584
542000,14043,938,128562,336,1959,130326,107,19234,438,1,25545,0.0009979999999999434
543000,8147,-4151,128995,-1643,-5026,127364,111,19234,438,1,25546,0.0010000000000000009
544000,4640,-7595,127217,1703,-8170,134235,120,19231,455,1,25547,0.0010000000000000009
545000,6047,-214,128922,-7579,7348,121458,120,19228,491,0,25548,0.0010000000000000009
546001,3510,12731,128105,-2039,8467,125368,155,19232,635,0,25549,0.0010010000000000296
547000,8806,1480,125337,-2801,1660,124859,120,19229,491,0,25550,0.0009989999999999721
548000,6030,3783,127049,-7171,-393,125852,124,19232,508,0,25551,0.0010000000000000009
549000,10504,-8697,126482,1581,-7780,131309,126,19232,508,0,25552,0.0010000000000000009
550000,5986,3352,128703,1519,3175,124277,151,19230,516,0,25553,0.0010000000000000009
551000,5076,-4920,129051,-10251,-8540,133732,151,19222,618,1,25554,0.0010000000000000009
552000,8196,2320,128034,-1545,7449,120888,97,19234,397,1,25555,0.0010000000000000009
553001,8127,4955,128357,46,-2131,130015,111,19232,455,1,25556,0.0010010000000000296
554000,10923,-4124,125993,-1290,-3868,123514,115,19224,471,1,25557,0.0009989999999999721
555000,7456,3817,127433,386,-3714,128285,137,19224,471,0,25558,0.0010000000000000009
556000,6884,-1044,129068,-3595,-65,128997,102,19222,561,0,25559,0.0010000000000000009
557000,10635,6409,129248,144,5162,123517,119,19232,418,0,25560,0.0010000000000000009
558001,7807,-5617,128367,1662,-7862,133472,119,19236,487,0,25561,0.0010010000000000296
559000,8630,-21,126572,-2614,1257,121370,117,19231,479,0,25562,0.0009989999999999721
560000,8627,-4092,127742,982,-6303,130981,141,19221,577,1,25563,0.0010000000000000009
561000,7261,-2,128397,-1893,2664,125955,110,19221,451,1,25564,0.0010000000000000009
562001,10274,3404,126923,-2033,-1122,126946,111,19234,451,1,25565,0.0010010000000000296
563000,7197,902,127657,-89,2191,127043,109,19231,455,1,25566,0.0009989999999999721
564000,9661,291,126997,3961,-3056,127392,109,19233,446,1,25567,0.0010000000000000009
565001,8138,-7912,126234,106,-6586,130091,122,19230,500,1,25568,0.0010010000000000296
566000,9032,5261,129086,-4305,4911,122355,164,19235,672,0,25569,0.0009989999999999721
567000,11062,241,126925,945,-770,128061,117,19235,479,0,25570,0.0010000000000000009
568000,8636,3750,129012,473,2404,125820,117,19231,479,0,25571,0.0010000000000000009
569000,8154,-6847,127355,-362,-9226,132828,121,19227,479,0,25572,0.0010000000000000009
570000,8954,-2932,127409,370,-2114,126543,121,19227,496,1,25573,0.0010000000000000009
571000,9379,3382,129466,4892,308,126589,130,19237,532,1,25574,0.0010000000000000009
572000,13916,-744,127585,2213,-2807,126542,105,19233,430,1,25575,0.0010000000000000009
573000,9825,5934,128824,-903,4864,124294,115,19231,471,1,25576,0.0010000000000000009
574000,9796,-3000,126691,3727,-3540,129124,116,19231,471,1,25577,0.0010000000000000009
575001,7436,2912,127881,13,1948,123418,144,19231,475,0,25578,0.0010010000000000296
576000,5556,-552,128781,-3226,-1957,131786,144,19232,590,0,25579,0.0009989999999999721
577000,11221,-1978,126639,-980,-2176,126256,113,19232,463,0,25580,0.0010000000000000009
578000,9543,2277,128303,3922,1598,126600,119,19230,487,0,25581,0.0010000000000000009
579000,11784,-1086,127390,1518,-1378,127517,120,19230,491,0,25582,0.0010000000000000009
580000,8875,1359,126399,-1928,512,125214,146,19230,491,1,25583,0.0010000000000000009
581000,6156,2035,128194,-3045,1344,128916,89,19230,598,1,25584,0.0010000000000000009
582001,11192,3702,126481,2921,2449,123979,89,19236,365,1,25585,0.0010010000000000296
583000,7791,1773,128041,-641,1189,126414,105,19230,430,1,25586,0.0009989999999999721
584001,11700,-322,126933,-184,-1122,126997,105,19230,430,1,25587,0.0010010000000000296
585000,8788,334,127639,3517,-785,127038,130,19220,532,0,25588,0.0009989999999999721
586000,8711,2504,128988,-2000,1619,127701,95,19220,532,0,25589,0.0010000000000000009
587000,9088,-523,127551,932,-415,125113,117,19234,389,0,25590,0.0010000000000000009
588000,8363,1619,127921,-2711,929,126842,117,19233,479,0,25591,0.0010000000000000009
589000,11211,-4809,127638,3233,-3795,127757,115,19230,471,0,25592,0.0010000000000000009
590001,6123,2778,126168,-604,1235,124704,134,19224,549,1,25593,0.0010010000000000296
591000,4666,2600,128387,-6654,1709,128664,126,19234,516,1,25594,0.0009989999999999721
592002,7808,-55,124935,-2462,-4304,128123,107,19234,516,1,25595,0.0010020000000000584
593000,6519,1656,126878,2841,8721,119785,109,19233,438,1,25596,0.0009979999999999434
594000,13512,12122,128111,-1892,4175,128080,109,19237,446,1,25597,0.0010000000000000009
595000,7660,-7450,125313,4010,-6588,127823,126,19228,516,0,25598,0.0010000000000000009
596000,4175,4247,130102,-15391,4604,124631,157,19234,643,0,25599,0.0010000000000000009
597000,13852,120,126969,12374,-2617,129963,117,19229,479,0,25600,0.0010000000000000009
598000,-1146,-2384,127089,1074,-5344,129462,115,19229,479,0,25601,0.0010000000000000009
599000,8719,-4003,126634,-14447,747,125005,125,19229,471,0,25602,0.0010000000000000009
600000,3696,14998,127545,817,16593,116564,125,19226,512,1,25603,0.0010000000000000009
601000,11836,9945,128287,-467,1083,130183,164,19238,672,1,25604,0.0010000000000000009
602000,11223,-9623,127350,8155,-9548,128490,108,19232,442,1,25605,0.0010000000000000009
603000,4048,-3931,127287,-7773,-3181,128813,111,19223,455,1,25606,0.0010000000000000009
604000,10241,410,129736,-4962,2064,126343,119,19223,487,1,25607,0.0010000000000000009
605000,1246,-1884,126966,3505,-1786,131209,152,19228,487,0,25608,0.0010000000000000009
606000,10306,-3372,127161,-10741,5121,124519,117,19228,623,0,25609,0.0010000000000000009
607000,3014,14188,126193,-1582,10384,118931,117,19232,479,0,25610,0.0010000000000000009
608001,9634,-3171,125378,-5965,-6271,131565,127,19233,520,0,25611,0.0010010000000000296
609002,11161,-4923,126883,9495,-3991,127542,127,19228,520,0,25612,0.0010009999999999186
610000,3878,-557,128397,-4569,-1900,128021,153,19228,627,1,25613,0.0009980000000000544
611000,7246,4605,129280,-11857,3706,124415,112,19221,627,1,25614,0.0010000000000000009
612000,5677,-6411,127964,4859,-9525,134426,108,19235,459,1,25615,0.0010000000000000009
613000,12144,-939,126700,-2940,2752,123726,108,19233,442,1,25616,0.0010000000000000009
614005,5024,10921,127309,1419,6857,119249,112,19231,459,1,25617,0.0010050000000000336
615002,8594,-4767,126624,-5850,-6525,131925,137,19223,561,0,25618,0.0009969999999999146
616000,7878,-2989,128770,1263,-3546,129213,120,19223,491,0,25619,0.0009980000000000544
617001,8806,936,129188,3195,1749,127259,121,19241,491,0,25620,0.0010010000000000296
618000,8716,6740,127974,-4384,4754,122003,120,19231,496,0,25621,0.0009989999999999721
619000,6666,-10051,126300,1748,-12334,134049,120,19233,491,0,25622,0.0010000000000000009
620000,12367,-4155,127207,-2208,-2528,127032,131,19224,537,1,25623,0.0010000000000000009
621002,4728,10084,129523,2142,9818,122321,123,19238,504,1,25624,0.0010019999999999474
622000,9818,729,127569,-5884,-134,128111,116,19230,475,1,25625,0.0009980000000000544
623000,7544,-7312,126262,-867,-7616,131046,114,19230,475,1,25626,0.0010000000000000009
624000,8738,-2543,128325,4725,-2065,129368,120,19228,467,1,25627,0.0010000000000000009
625000,9252,6578,127207,228,5558,121082,120,19232,491,0,25628,0.0010000000000000009
626000,6853,-3133,127541,-4253,-4309,129316,155,19232,635,0,25629,0.0010000000000000009
627000,14698,-423,127720,-901,-1053,126672,116,19233,475,0,25630,0.0010000000000000009
628000,8898,2642,127971,6592,1776,127006,121,19229,496,0,25631,0.0010000000000000009
629000,9470,-857,128001,-1654,-2370,127554,125,19229,496,0,25632,0.0010000000000000009
630002,6335,-7882,127111,-2501,-9090,130563,155,19235,512,1,25633,0.0010019999999999474
631002,8661,2307,128806,-69,784,128521,155,19234,635,1,25634,0.0010000000000000009
632000,13300,5683,128213,6637,5622,122835,112,19232,459,1,25635,0.0009980000000000544
633000,8890,46,126175,-1757,-1318,126593,115,19233,471,1,25636,0.0010000000000000009
634000,12906,-598,127553,-481,-569,127438,113,19229,463,1,25637,0.0010000000000000009
635000,8806,-377,126345,7034,-1877,127087,146,19229,463,0,25638,0.0010000000000000009
636000,8714,2878,129600,-3281,2654,128697,116,19228,598,0,25639,0.0010000000000000009
637002,7810,-5455,127682,-1893,-5933,128974,116,19234,475,0,25640,0.0010019999999999474
638001,8938,2914,129189,-1133,1506,125267,120,19232,491,0,25641,0.0009989999999999721
639000,10311,2888,127887,5830,-3672,127882,114,19230,467,0,25642,0.0009990000000000832
640000,8848,-2356,125435,-2133,3830,125308,135,19223,553,1,25643,0.0010000000000000009
641001,7752,6894,128270,-3589,6061,123139,83,19223,553,1,25644,0.0010009999999999186
642000,11386,3477,126856,2770,604,127374,108,19237,340,1,25645,0.0009990000000000832
643000,9317,-1090,128446,2314,-3675,129930,108,19232,442,1,25646,0.0010000000000000009
644003,7660,-6396,126961,-1799,-5606,128300,107,19231,438,1,25647,0.0010029999999999761
645002,9705,3015,126793,178,5459,123321,124,19220,508,0,25648,0.0009989999999999721
646001,7756,7986,128600,2506,4396,126406,99,19239,405,0,25649,0.0009989999999999721
647002,11293,-899,126740,-3654,-307,126909,113,19239,463,0,25650,0.0010010000000000296
648000,7085,2842,127427,158,3255,124447,116,19232,463,0,25651,0.0009980000000000544
649000,9481,1295,127355,730,-2568,128508,133,19231,475,0,25652,0.0010000000000000009
650000,6686,-3239,126335,775,-2504,127905,133,19224,545,1,25653,0.0010000000000000009
651000,3494,745,127654,-5486,2518,126118,142,19238,582,1,25654,0.0010000000000000009
652000,11651,8851,127674,-3352,8643,123577,106,19234,434,1,25655,0.0010000000000000009
653000,7988,603,125942,5642,-1639,126549,106,19234,434,1,25656,0.0010000000000000009
654000,9325,3414,128371,5070,3924,124586,121,19234,434,1,25657,0.0010000000000000009
655001,5074,-2809,127200,-10349,-7632,129497,159,19224,496,0,25658,0.0010009999999999186
656002,7152,-789,130067,-10072,-1225,127749,159,19233,651,0,25659,0.0010010000000000296
657001,11785,3373,129471,13743,2844,128899,116,19225,475,0,25660,0.0009989999999999721
658000,3916,5056,127351,-307,4840,121861,116,19231,475,0,25661,0.0009989999999999721
659000,5769,2464,126261,-16876,-1563,128527,124,19231,508,0,25662,0.0010000000000000009
660000,6566,-3903,126427,5633,-1781,127063,159,19227,508,1,25663,0.0010000000000000009
661000,9836,14084,128354,41,11470,121475,107,19228,651,1,25664,0.0010000000000000009
662000,12218,-1525,129848,-1055,-3776,129372,107,19236,438,1,25665,0.0010000000000000009
663000,2905,-6705,126681,-545,-8832,130220,113,19232,463,1,25666,0.0010000000000000009
664000,9663,-6989,127180,-3812,-5603,131651,117,19231,479,1,25667,0.0010000000000000009
665000,3472,9928,128213,-813,11187,119022,145,19229,594,0,25668,0.0010000000000000009
666000,7101,5044,127658,-2476,2907,127763,116,19229,594,0,25669,0.0010000000000000009
667000,5600,1330,126974,-6579,1897,124248,125,19232,475,0,25670,0.0010000000000000009
668000,8257,950,128425,-2933,-544,127420,125,19227,512,0,25671,0.0010000000000000009
669000,9071,-3578,127275,6402,-4247,129261,127,19228,520,0,25672,0.0010000000000000009
670000,4389,-1051,128738,-3636,-2645,127006,147,19222,602,1,25673,0.0010000000000000009
671000,6256,-2756,128418,-12018,-3040,129589,130,19236,532,1,25674,0.0010000000000000009
672000,8223,8983,128972,4118,7290,122587,108,19236,532,1,25675,0.0010000000000000009
673000,10860,-971,127955,-422,-2749,130593,109,19227,442,1,25676,0.0010000000000000009
674000,6657,-211,125639,671,-863,124995,109,19230,446,1,25677,0.0010000000000000009
675000,8016,1006,128569,-4315,1,126984,132,19225,541,0,25678,0.0010000000000000009
676000,8253,3591,128410,-598,2267,126812,128,19231,524,0,25679,0.0010000000000000009
677000,9109,-692,128980,3102,-1041,129697,120,19225,491,0,25680,0.0010000000000000009
678000,8519,-2649,127074,-3624,-3622,126576,121,19225,491,0,25681,0.0010000000000000009
679000,8195,1351,127767,840,619,124869,133,19234,496,0,25682,0.0010000000000000009
680000,10579,-5512,127763,-747,-6099,131116,133,19225,545,1,25683,0.0010000000000000009
681001,6332,2384,128989,-91,1771,124760,131,19236,537,1,25684,0.0010010000000000296
682002,8860,1768,128368,-1994,1097,127596,113,19242,463,1,25685,0.0010010000000000296
683000,7702,1282,128288,-2680,980,126533,109,19230,446,1,25686,0.0009979999999999434
684000,9408,-5025,127091,5666,-5490,132053,116,19230,446,1,25687,0.0010000000000000009
685000,8207,-1236,127612,-3386,-2638,122368,153,19228,475,0,25688,0.0010000000000000009
686000,8574,4663,128267,-2279,1764,125803,153,19229,627,0,25689,0.0010000000000000009
687000,11442,-888,127158,5146,-2545,129328,115,19227,471,0,25690,0.0010000000000000009
688000,8698,-2436,128386,-3742,-3955,127670,115,19229,471,0,25691,0.0010000000000000009
689000,10476,-2610,128168,882,-2889,129228,123,19227,504,0,25692,0.0010000000000000009
690000,9181,1304,127820,6880,-3155,125493,151,19227,504,1,25693,0.0010000000000000009
691001,10100,2294,128297,-1047,-695,128743,107,19236,618,1,25694,0.0010010000000000296
692000,12103,367,127482,-221,1421,126047,107,19229,438,1,25695,0.0009989999999999721
693000,10282,2951,127203,4774,1840,125275,110,19232,451,1,25696,0.0010000000000000009
694000,10568,3411,127656,91,1627,125932,113,19233,463,1,25697,0.0010000000000000009
695000,6796,-2251,127999,-2381,-3674,129785,136,19228,557,0,25698,0.0010000000000000009
696000,9575,-3217,129109,1063,-2555,129253,110,19228,451,0,25699,0.0010000000000000009
697000,9966,360,128418,1949,-446,126407,118,19232,451,0,25700,0.0010000000000000009
698000,9376,1315,127904,-70,1317,126619,116,19232,483,0,25701,0.0010000000000000009
699000,10564,978,126861,-1365,-106,126988,116,19230,475,0,25702,0.0010000000000000009
700000,8106,926,127283,-611,2310,126314,135,19224,553,1,25703,0.0010000000000000009
701000,8385,4027,127945,2935,2904,124921,93,19236,381,1,25704,0.0010000000000000009
702000,10072,200,126704,2126,-1058,126897,104,19236,426,1,25705,0.0010000000000000009
703000,9615,339,128433,-1833,-707,127498,105,19236,426,1,25706,0.0010000000000000009
704000,11106,-1634,127237,3313,-1462,128145,124,19239,430,1,25707,0.0010000000000000009
705000,8148,3101,128453,338,2420,125765,124,19228,508,0,25708,0.0010000000000000009
706001,8736,1964,126737,-1349,-1106,126537,109,19233,446,0,25709,0.0010010000000000296
707000,7252,-2114,127244,-3330,-3501,125778,116,19231,475,0,25710,0.0009989999999999721
708000,9621,6085,127937,1701,2993,126925,114,19231,467,0,25711,0.0010000000000000009
709000,8976,-1731,124922,-1847,-2577,127275,126,19232,467,0,25712,0.0010000000000000009
710000,4997,5006,128287,-1473,5125,123493,157,19235,516,1,25713,0.0010000000000000009
711000,4824,1470,128698,-3067,-666,130459,157,19240,643,1,25714,0.0010000000000000009
712000,9578,-4679,125047,-2102,-5767,128145,106,19234,434,1,25715,0.0010000000000000009
713000,6441,6703,128115,3755,8995,118562,109,19228,446,1,25716,0.0010000000000000009
714000,13924,9136,125982,1899,5194,128083,119,19227,487,1,25717,0.0010000000000000009
715000,3724,-6816,126184,-2557,-6826,127321,153,19227,487,0,25718,0.0010000000000000009
716000,9123,6150,130400,-16828,5880,125670,114,19233,627,0,25719,0.0010000000000000009
717000,9225,-1303,128533,20838,-1951,129531,114,19232,467,0,25720,0.0010000000000000009
718000,141,-3062,128115,-6971,-4818,127917,118,19229,483,0,25721,0.0010000000000000009
719000,11410,-2106,126476,-13359,-2051,127381,125,19233,512,0,25722,0.0010000000000000009
720003,1438,15223,127990,7624,14935,117144,156,19231,639,1,25723,0.0010029999999999761
721001,16940,9340,128987,-7647,6522,127086,104,19231,639,1,25724,0.0009980000000000544
722000,5969,-10737,125895,7832,-12011,130024,110,19232,426,1,25725,0.0009989999999999721
723000,7171,-4806,128928,-2606,-5460,129995,110,19232,451,1,25726,0.0010000000000000009
724000,7291,736,129166,-9103,-646,126489,116,19229,475,1,25727,0.0010000000000000009
725000,2151,-1365,127359,5273,-2590,128868,146,19229,598,0,25728,0.0010000000000000009
726000,9645,2523,127722,-5796,2997,126966,115,19230,471,0,25729,0.0010000000000000009
727000,1802,10848,127068,-5288,9906,118870,125,19230,471,0,25730,0.0010000000000000009
728000,11959,-3012,128019,-7119,-3061,128455,123,19231,512,0,25731,0.0010000000000000009
729000,5980,-3170,127052,11790,-4558,131090,123,19232,504,0,25732,0.0010000000000000009
730000,5646,-3310,129201,-8250,-4438,125535,141,19224,577,1,25733,0.0010000000000000009
731000,4180,5641,129567,-10295,5054,126090,141,19236,577,1,25734,0.0010000000000000009
732000,9092,-6656,127146,7413,-7329,135051,111,19232,455,1,25735,0.0010000000000000009
733000,10976,2454,127989,-4490,9112,116048,113,19232,455,1,25736,0.0010000000000000009
734001,4217,7631,127601,1442,-226,128665,130,19228,463,1,25737,0.0010010000000000296
735000,10523,-4413,127320,-4825,-3271,128399,130,19224,532,0,25738,0.0009989999999999721
736000,5959,649,128671,-175,-2200,129898,135,19233,553,0,25739,0.0010000000000000009
737000,11145,-878,128002,2246,2373,125886,116,19231,475,0,25740,0.0010000000000000009
738000,7209,6159,127970,1860,-309,123369,117,19228,479,0,25741,0.0010000000000000009
739000,8733,-11109,126715,-5073,-11148,136147,133,19228,545,0,25742,0.0010000000000000009
740000,10083,-2152,126876,918,7684,120532,152,19225,545,1,25743,0.0010000000000000009
741000,6475,4551,130285,965,6313,125885,110,19238,623,1,25744,0.0010000000000000009
742000,10881,372,128089,-7715,-3760,127972,110,19236,451,1,25745,0.0010000000000000009
743000,5182,-7167,126965,4155,-7330,131972,111,19229,455,1,25746,0.0010000000000000009
744000,10987,-1657,127861,668,184,127516,115,19231,471,1,25747,0.0010000000000000009
745000,6113,5457,127064,937,3541,120617,149,19231,610,0,25748,0.0010000000000000009
746000,7783,-1747,128424,-4672,-3957,131305,116,19229,610,0,25749,0.0010000000000000009
747000,13044,-1831,127497,3793,742,125597,119,19235,475,0,25750,0.0010000000000000009
748000,7652,3241,129128,3834,1184,126482,119,19232,487,0,25751,0.0010000000000000009
749000,10718,-3034,127997,-1276,-6197,129204,118,19234,483,0,25752,0.0010000000000000009
750000,4865,-6017,127297,-1241,-6073,129265,146,19233,598,1,25753,0.0010000000000000009
751000,14376,2029,128413,2076,2428,128687,105,19233,430,1,25754,0.0010000000000000009
752001,10478,6144,126587,5121,4803,121156,113,19235,430,1,25755,0.0010009999999999186
753001,9416,1751,127035,-3528,-848,127715,114,19233,463,1,25756,0.0010000000000000009
754002,11334,-3757,125906,1289,-4210,127754,114,19228,467,1,25757,0.0010010000000000296
755000,7379,3468,128723,3086,3399,126083,137,19220,561,0,25758,0.0009980000000000544
756001,10675,585,129612,-480,-1158,129098,106,19231,434,0,25759,0.0010009999999999186
757000,5864,-1148,127236,-5130,-1093,126168,120,19232,491,0,25760,0.0009990000000000832
758000,12258,-1708,128150,2042,-631,129940,115,19232,491,0,25761,0.0010000000000000009
759000,8976,948,126422,4820,406,124430,133,19232,471,0,25762,0.0010000000000000009
760000,7905,3362,127276,-6181,2822,125448,133,19224,545,1,25763,0.0010000000000000009
761000,8979,2723,128660,1060,2860,125769,107,19238,438,1,25764,0.0010000000000000009
762000,11645,3038,127754,2971,2206,125609,103,19229,422,1,25765,0.0010000000000000009
763006,10729,-2422,128178,4170,-4400,130643,106,19233,434,1,25766,0.0010059999999999514
764008,7665,-3859,126418,-1528,-4379,126460,117,19233,434,1,25767,0.0010020000000000584
765000,8883,3470,128397,-2453,2842,125627,119,19228,479,0,25768,0.0009919999999999929
766000,10059,7309,127614,4393,5198,125138,119,19236,487,0,25769,0.0010000000000000009
767001,9398,2665,126990,-1529,1428,125941,118,19230,483,0,25770,0.0010009999999999186
768000,7749,776,127581,-4274,-268,126486,120,19229,491,0,25771,0.0009990000000000832
769003,9792,-2030,125951,2562,-3374,127604,128,19226,524,0,25772,0.0010029999999999761
770000,5038,-1622,127889,4409,-2312,127578,167,19226,524,1,25773,0.0009970000000000256
771003,7257,5303,128582,-10024,5713,125413,104,19237,684,1,25774,0.0010029999999999761
772000,8926,3284,127870,-1497,2881,125697,104,19231,426,1,25775,0.0009970000000000256
773000,9246,4753,126389,4275,3755,124700,105,19232,430,1,25776,0.0010000000000000009
774000,8126,8679,128818,4245,8012,124882,117,19228,479,1,25777,0.0009999999999998899
775000,4605,-11188,126680,-12890,-12426,133122,154,19227,631,0,25778,0.0010000000000000009
776000,9977,5321,131207,-4132,5244,125312,116,19227,631,0,25779,0.0010000000000000009
777000,8302,941,128064,11734,721,128337,116,19227,475,0,25780,0.0010000000000000009
778000,2920,6735,128530,-7047,6010,122072,116,19232,475,0,25781,0.0010000000000000009
779000,7760,-7101,123443,-8901,-7403,132779,118,19226,483,0,25782,0.0010000000000000009
780000,4990,9078,128195,6073,16837,117327,150,19227,614,1,25783,0.0010000000000000009
781000,14029,9740,128354,-7527,-2280,128817,102,19229,418,1,25784,0.0010000000000000009
782000,8718,-6636,127360,6687,-5052,129640,115,19229,418,1,25785,0.0010000000000000009
783001,6223,-5615,127633,-1440,-7973,131445,117,19228,471,1,25786,0.0010010000000000296
784000,6577,-1583,127974,-7205,3886,124243,117,19230,479,1,25787,0.0009989999999999721
785000,3174,8132,127609,1129,3889,126488,142,19220,582,0,25788,0.0010000000000000009
786000,9423,754,128049,-8632,3172,123297,99,19233,405,0,25789,0.0010000000000000009
787001,5151,8483,127038,-5860,4619,124358,124,19230,508,0,25790,0.0010010000000000296
788000,10674,-6069,127835,5907,-9919,132256,125,19230,512,0,25791,0.0009989999999999721
789000,5726,-3129,126781,255,-1730,125839,144,19227,512,0,25792,0.0010000000000000009
790001,5025,-1715,129669,-10910,-4221,129377,160,19227,590,1,25793,0.0010010000000000296
791000,4003,6650,129933,3036,4550,121677,160,19236,655,1,25794,0.0009989999999999721
792000,9571,26,128503,917,-5083,133876,106,19238,434,1,25795,0.0010000000000000009
793000,8639,-4587,126549,-1369,875,121606,111,19232,455,1,25796,0.0010000000000000009
794001,6031,5884,127710,-851,1813,125533,129,19232,528,1,25797,0.0010010000000000296
795000,8751,-4140,127096,-3907,-2604,130356,153,19223,528,0,25798,0.0009989999999999721
796000,8688,5337,128426,2127,2797,125763,120,19235,627,0,25799,0.0010000000000000009
797010,9189,-2726,127155,-510,-3081,129986,120,19229,491,0,25800,0.0010100000000000664
798002,7329,5926,128304,-1665,4271,119418,117,19229,479,0,25801,0.0009919999999999929
799000,10947,-9737,126694,-612,-13592,136855,126,19224,516,0,25802,0.0009979999999999434
800000,7776,-3944,128546,1516,1008,124578,166,19235,680,1,25803,0.0010000000000000009
801000,8354,7330,130150,-2006,4349,125001,113,19235,680,1,25804,0.0010000000000000009
802000,7986,450,128037,-5858,102,127526,116,19230,463,1,25805,0.0010000000000000009
803000,6864,-1321,127554,3732,-4887,129640,116,19223,475,1,25806,0.0010000000000000009
804000,9908,-7458,126315,1017,-5391,130705,115,19230,471,1,25807,0.0010000000000000009
805000,8222,9600,128055,-1461,8668,117687,146,19222,598,0,25808,0.0010000000000000009
806000,9198,-4210,128178,342,-6516,132204,110,19236,451,0,25809,0.0010000000000000009
807000,11581,-283,128354,923,-183,124502,118,19236,451,0,25810,0.0010000000000000009
808000,8184,-670,129781,2974,-5177,130022,118,19235,483,0,25811,0.0010000000000000009
809001,8666,-1551,127416,532,-1401,128632,118,19232,483,0,25812,0.0010010000000000296
810000,7033,2138,128847,-2451,941,125151,141,19233,577,1,25813,0.0009989999999999721
811000,15470,-2360,126647,2575,-2273,130712,96,19234,393,1,25814,0.0010000000000000009
812001,11224,7679,127265,4925,6961,121304,107,19231,438,1,25815,0.0010010000000000296
813002,8843,-3094,126573,-142,-4603,128849,111,19231,438,1,25816,0.0010010000000000296
814001,10329,41,127553,-2764,359,125377,130,19229,455,1,25817,0.0009989999999999721
815002,7519,1065,129626,3882,-387,129903,130,19224,532,0,25818,0.0010010000000000296
816000,11200,249,128703,27,148,128371,95,19236,389,0,25819,0.0009979999999999434
817000,7863,519,127321,-2588,-620,125508,118,19235,483,0,25820,0.0010000000000000009
818000,9896,-2487,127979,407,-3316,129910,116,19232,475,0,25821,0.0010000000000000009
819000,10445,850,126466,3815,440,125538,131,19232,475,0,25822,0.0010000000000000009
820000,6127,3986,128371,-1687,3274,125517,120,19228,537,1,25823,0.0010000000000000009
821000,10639,3387,127569,-3472,3343,125414,120,19236,491,1,25824,0.0010000000000000009
822000,10559,1621,127458,4389,914,126863,101,19231,414,1,25825,0.0010000000000000009
823000,11698,-272,128068,4481,-761,127309,104,19232,426,1,25826,0.0010000000000000009
824000,8137,-4416,125795,-930,-5539,126559,117,19228,479,1,25827,0.0010000000000000009
825000,6802,316,128507,-3136,-433,128439,128,19228,479,0,25828,0.0010000000000000009
826000,11032,3396,127317,4148,2673,124460,115,19238,524,0,25829,0.0010000000000000009
827001,8384,7463,127221,-2986,6199,123784,115,19232,471,0,25830,0.0010010000000000296
828002,7660,792,127684,-846,-4305,128751,115,19231,471,0,25831,0.0010010000000000296
829000,8574,-3498,125697,924,-2216,126680,121,19228,496,0,25832,0.0009979999999999434
830000,6260,2017,129221,-2181,1982,128525,163,19235,668,1,25833,0.0010000000000000009
831000,7650,2164,128495,-3642,-1163,125594,103,19235,668,1,25834,0.0010000000000000009
832000,7362,-233,125127,464,4860,120447,109,19235,422,1,25835,0.0010000000000000009
833000,10593,12132,130043,81,5695,128871,109,19229,446,1,25836,0.0010000000000000009
834000,9815,-7223,123997,6682,-7829,129259,113,19229,463,1,25837,0.0010000000000000009
835000,1281,4295,128754,-21103,6601,122093,143,19225,586,0,25838,0.0010000000000000009
836000,15714,3474,131149,6418,601,128151,110,19230,451,0,25839,0.0010000000000000009
837000,3193,-5449,125929,12631,-10709,133408,117,19230,479,0,25840,0.0010000000000000009
838000,5280,-3526,127314,-18051,-129,125326,122,19233,479,0,25841,0.0010000000000000009
839000,5314,7868,125273,-2265,9545,118843,147,19231,500,0,25842,0.0010000000000000009
840000,7254,15285,128595,250,13186,125049,147,19223,602,1,25843,0.0010000000000000009
841000,15467,-4329,126877,2719,-7614,130885,93,19236,381,1,25844,0.0010000000000000009
842000,3438,-11853,124649,-643,-9978,130038,110,19232,451,1,25845,0.0010000000000000009
843002,6580,602,129524,-9663,-260,126654,114,19232,467,1,25846,0.0010019999999999474
844000,6258,-543,127610,2890,-2260,127459,140,19231,467,1,25847,0.0009980000000000544
845000,5978,2028,128231,-99,3606,129422,111,19226,573,0,25848,0.0010000000000000009
846000,5735,10604,127538,-8137,8899,119034,111,19230,455,0,25849,0.0010000000000000009
847000,4922,1087,124788,-11658,-1980,127226,125,19232,512,0,25850,0.0010000000000000009
848000,11392,-1494,128002,6905,-1953,127822,121,19226,496,0,25851,0.0010000000000000009
849000,7302,-4385,127310,7037,-6273,130185,135,19222,553,0,25852,0.0010000000000000009
850000,4376,108,128543,-14056,-10,126447,179,19222,553,1,25853,0.0010000000000000009
851000,4653,-1723,128724,-4917,-3495,128867,109,19237,733,1,25854,0.0010000000000000009
852000,10718,-1843,127469,8104,250,128580,109,19233,446,1,25855,0.0010000000000000009
853001,8957,9527,128093,-2195,7944,119402,111,19232,455,1,25856,0.0010010000000000296
854000,6213,-3107,125452,-3696,-6100,129190,124,19227,508,1,25857,0.0009989999999999721
855000,6881,-3198,127395,-4725,-3098,129156,160,19236,655,0,25858,0.0010000000000000009
856000,11444,2851,128392,5147,2266,127431,115,19236,655,0,25859,0.0010000000000000009
857000,8784,3787,127909,1128,2684,125027,117,19234,471,0,25860,0.0010000000000000009
858000,5233,-6022,126640,-4511,-7484,129193,117,19229,479,0,25861,0.0010000000000000009
859000,8557,-10744,126585,-5573,-9644,130115,127,19224,520,1,25862,0.0010000000000000009
860000,8760,7382,129049,4097,6616,123397,164,19229,672,1,25863,0.0010000000000000009
861000,9240,2548,128027,608,604,126181,108,19232,442,1,25864,0.0010000000000000009
862000,6720,-4289,127178,-9226,-5278,129729,113,19232,442,1,25865,0.0010000000000000009
863000,7347,-3708,126991,2331,-4931,130652,114,19232,463,1,25866,0.0010000000000000009
864000,9198,4204,128148,5875,3807,124794,114,19230,467,1,25867,0.0010000000000000009
865002,7591,-296,127141,-4297,-1125,125481,141,19221,577,0,25868,0.0010019999999999474
866002,10842,-1898,127661,-3101,-2133,126792,110,19230,451,0,25869,0.0010000000000000009
867002,12090,3543,129480,6092,3145,127422,118,19230,483,0,25870,0.0010000000000000009
868000,9701,-1607,127763,2525,-2920,128044,117,19230,483,0,25871,0.0009980000000000544
869000,6653,-3525,127993,-2156,-4414,128241,138,19231,479,1,25872,0.0010000000000000009
870000,6844,-2657,127903,-3267,-4500,128155,138,19225,565,1,25873,0.0010000000000000009
871000,14419,4059,128448,5755,4534,123899,95,19236,389,1,25874,0.0010000000000000009
872000,10627,2721,126824,2994,2156,126312,108,19232,442,1,25875,0.0010000000000000009
873000,10258,-427,126421,-2200,-1173,124065,112,19233,459,1,25876,0.0010000000000000009
874001,9908,-314,127573,1334,-1032,129728,128,19233,459,0,25877,0.0010009999999999186
875000,8984,-736,128194,2477,3388,127655,102,19226,524,0,25878,0.0009990000000000832
876000,7446,-3192,127658,-2462,1026,127267,102,19234,418,0,25879,0.0010000000000000009
877000,8029,-841,127516,-4491,-1704,127006,117,19230,479,0,25880,0.0010000000000000009
878001,11121,22,126286,3503,308,126506,113,19231,463,0,25881,0.0010009999999999186
879000,9961,-1528,126916,-960,-1111,128293,127,19229,520,0,25882,0.0009990000000000832
880000,7791,3993,127436,-5694,6241,121162,139,19229,569,1,25883,0.0010000000000000009
881000,10624,6035,127862,2054,2180,127691,102,19235,569,1,25884,0.0010000000000000009
882000,10263,-799,127735,3265,-2266,129137,105,19232,418,1,25885,0.0010000000000000009
883000,8558,-3416,127370,1167,-4448,128552,105,19231,430,1,25886,0.0010000000000000009
884000,8746,-1659,127150,-2748,67,126102,114,19228,467,0,25887,0.0010000000000000009
885000,7941,4729,128133,1816,3422,125100,138,19237,565,0,25888,0.0010000000000000009
886001,11467,2562,128008,1304,2486,127825,115,19237,471,0,25889,0.0010009999999999186
887000,8076,3262,127560,-5563,2795,124395,118,19229,471,0,25890,0.0009990000000000832
888000,8454,682,126401,3111,-2683,127339,124,19232,483,0,25891,0.0010000000000000009
889000,7596,-2316,126637,3640,-1316,125931,124,19227,508,0,25892,0.0010000000000000009
890001,6226,2506,128252,-9122,1147,128277,157,19232,643,1,25893,0.0010009999999999186
891000,9573,1782,126404,-3051,1454,125648,102,19231,418,1,25894,0.0009990000000000832
892000,8002,10910,127117,-1388,7394,123167,107,19231,438,1,25895,0.0010000000000000009
893000,9325,-236,126231,8164,2082,122977,113,19234,438,1,25896,0.0009999999999998899
894000,7286,3433,128197,-3456,-756,130069,144,19228,463,1,25897,0.0010000000000000009
895000,8186,-11617,125965,-10826,-10032,132182,144,19222,590,0,25898,0.0010000000000000009
896000,8392,15704,131107,2142,16596,116722,113,19231,463,0,25899,0.0010000000000000009
897000,9943,-227,126190,1886,-4599,131914,118,19230,483,0,25900,0.0010000000000000009
898000,2939,-4055,126112,-3234,-5726,127860,118,19228,483,0,25901,0.0010000000000000009
899000,5409,-9147,124815,-548,-8030,131080,143,19228,483,1,25902,0.0010000000000000009
900000,5305,18688,129383,-10265,21207,115419,87,19220,586,1,25903,0.0010000000000000009
901000,14071,7813,127678,-443,3389,126629,87,19232,356,1,25904,0.0010000000000000009
902000,7712,-10084,127514,7093,-11097,133761,114,19232,467,1,25905,0.0010000000000000009
903002,6353,-7294,125025,-7787,-7854,129105,115,19228,471,1,25906,0.0010020000000000584
904000,5665,1771,129602,-4895,2617,124719,134,19223,549,0,25907,0.0009979999999999434
905000,5199,5545,127806,4371,3323,127833,123,19223,549,0,25908,0.0010000000000000009
906002,8574,2208,127233,-8974,1943,125374,124,19232,504,0,25909,0.0010020000000000584
907000,3748,8474,126620,-8241,6888,122447,124,19232,508,0,25910,0.0009979999999999434
908000,9243,-6251,125944,3785,-8423,131264,121,19231,496,0,25911,0.0010000000000000009
909000,5927,703,126867,972,282,125822,138,19225,565,0,25912,0.0010000000000000009
910000,7347,2016,129899,-8041,2012,129136,178,19237,729,1,25913,0.0010000000000000009
911000,7353,3276,128368,-1158,2484,124047,106,19237,729,1,25914,0.0010000000000000009
912000,8776,-5091,128773,556,-5794,132136,109,19231,434,1,25915,0.0010000000000000009
913000,9512,-2437,125877,-167,-3085,125945,109,19232,446,1,25916,0.0010000000000000009
914000,5647,7817,127753,678,6755,120363,121,19228,496,1,25917,0.0010000000000000009
915000,8099,-2589,127216,-8247,-3900,132288,160,19231,655,0,25918,0.0010000000000000009
916000,10035,614,129082,3686,1524,125636,120,19231,491,0,25919,0.0010000000000000009
917000,9016,347,127087,1116,-1150,124507,121,19231,491,0,25920,0.0010000000000000009
918000,7292,1736,127896,-2058,914,127368,124,19231,496,0,25921,0.0010000000000000009
919001,8929,-12801,126377,-1008,-13424,135292,124,19228,508,1,25922,0.0010010000000000296
920000,8449,1678,128483,-1717,-307,119272,159,19228,651,1,25923,0.0009989999999999721
921000,9068,11616,128038,1623,10228,126407,107,19229,438,1,25924,0.0010000000000000009
922000,7741,-3197,127270,-6056,-6186,129013,117,19231,479,1,25925,0.0010000000000000009
923000,6519,-6882,126573,1891,-7671,132428,117,19231,479,1,25926,0.0010000000000000009
924000,9401,-1864,127971,576,3528,123545,137,19229,479,1,25927,0.0010000000000000009
925000,8191,9771,128790,-732,4567,122436,107,19223,561,0,25928,0.0010000000000000009
926000,8788,-3445,128439,-626,-11530,132774,107,19235,438,0,25929,0.0010000000000000009
927000,12346,-707,128009,1976,1266,125102,117,19234,479,0,25930,0.0010000000000000009
928000,8547,846,128292,4984,-2482,129736,120,19228,491,0,25931,0.0010000000000000009
929000,9301,-2309,127181,-4648,-2577,125911,138,19228,565,1,25932,0.0010000000000000009
930000,6151,642,128373,-335,-1747,129420,89,19227,565,1,25933,0.0010000000000000009
931002,13375,-975,128690,6272,2468,126950,109,19230,365,1,25934,0.0010020000000000584
932000,9887,4998,127208,3502,2010,123429,109,19233,446,1,25935,0.0009979999999999434
933000,9278,-2961,127083,-2726,-4180,128660,108,19235,442,1,25936,0.0010000000000000009
934000,11262,38,127646,622,1345,125046,126,19224,516,0,25937,0.0010000000000000009
935000,7467,2952,129755,3404,2828,129161,116,19224,475,0,25938,0.0010000000000000009
936000,10487,1037,127407,-3189,-2269,127305,122,19232,475,0,25939,0.0010000000000000009
937000,5693,-4637,127120,-879,-4260,128587,118,19233,500,0,25940,0.0010000000000000009
938001,10561,243,128116,2995,875,127301,118,19232,483,0,25941,0.0010010000000000296
939000,9336,1031,126450,1142,211,125714,127,19228,520,1,25942,0.0009989999999999721
940000,7804,4081,127856,-6024,3807,125149,154,19234,631,1,25943,0.0010000000000000009
941000,12372,1930,126563,3801,696,125714,104,19237,426,1,25944,0.0010000000000000009
942001,9802,2703,127001,1992,1372,125207,106,19237,426,1,25945,0.0010010000000000296
943001,10386,-4190,127322,3566,-9296,128801,114,19237,434,1,25946,0.0010000000000000009
944006,7663,-1917,127464,-855,-1668,127807,114,19229,467,0,25947,0.0010050000000000336
945000,7979,6986,128615,-1484,6620,124934,149,19233,610,0,25948,0.0009939999999999394
946000,10556,2487,127707,1865,1529,126158,113,19231,463,0,25949,0.0010000000000000009
947000,8251,2464,126721,-3034,1349,126045,117,19230,479,0,25950,0.0010000000000000009
948001,9435,-311,127383,1556,-1238,126679,120,19230,479,0,25951,0.0010010000000000296
949000,7766,1253,127337,-230,822,125743,152,19228,491,1,25952,0.0009989999999999721
950000,5731,1727,129020,-3091,211,129099,152,19227,623,1,25953,0.0010000000000000009
951000,8207,-3614,124674,-2758,-5730,128097,98,19234,401,1,25954,0.0010000000000000009
952000,7455,10783,127714,-4978,11896,119338,110,19230,451,1,25955,0.0010000000000000009
953000,12922,4159,126618,6322,1725,128572,114,19233,467,1,25956,0.0010000000000000009
954000,5690,-1569,126817,5949,-2029,127139,140,19233,467,0,25957,0.0010000000000000009
955000,7793,-413,129343,-23213,-649,126293,96,19217,573,0,25958,0.0010000000000000009
956000,10222,4500,128982,8976,2282,127666,96,19233,393,0,25959,0.0010000000000000009
957000,5585,-7772,126182,6430,-8999,132504,117,19230,479,0,25960,0.0010000000000000009
958000,6018,6055,127439,-10653,5412,122147,118,19232,483,0,25961,0.0010000000000000009
959000,5423,2934,123869,-4209,1563,123154,142,19223,582,1,25962,0.0010000000000000009
960000,10170,9007,128712,-932,8094,121937,112,19223,582,1,25963,0.0010000000000000009
961000,12915,-7252,126089,2974,-7176,133378,111,19234,459,1,25964,0.0010000000000000009
962000,4203,952,128593,928,-366,124667,111,19232,455,1,25965,0.0010000000000000009
963000,7854,-1732,128288,-9222,-2408,130033,112,19230,459,1,25966,0.0010000000000000009
964000,5494,-7230,126129,2260,-8759,131331,129,19226,528,0,25967,0.0010000000000000009
965000,4795,12911,129921,-2992,12025,125596,137,19234,561,0,25968,0.0010000000000000009
966000,7499,2423,125325,-7365,1335,122122,126,19234,561,0,25969,0.0010000000000000009
967003,4442,4719,127414,-4212,-967,129081,125,19232,516,0,25970,0.0010029999999999761
968000,10113,-8701,128092,1021,-8973,132183,132,19229,512,0,25971,0.0009970000000000256
969000,5614,4535,126705,2955,7685,118876,132,19225,541,0,25972,0.0010000000000000009
970000,5986,16,130517,-8586,-8669,136103,167,19229,684,1,25973,0.0010000000000000009
971000,10686,-9053,126291,-4211,-2191,124335,106,19235,434,1,25974,0.0010000000000000009
972001,7726,5239,128549,7611,2772,128058,114,19235,467,1,25975,0.0010010000000000296
973000,7533,2334,126347,-4715,3409,120452,119,19232,467,1,25976,0.0009989999999999721
974002,6035,3891,126270,-61,-1633,128415,149,19226,487,0,25977,0.0010019999999999474
975000,7003,-6519,127995,201,-4216,133521,149,19228,610,0,25978,0.0009980000000000544
976000,11240,4897,129248,-882,9801,119577,113,19234,463,0,25979,0.0010000000000000009
977000,8713,-5573,126477,2896,-11783,134574,119,19232,487,0,25980,0.0010000000000000009
978000,7730,-6277,127853,107,-3241,124818,123,19232,504,0,25981,0.0010000000000000009
979000,8158,316,127128,-5658,-2693,128909,154,19225,504,1,25982,0.0010000000000000009
980000,6095,3020,129601,684,7393,124605,105,19225,631,1,25983,0.0010000000000000009
981000,8583,7576,126756,693,-1178,126005,105,19233,430,1,25984,0.0010000000000000009
982000,6965,-9279,126298,-5478,-6455,132543,113,19234,463,1,25985,0.0010000000000000009
983000,9906,4379,128346,5552,4196,122288,112,19232,459,1,25986,0.0010000000000000009
984000,9179,-4886,126395,3062,-7865,131679,134,19232,549,0,25987,0.0010000000000000009
985000,9286,2473,128272,-7890,4063,121595,134,19223,549,0,25988,0.0010000000000000009
986000,10710,220,127804,2462,-2529,129689,117,19232,549,0,25989,0.0010000000000000009
987000,10250,1229,127416,2378,2138,126006,117,19230,479,0,25990,0.0010000000000000009
988002,8343,-588,128301,-1091,-5689,129076,117,19230,479,0,25991,0.0010019999999999474
989002,8427,-8994,126623,-294,-7339,131231,129,19225,528,1,25992,0.0010000000000000009
990000,8493,7836,129286,2727,6537,122522,88,19236,360,1,25993,0.0009980000000000544
991000,13264,-107,127868,4574,-1402,129303,109,19236,360,1,25994,0.0010000000000000009
992000,10081,1931,127084,-413,2772,124286,109,19231,446,1,25995,0.0010000000000000009
993000,9841,-2062,126830,2697,-2072,129114,109,19234,446,1,25996,0.0010000000000000009
994002,8981,494,126547,219,2837,123963,122,19223,500,0,25997,0.0010019999999999474
995000,7437,950,129462,-437,-1650,129871,121,19233,496,0,25998,0.0009980000000000544
996000,9785,-3884,127128,-2431,-3617,129017,117,19228,479,0,25999,0.0010000000000000009
997000,8307,1908,128420,2052,1304,126424,116,19228,479,0,26000,0.0010000000000000009
998000,10594,174,127302,3965,-503,127561,125,19233,475,0,26001,0.0010000000000000009
999000,8656,733,126812,-2904,87,125271,125,19226,512,1,26002,0.0010000000000000009
1000000,7270,4513,128786,-4091,4141,125594,158,19234,647,1,26003,0.0010000000000000009
1001000,12479,3769,127015,4685,2444,125464,99,19238,405,1,26004,0.0009999999999998899
1002000,7671,-490,128274,1136,-1670,127300,102,19231,418,1,26005,0.001000000000000112
1003000,10335,-4722,127013,-1868,-5601,129989,110,19231,418,1,26006,0.0009999999999998899
1004000,8317,362,126579,2579,-176,126064,143,19229,451,0,26007,0.001000000000000112
1005002,8930,5653,129149,-412,4688,126123,143,19230,586,0,26008,0.0010019999999999474
1006000,10158,1530,127048,139,1225,125674,113,19232,463,0,26009,0.0009980000000000544
1007000,7915,2266,126703,-4153,1153,125923,118,19238,483,0,26010,0.0009999999999998899
1008001,10378,-5,126807,6003,-296,125737,117,19229,479,0,26011,0.0010010000000000296
1009000,7448,3909,126810,-30,2885,126041,146,19229,479,1,26012,0.0009989999999999721
1010000,5789,1141,128401,-10097,-23,129872,95,19228,598,1,26013,0.001000000000000112
1011000,6628,2452,126695,-142,547,125263,95,19234,389,1,26014,0.0009999999999998899
1012000,8505,-1453,126736,-1924,-1416,126635,108,19234,442,1,26015,0.001000000000000112
1013000,9081,2882,126948,3612,1658,119422,109,19228,446,1,26016,0.0009999999999998899
1014000,9303,4713,127052,864,5242,135720,134,19224,549,0,26017,0.001000000000000112
1015000,6583,-3865,126885,-7578,-5848,117556,108,19224,442,0,26018,0.0009999999999998899
1016000,10238,12544,130146,-7781,-463,130868,115,19232,442,0,26019,0.001000000000000112
1017000,7476,-7711,128263,9945,-6577,129494,115,19235,471,0,26020,0.0009999999999998899
1018001,1286,-3934,126700,-1022,-7634,130106,115,19235,471,0,26021,0.0010010000000000296
1019000,7613,-3638,127361,-12239,8768,122841,133,19226,545,1,26022,0.0009989999999999721
1020000,5016,22480,128855,-2041,17188,116524,121,19238,496,1,26023,0.001000000000000112
1021000,17351,285,128585,4827,-5332,132861,112,19238,459,1,26024,0.0009999999999998899
1022001,3542,-6998,126369,-2367,-8731,128420,112,19236,459,1,26025,0.0010010000000000296
1023000,8086,-8999,127438,-5832,-7063,130790,127,19229,459,1,26026,0.0009989999999999721
1024000,4710,5068,129491,1349,6797,123834,127,19224,520,0,26027,0.001000000000000112
1025000,5005,2287,128730,-710,-664,129482,142,19232,582,0,26028,0.0009999999999998899
1026000,7367,6311,126448,-9596,7369,120317,122,19230,500,0,26029,0.001000000000000112
1027000,4270,9392,127417,-535,122,126379,125,19230,512,0,26030,0.0009999999999998899
1028000,11409,-8084,126056,1663,-4217,128832,132,19231,512,0,26031,0.001000000000000112
1029001,5228,1816,129442,1725,-264,126412,165,19223,541,1,26032,0.0010010000000000296
1030000,7132,-2935,129053,-11955,-2104,128730,165,19229,676,1,26033,0.0009989999999999721
1031000,8159,4537,129175,3598,1773,125931,103,19234,422,1,26034,0.0009999999999998899
1032000,8699,-8689,126676,-763,-9740,133254,108,19231,442,1,26035,0.001000000000000112
1033002,8560,5427,126275,537,8682,117108,115,19231,471,1,26036,0.0010019999999999474
1034001,5681,3541,127541,-5538,-1814,129321,150,19231,471,0,26037,0.0009989999999999721
1035001,9294,-1293,128263,-1544,-79,127029,115,19228,614,0,26038,0.001000000000000112
1036000,8465,-26,128806,4908,-2291,129190,115,19227,471,0,26039,0.0009989999999999721
1037000,8322,-3705,127832,-2982,-1675,126294,120,19231,491,0,26040,0.0009999999999998899
1038000,7993,1500,127248,553,-2448,126297,119,19231,487,0,26041,0.001000000000000112
1039000,9374,-11255,126479,-1205,-9587,133908,146,19224,598,1,26042,0.0009999999999998899
1040000,8249,10049,129171,-33,12247,118418,97,19224,598,1,26043,0.001000000000000112
1041000,8155,2524,127909,-933,-983,128763,118,19231,397,1,26044,0.0009999999999998899
1042000,7155,-1591,127876,-3659,-2187,126573,118,19233,483,1,26045,0.001000000000000112
1043000,7977,-6446,127673,4951,-8977,133539,114,19230,467,1,26046,0.0009999999999998899
1044001,9571,2645,126768,-77,5644,123132,129,19222,528,0,26047,0.0010010000000000296
1045000,7790,9198,128634,-1382,7321,122525,128,19232,524,0,26048,0.0009989999999999721
1046000,12320,-7375,126645,-1189,-8053,131697,119,19232,524,0,26049,0.001000000000000112
1047000,11493,3556,128813,3694,3624,123114,120,19229,487,0,26050,0.0009999999999998899
1048000,8893,-3047,127827,3096,-4571,131569,120,19237,491,0,26051,0.001000000000000112
1049000,8890,22,128058,-3653,-280,123450,133,19231,545,1,26052,0.0009999999999998899
1050000,7448,-2680,128809,1449,-5245,133363,105,19234,430,1,26053,0.001000000000000112
1051000,14328,893,128269,5218,1671,125593,108,19232,442,1,26054,0.0009999999999998899
1052000,9088,5070,126790,3515,3784,122957,108,19232,442,1,26055,0.001000000000000112
1053000,11440,-3502,126519,-2539,-4113,129245,119,19231,442,1,26056,0.0009999999999998899
1054002,9657,1642,127341,1856,1254,124003,119,19228,487,0,26057,0.0010019999999999474
1055005,8583,1828,128748,1887,1408,131541,133,19235,545,0,26058,0.0010030000000000872
1056000,9310,634,128393,-2169,75,123928,118,19229,483,0,26059,0.0009950000000000792
1057002,6716,-4144,128150,67,-4663,130544,116,19232,475,0,26060,0.0010019999999999474
1058000,11850,-1171,127139,2280,-1982,128299,121,19232,475,0,26061,0.0009980000000000544
1059000,7858,2720,127217,1669,2211,125864,153,19224,496,1,26062,0.0009999999999998899
1060003,7985,4865,127979,-6820,4340,125311,153,19233,627,1,26063,0.0010030000000000872
1061002,10579,4265,126637,3233,4111,127345,101,19235,414,1,26064,0.0009989999999999721
1062002,9493,3211,129515,1183,3176,129187,107,19235,438,1,26065,0.0009999999999998899
1063001,9663,-4871,126308,2556,-6126,128014,111,19231,455,1,26066,0.0009989999999999721
1064000,7222,-554,128077,-892,2983,126042,140,19231,573,0,26067,0.0009990000000001942
1065000,9704,6822,127487,-2499,3853,125295,111,19228,573,0,26068,0.0009999999999998899
1066000,9414,3431,127356,3317,3718,125396,115,19231,455,0,26069,0.001000000000000112
1067000,9307,2231,127240,-3445,-254,126930,115,19233,471,0,26070,0.0009999999999998899
1068000,8258,193,127007,-181,-1357,125844,117,19227,479,0,26071,0.001000000000000112
1069001,7624,1164,127722,116,144,128256,143,19225,586,1,26072,0.0010009999999998076
1070000,4648,-4310,126882,2036,-4632,128357,88,19225,360,1,26073,0.0009990000000001942
1071000,7380,5875,127136,-7305,10932,120808,109,19235,360,1,26074,0.0009999999999998899
1072000,10905,5388,127165,2312,459,127462,111,19231,446,1,26075,0.0009999999999998899
1073000,7994,2284,126280,8535,4559,124860,111,19228,455,1,26076,0.001000000000000112
1074000,6777,1771,128324,-14547,-2642,127493,132,19219,541,0,26077,0.0009999999999998899
1075000,6936,-3527,128016,-1086,-2293,126986,120,19233,491,0,26078,0.001000000000000112
1076000,9557,-2306,129403,6715,-4878,132349,116,19235,475,0,26079,0.0009999999999998899
1077002,7201,-1678,128627,-526,1665,123456,119,19235,475,0,26080,0.0010020000000001694
1078000,3905,6775,126549,-9100,1880,123747,135,19234,487,0,26081,0.0009979999999998324
1079000,8415,6682,128317,-3229,5543,125868,135,19227,553,1,26082,0.001000000000000112
1080000,7745,5709,126475,6456,343,125856,128,19235,524,1,26083,0.0009999999999998899
1081000,13255,-3893,128717,-1594,-2870,128257,109,19233,446,1,26084,0.001000000000000112
1082000,5402,-1712,128178,-1233,-5602,128452,110,19231,451,1,26085,0.0009999999999998899
1083000,5877,-10010,126369,-194,-8837,133296,125,19231,451,1,26086,0.001000000000000112
1084000,4179,7882,129800,-7458,10553,120443,166,19225,512,0,26087,0.0009999999999998899
1085000,5155,8506,127420,-2461,5527,125509,166,19233,680,0,26088,0.001000000000000112
1086000,7564,4475,126654,-3327,4025,123376,124,19227,508,0,26089,0.0009999999999998899
1087000,6710,-1619,127864,-351,-4762,129848,124,19225,508,0,26090,0.001000000000000112
1088000,9884,-6739,127028,-650,-5074,127600,130,19227,532,0,26091,0.0009999999999998899
1089000,5309,4165,130571,-274,1750,125631,159,19227,532,1,26092,0.001000000000000112
1090000,4971,-6505,128053,-6473,-7984,133814,97,19221,651,1,26093,0.0009999999999998899
1091000,8012,5854,128177,-2467,6421,120991,97,19234,397,1,26094,0.001000000000000112
1092002,7428,1963,127942,-1619,-509,128810,111,19228,455,1,26095,0.0010019999999999474
1093000,10250,-132,125476,1167,-578,122741,119,19231,487,1,26096,0.0009980000000000544
1094000,8452,-4503,127370,910,-5710,130844,145,19224,594,0,26097,0.0009999999999998899
1095002,9196,-2926,127455,1055,-3492,126862,110,19224,594,0,26098,0.0010020000000001694
1096000,10511,6321,128998,143,4676,124684,118,19235,451,0,26099,0.0009979999999998324
1097000,6972,-4300,126655,914,-5726,131649,118,19230,483,0,26100,0.001000000000000112
1098001,9117,-107,126909,-3673,-773,123418,120,19230,491,0,26101,0.0010010000000000296
1099001,7277,-3063,127714,-407,-3680,129654,146,19224,598,1,26102,0.0009999999999998899
1100000,7730,3104,129192,289,3313,124877,93,19232,381,1,26103,0.0009989999999999721
1101000,8587,-2639,128753,-1446,-2865,129218,117,19232,381,1,26104,0.001000000000000112
1102000,6548,2066,128786,382,1819,126093,111,19230,479,1,26105,0.0009999999999998899
1103000,9117,40,127135,-1363,-931,127594,111,19232,455,1,26106,0.001000000000000112
1104000,8606,-4203,126980,-2055,-5036,129035,125,19228,512,0,26107,0.0009999999999998899
1105000,8091,3214,128707,3169,2703,124070,141,19235,577,0,26108,0.001000000000000112
1106000,10387,-1660,126842,-450,-2704,126000,119,19232,487,0,26109,0.0009999999999998899
1107002,9116,2009,128914,-3146,1484,128398,120,19232,491,0,26110,0.0010020000000001694
1108000,9775,-4821,127744,5890,-5600,131140,127,19229,491,0,26111,0.0009979999999998324
1109000,9294,1440,128057,-5086,-268,123054,113,19224,520,1,26112,0.001000000000000112
1110000,11064,1574,128226,4394,-510,131386,113,19234,463,1,26113,0.0009999999999998899
1111000,10318,-3062,126421,8718,2696,126496,106,19230,434,1,26114,0.001000000000000112
1112000,11755,-982,125468,-5588,340,126718,109,19230,446,1,26115,0.0009999999999998899
1113002,10596,4043,127399,3047,6408,124014,120,19230,491,1,26116,0.0010020000000001694
1114001,8025,3772,127673,5756,-833,127966,153,19229,491,0,26117,0.0009989999999999721
1115000,8030,-5595,128610,-4502,-5583,129946,115,19234,627,0,26118,0.0009989999999999721
1116000,9701,-1284,128927,3719,-2381,127929,115,19236,471,0,26119,0.0009999999999998899
1117001,9504,-1496,127930,1578,-235,127403,116,19233,475,0,26120,0.0010010000000000296
1118000,10242,4597,127773,-1713,3803,123354,118,19231,483,0,26121,0.0009989999999999721
1119000,6848,-99,127069,-425,-988,128772,147,19231,602,1,26122,0.001000000000000112
1120000,7691,2368,127328,-668,1869,124300,99,19231,602,1,26123,0.0009999999999998899
1121003,11135,2999,127356,4585,2426,126207,108,19235,405,1,26124,0.0010030000000000872
1122000,10177,-575,127898,734,-1531,127767,108,19232,442,1,26125,0.0009969999999999146
1123000,10831,-1316,126789,-1035,-1767,126643,109,19229,446,1,26126,0.001000000000000112
1124000,8353,-119,128065,2046,-638,128920,133,19230,545,0,26127,0.0009999999999998899
1125000,9081,3903,126433,1232,3005,124511,107,19233,438,0,26128,0.001000000000000112
1126000,7861,3177,126971,-4602,1662,125219,118,19233,438,0,26129,0.0009999999999998899
1127000,9694,4792,127710,1176,3190,125497,119,19229,483,0,26130,0.001000000000000112
1128000,9211,2128,126815,2172,1455,128913,119,19226,487,0,26131,0.0009999999999998899
1129000,6250,-2129,127286,-6169,-1699,128330,140,19224,573,1,26132,0.001000000000000112
1130000,4847,3278,128795,-954,3834,124666,108,19239,442,1,26133,0.0009999999999998899
1131000,7892,2298,128443,-1527,-552,129191,107,19233,438,1,26134,0.001000000000000112
1132000,7623,-4361,125529,1245,-1728,122829,109,19233,438,1,26135,0.0009999999999998899
1133000,10835,15310,129787,4158,13511,122663,129,19231,446,1,26136,0.001000000000000112
1134000,8271,-9685,124207,-2229,-11804,133361,129,19224,528,0,26137,0.0009999999999998899
1135000,4704,9843,131417,-16330,11311,118264,131,19235,537,0,26138,0.001000000000000112
1136000,14929,-4299,127945,12424,-6837,134668,116,19227,475,0,26139,0.0009999999999998899
1137000,-782,-2373,127647,8858,-3771,127717,114,19230,467,0,26140,0.001000000000000112
1138000,8550,-9174,124597,-22739,-9626,129928,126,19230,467,0,26141,0.0009999999999998899
1139000,3199,13183,127620,5937,16443,117427,157,19225,516,1,26142,0.001000000000000112
1140000,12376,16431,127042,-2356,11156,124785,157,19237,643,1,26143,0.0009999999999998899
1141000,11455,-6231,127849,2608,-7188,128405,110,19234,451,1,26144,0.001000000000000112
1142000,2815,-5817,125797,-690,-7204,130673,113,19231,463,1,26145,0.0009999999999998899
1143000,11577,-3278,129516,-7366,-2607,127854,123,19228,504,1,26146,0.001000000000000112
1144003,390,5407,128891,5713,3740,126536,160,19228,504,0,26147,0.0010029999999998651
1145000,12496,-388,128985,-5670,1338,131811,120,19237,655,0,26148,0.0009970000000001367
1146000,1450,10311,126418,-5274,10632,116944,120,19230,491,0,26149,0.0009999999999998899
1147000,10185,-480,128448,-6185,-1610,129432,123,19228,504,0,26150,0.001000000000000112
1148000,10459,-3577,125299,7305,-4481,127355,129,19234,528,0,26151,0.0009999999999998899
1149000,2541,-4275,129815,-1388,-5054,131457,157,19221,643,1,26152,0.001000000000000112
1150000,8026,3141,128908,-15333,2585,123331,91,19221,643,1,26153,0.0009999999999998899
1151000,6044,-2121,127537,10157,-3717,131102,110,19233,373,1,26154,0.001000000000000112
1152000,12130,-4713,127154,-4490,-5359,129417,110,19230,451,1,26155,0.0009999999999998899
1153000,3893,9385,127024,1059,8596,125969,113,19231,463,1,26156,0.001000000000000112
1154000,8151,-3201,127163,-6887,-4479,129439,141,19225,577,0,26157,0.0009999999999998899
1155000,9480,2713,128371,52,623,127712,100,19235,410,0,26158,0.001000000000000112
1156000,7997,-3382,127390,6330,-4693,129510,118,19235,483,0,26159,0.0009999999999998899
1157002,10027,4750,128194,-5226,3502,121240,120,19225,483,0,26160,0.0010019999999999474
1158000,5914,-7819,126384,2737,-12969,137048,140,19228,491,0,26161,0.0009980000000000544
1159000,11931,-3700,128025,-4446,5425,121676,140,19221,573,1,26162,0.001000000000000112
1160001,5989,10400,129678,4072,5815,123927,95,19232,389,1,26163,0.0010009999999998076
1161000,10080,1324,128751,-4648,-4240,128455,113,19232,463,1,26164,0.0009990000000001942
1162000,8102,-3073,128020,6089,-9444,130643,115,19232,471,1,26165,0.0009999999999998899
1163000,7812,-6777,127311,1758,-1324,131289,126,19233,471,1,26166,0.001000000000000112
1164000,9690,6509,127971,-1801,6977,117747,155,19228,516,0,26167,0.0009999999999998899
1165000,5302,705,128505,-1972,-4151,130968,155,19238,635,0,26168,0.001000000000000112
1166001,15744,-3401,127286,1589,61,127031,114,19231,467,0,26169,0.0010009999999998076
1167000,7831,2146,128364,6385,679,125647,115,19233,471,0,26170,0.0009990000000001942
1168000,10215,-1520,128216,-5389,-3861,129132,125,19233,512,0,26171,0.0009999999999998899
1169001,6698,-4215,128032,197,-4884,128597,133,19228,512,1,26172,0.0010010000000000296
1170000,11788,-1139,127965,2760,612,130980,106,19239,545,1,26173,0.0009989999999999721
1171000,13149,5835,127111,3034,5351,121359,106,19230,434,1,26174,0.001000000000000112
1172000,7568,717,126320,-1332,-866,126468,108,19233,442,1,26175,0.0009999999999998899
1173002,13441,92,126709,-279,-1252,127462,114,19228,467,1,26176,0.0010019999999999474
1174002,6804,451,127952,4750,1477,127096,147,19232,602,0,26177,0.001000000000000112
1175000,11355,3301,130513,-1413,1362,127607,113,19232,602,0,26178,0.0009980000000000544
1176000,6324,-4570,127406,-2720,-6360,128701,118,19230,463,0,26179,0.0009999999999998899
1177000,9248,-1692,129196,799,-1525,128555,118,19230,483,0,26180,0.001000000000000112
1178000,10504,418,126630,4988,-2203,126827,120,19226,491,0,26181,0.0009999999999998899
1179001,7454,8640,127930,-7299,4885,122274,145,19225,594,1,26182,0.0010010000000000296
1180000,10105,4325,128560,1758,4094,126624,94,19237,385,1,26183,0.0009989999999999721
1181000,11067,2233,127327,3614,1543,125780,103,19237,385,1,26184,0.001000000000000112
1182000,11336,-290,128532,2854,-2603,128756,103,19236,422,1,26185,0.0009999999999998899
1183000,7221,-5116,126480,-683,-4903,128458,103,19230,422,1,26186,0.001000000000000112
1184000,8389,2334,128267,-2405,2263,125045,133,19221,545,0,26187,0.0009999999999998899
1185000,10662,5873,127505,2878,4370,127095,105,19233,430,0,26188,0.001000000000000112
1186000,9467,4565,126863,-2639,3264,124073,113,19229,463,0,26189,0.0009999999999998899
1187000,8428,1902,127541,-626,1411,126725,116,19229,463,0,26190,0.001000000000000112
1188000,9064,-832,126253,-563,-2060,127909,136,19228,475,0,26191,0.0009999999999998899
1189000,6484,-4617,126763,3120,-5131,128155,136,19222,557,1,26192,0.001000000000000112
1190000,6508,5820,129220,-5353,6929,124856,125,19236,512,1,26193,0.0009999999999998899
1191000,8909,4053,127218,-3833,3365,125474,109,19232,446,1,26194,0.0009999999999998899
1192002,9818,1344,126306,3160,1037,125395,110,19236,451,1,26195,0.0010020000000001694
1193000,9293,7688,128437,8518,6430,123788,125,19236,451,1,26196,0.0009979999999998324
1194000,3381,-8775,126705,-13859,-9957,130358,141,19221,512,0,26197,0.001000000000000112
1195000,11171,-577,130361,-7685,-178,126841,141,19231,577,0,26198,0.0009999999999998899
1196000,7833,546,128912,18511,-1262,128949,115,19228,471,0,26199,0.001000000000000112
1197000,2899,7345,128014,-9339,6891,121211,118,19231,483,0,26200,0.0009999999999998899
1198000,9168,-915,124314,-14158,-2449,128443,127,19224,520,0,26201,0.001000000000000112
1199000,3988,3760,127363,13603,2262,125092,169,19224,692,1,26202,0.0009999999999998899
1200000,14141,10958,127391,-8880,9344,125635,108,19237,692,1,26203,0.001000000000000112
1201000,9707,-5074,127561,558,-6197,132080,111,19232,442,1,26204,0.0009999999999998899
1202000,5197,-7070,127746,6164,-8321,131065,111,19232,455,1,26205,0.001000000000000112
1203000,7180,-2534,127418,-9601,-3789,124671,120,19230,491,1,26206,0.0009999999999998899
1204000,1666,10720,128681,-2003,8967,125668,155,19233,635,0,26207,0.001000000000000112
1205000,9939,1842,127289,-742,1850,124121,119,19233,487,0,26208,0.0009999999999998899
1206000,5473,6082,127377,-7401,3022,125242,128,19231,487,0,26209,0.001000000000000112
1207000,10491,-2951,128602,-66,-7096,129497,127,19229,524,0,26210,0.0009999999999998899
1208000,5547,-2525,126798,6453,-2901,127999,127,19227,520,0,26211,0.001000000000000112
1209000,5228,-4003,129109,-14195,-4104,130654,152,19219,623,1,26212,0.0009999999999998899
1210000,5580,3278,128717,4280,6431,122335,99,19233,405,1,26213,0.001000000000000112
1211000,8827,3106,128131,632,-2651,131432,110,19233,451,1,26214,0.0009999999999998899
1212000,10124,-7160,126913,-4735,-2152,123112,114,19232,451,1,26215,0.001000000000000112
1213000,6097,2111,128077,1999,-2952,127231,139,19231,467,1,26216,0.0009999999999998899
1214000,8743,715,128065,-2944,820,129060,139,19222,569,0,26217,0.001000000000000112
1215000,8318,5271,127388,33,2171,125528,107,19225,438,0,26218,0.0009999999999998899
1216001,8427,-3090,126970,-1736,-4413,131736,117,19230,479,0,26219,0.0010010000000000296
1217000,8475,1563,127497,1582,1997,120411,119,19228,487,0,26220,0.0009989999999999721
1218000,9124,-2568,126916,-2204,-7245,132616,137,19228,487,0,26221,0.001000000000000112
1219000,8691,-5913,128122,-551,-2363,127068,115,19222,561,1,26222,0.0009999999999998899
1220000,8414,5356,129537,-138,3919,124091,115,19227,471,1,26223,0.001000000000000112
1221001,9358,2549,128114,-6505,500,128234,113,19231,463,1,26224,0.0010010000000000296
1222000,6048,-387,127331,5445,-3767,127650,111,19233,455,1,26225,0.0009989999999999721
1223001,8783,-7100,126694,-767,-7335,132116,121,19228,496,1,26226,0.0010010000000000296
1224000,8417,4927,128147,-2534,6847,119058,160,19228,496,0,26227,0.0009989999999999721
1225000,9146,3524,129328,3122,-148,128033,118,19234,655,0,26228,0.0009999999999998899
1226000,11814,-3903,128062,-939,-3201,129171,118,19228,483,0,26229,0.001000000000000112
1227000,8128,-2035,128709,1189,-3343,127784,119,19225,487,0,26230,0.0009999999999998899
1228000,9857,-3001,127657,1677,-3408,129384,123,19230,504,0,26231,0.001000000000000112
1229000,7722,-747,128078,-449,39,126008,146,19238,598,1,26232,0.0009999999999998899
1230000,14543,-3266,128277,1566,-3200,130253,103,19238,598,1,26233,0.001000000000000112
1231000,11382,5505,126477,724,4315,123707,109,19231,422,1,26234,0.0009999999999998899
1232000,8387,568,126649,4126,-1271,127204,109,19232,446,1,26235,0.001000000000000112
1233001,9395,-62,126801,-954,-443,126953,116,19228,475,1,26236,0.0010010000000000296
1234000,6763,-1038,128549,-2177,-2311,128569,148,19233,606,0,26237,0.0009989999999999721
1235000,12746,1359,129144,2226,925,127287,115,19232,471,0,26238,0.0009999999999998899
1236000,8474,582,127513,2241,-1106,126363,118,19232,471,0,26239,0.001000000000000112
1237000,8805,-454,127899,-3791,-1075,127327,117,19232,483,0,26240,0.0009999999999998899
1238000,9712,-768,126898,1990,-1334,127084,117,19227,479,0,26241,0.001000000000000112
1239000,6331,2762,127638,950,2055,126899,142,19226,582,1,26242,0.0009999999999998899
1240000,10102,3906,128684,-1969,3740,124426,89,19234,365,1,26243,0.001000000000000112
1241000,10218,-172,126841,2350,-882,126666,105,19231,430,1,26244,0.0009999999999998899
1242002,12630,739,127168,2424,-249,126751,107,19231,438,1,26245,0.0010020000000001694
1243002,10049,131,126758,1935,-719,126242,129,19233,438,1,26246,0.0009999999999998899
1244002,7115,3057,128056,-3195,1787,126751,97,19222,528,0,26247,0.001000000000000112
1245000,9136,2012,127536,1615,1242,127220,97,19231,397,0,26248,0.0009979999999998324
1246002,7290,3096,126814,-2888,2077,126302,118,19236,483,0,26249,0.0010020000000001694
1247000,10547,-4487,125918,1322,-5223,127206,115,19224,471,0,26250,0.0009979999999998324
1248000,8741,1234,126837,1353,662,123597,135,19224,553,0,26251,0.001000000000000112
1249000,7060,4312,128003,-4969,3847,127340,129,19226,553,1,26252,0.0009999999999998899
1250000,8297,909,129041,-2006,1541,129757,107,19233,528,1,26253,0.001000000000000112
1251001,5826,-3539,125272,3889,-5142,120838,107,19231,438,1,26254,0.0010010000000000296
1252000,11402,11919,129415,-5246,7900,127440,109,19231,446,1,26255,0.0009989999999999721
1253001,9417,-3796,125060,7694,-6791,129291,124,19224,508,1,26256,0.0010010000000000296
1254000,2846,1779,128379,-5977,4552,123169,162,19224,664,0,26257,0.0009989999999999721
1255000,14636,3789,131127,-14994,1167,128078,118,19234,664,0,26258,0.0009999999999998899
1256000,2783,-3549,126365,20768,-9242,132383,117,19232,483,0,26259,0.001000000000000112
1257000,6601,-5644,126671,-15653,386,126080,117,19232,479,0,26260,0.0009999999999998899
1258003,4675,7543,125704,-1316,10653,118759,127,19229,520,0,26261,0.0010030000000000872
1259001,7416,14712,127927,-2547,10127,126048,159,19229,651,1,26262,0.0009980000000000544
1260002,15080,-2877,126832,6146,-8601,130221,106,19234,434,1,26263,0.0010009999999998076
1261002,4791,-8139,125454,-3776,-5229,128334,114,19234,434,1,26264,0.001000000000000112
1262002,7819,4163,130072,-7909,1642,125260,120,19230,467,1,26265,0.0009999999999998899
1263000,3985,-305,128250,4563,-3409,130565,120,19227,491,1,26266,0.0009980000000000544
1264000,7883,-792,127226,-5631,3840,128329,152,19222,623,0,26267,0.001000000000000112
1265000,4245,10265,128684,-5407,8860,118823,117,19229,479,0,26268,0.0009999999999998899
1266000,6085,2361,125973,-11035,-2535,127735,125,19231,512,0,26269,0.001000000000000112
1267000,11449,-4210,127593,10178,-4789,130270,127,19231,512,0,26270,0.0009999999999998899
1268000,5666,-3625,128039,877,-4115,127487,150,19231,520,0,26271,0.001000000000000112
1269000,7245,4311,128487,-13754,4886,124179,150,19220,614,1,26272,0.0009999999999998899
1270000,2480,-3334,128395,1947,-7235,132415,134,19232,549,1,26273,0.001000000000000112
1271000,12714,-5315,127262,2037,-999,127494,112,19229,459,1,26274,0.0009999999999998899
1272000,7117,9362,127965,885,7098,120817,114,19230,467,1,26275,0.001000000000000112
1273000,6881,-688,126331,-5630,-3117,127642,134,19230,467,1,26276,0.0009999999999998899
1274000,8383,-4745,127508,-2161,-4970,130841,133,19228,549,0,26277,0.001000000000000112
1275000,8971,1930,127692,4405,3037,127742,133,19236,545,0,26278,0.0009999999999998899
1276000,10822,6545,128304,-1730,4546,122815,120,19231,491,0,26279,0.001000000000000112
1277000,4701,-3897,127133,-1322,-7169,130258,118,19228,483,0,26280,0.0009999999999998899
1278000,12572,-9271,127138,-2945,-8240,130596,134,19227,549,0,26281,0.001000000000000112
1279000,6321,5994,128867,5368,6628,123219,121,19227,549,1,26282,0.0009999999999998899
1280000,8801,8260,129984,-4943,6123,126099,113,19235,496,1,26283,0.001000000000000112
1281000,8162,-7355,126114,-7399,-7916,132108,113,19230,463,1,26284,0.0009999999999998899
1282002,6616,-959,128255,5109,-977,128436,113,19233,463,1,26285,0.0010019999999999474
1283002,10822,2921,127260,3186,2031,125103,120,19227,491,1,26286,0.001000000000000112
1284002,5556,-379,127487,-3492,-1300,125779,156,19235,639,0,26287,0.0009999999999998899
1285000,12270,-3439,128340,-3486,-3561,128362,113,19235,639,0,26288,0.0009980000000000544
1286000,11422,2102,128137,7236,2320,126483,114,19230,463,0,26289,0.001000000000000112
1287000,9533,4089,129005,756,2463,125392,114,19232,467,0,26290,0.0009999999999998899
1288000,7890,-9542,126087,-2693,-11314,131931,122,19228,500,1,26291,0.001000000000000112
1289000,6493,-1711,128795,-1742,-1735,127159,153,19240,627,1,26292,0.0009999999999998899
1290000,15668,3685,128618,7140,4242,127016,104,19235,426,1,26293,0.001000000000000112
1291001,8370,3415,126283,968,2370,123589,110,19235,451,1,26294,0.0010009999999998076
1292000,10900,-2083,127107,-3696,-2888,127504,113,19231,451,1,26295,0.0009990000000001942
1293000,9138,-803,126522,3960,-1513,127548,139,19228,463,0,26296,0.0009999999999998899
1294000,9335,6226,129750,1307,5794,125724,139,19229,569,0,26297,0.001000000000000112
1295001,8885,-5056,127390,-1541,-6190,127026,111,19230,455,0,26298,0.0010009999999998076
1296000,8302,686,128284,-4479,43,127350,120,19228,491,0,26299,0.0009990000000001942
1297000,10591,107,128626,6276,-240,126768,118,19228,483,0,26300,0.0009999999999998899
1298000,8932,596,126079,1840,-303,124940,136,19228,483,0,26301,0.001000000000000112
1299000,7345,4310,128762,-7082,4618,124683,93,19224,557,1,26302,0.0009999999999998899
1300000,10554,5028,127338,1133,3561,126095,93,19236,381,1,26303,0.001000000000000112
1301000,12178,787,127562,5297,-2632,129717,103,19237,422,1,26304,0.0009999999999998899
1302002,7990,-3668,127092,1566,-4978,126958,105,19233,430,1,26305,0.0010019999999999474
1303000,9784,-1173,126361,-2835,916,125992,125,19233,512,0,26306,0.0009980000000000544
1304000,8013,4781,128027,1729,3853,126482,110,19228,512,0,26307,0.001000000000000112
1305001,11669,2388,127232,-150,1991,126929,115,19233,451,0,26308,0.0010009999999998076
1306000,7956,2685,126724,-6508,3977,124396,115,19232,471,0,26309,0.0009990000000001942
1307000,8412,2747,127801,2986,-1257,126724,114,19232,467,0,26310,0.0009999999999998899
1308003,8360,-4692,125746,5716,-5197,127884,129,19224,528,0,26311,0.0010030000000000872
1309000,5051,2210,128057,-11393,4533,125703,161,19236,659,1,26312,0.0009969999999999146
1310002,10570,3083,127803,-2186,899,126457,107,19236,659,1,26313,0.0010019999999999474
1311000,8060,5850,126723,736,3458,125208,108,19237,438,1,26314,0.0009980000000000544
1312000,10256,3279,127533,6343,4402,121426,108,19231,442,1,26315,0.0009999999999998899
1313000,5939,178,126586,-4294,-9243,133474,119,19224,487,1,26316,0.001000000000000112
1314000,6226,-9507,127470,-14968,-8046,126582,157,19236,643,0,26317,0.0009999999999998899
1315000,10614,11775,130696,7158,10322,123988,114,19229,467,0,26318,0.001000000000000112
1316000,7518,3241,126294,2318,2909,125621,117,19229,467,0,26319,0.0009999999999998899
1317000,3598,1506,126932,-11445,-4792,128191,124,19236,479,0,26320,0.001000000000000112
1318000,6476,-9070,124197,4690,-4884,129055,124,19227,508,1,26321,0.0009999999999998899
1319000,6761,18433,129272,-7106,18383,117170,155,19233,635,1,26322,0.001000000000000112
1320000,15138,2851,128217,167,-1799,129095,105,19236,430,1,26323,0.0009999999999998899
1321002,6109,-6377,127488,3248,-8233,130725,111,19232,455,1,26324,0.0010020000000001694
1322000,7528,-7857,127073,-4754,-6881,131599,115,19232,455,1,26325,0.0009979999999998324
1323001,4715,5359,128644,-4768,6791,121704,145,19230,471,0,26326,0.0010010000000000296
1324001,5296,3200,128046,2248,1071,129536,145,19230,594,0,26327,0.001000000000000112
1325001,7685,4740,127263,-9802,4994,122131,116,19231,475,0,26328,0.0009999999999998899
1326000,5901,5927,127019,-4961,3166,126023,127,19231,520,0,26329,0.0009989999999999721
1327001,9424,-7565,126439,5306,-8361,130495,122,19228,500,0,26330,0.0010010000000000296
1328000,6276,-1810,126992,789,-2471,126257,145,19228,500,0,26331,0.0009989999999999721
1329000,6705,-1645,129146,-11314,-1241,129245,135,19222,594,1,26332,0.001000000000000112
1330000,5999,5131,128796,829,3730,122876,135,19234,553,1,26333,0.0009999999999998899
1331000,9458,-6860,127773,-172,-9694,133480,111,19233,455,1,26334,0.001000000000000112
1332000,8255,2091,126646,-586,2834,121374,113,19234,463,1,26335,0.0009999999999998899
1333000,7052,4085,126770,-2546,1560,125270,131,19225,537,0,26336,0.001000000000000112
1334000,7542,-1410,127701,-2427,-2035,129750,129,19225,537,0,26337,0.0009999999999998899
1335000,9945,1210,128456,2163,920,127391,118,19236,528,0,26338,0.001000000000000112
1336000,8674,-239,127087,-962,-957,127335,118,19232,483,0,26339,0.0009999999999998899
1337000,6967,3783,128583,-2406,2030,122236,115,19231,471,0,26340,0.001000000000000112
1338000,10552,-12841,126404,872,-13615,136150,132,19227,541,1,26341,0.0009999999999998899
1339000,6653,3569,129033,70,3482,124225,143,19236,586,1,26342,0.001000000000000112
1340000,9616,5844,128411,-2789,3927,124012,111,19236,455,1,26343,0.0009999999999998899
1341000,7454,-30,127229,-3832,-896,127701,112,19232,455,1,26344,0.001000000000000112
1342000,7499,-6484,126570,3498,-7541,133059,115,19233,459,1,26345,0.0009999999999998899
1343000,9189,-974,126780,249,-2069,120065,115,19229,471,1,26346,0.001000000000000112
1344000,7769,8373,128803,-1682,7856,126563,149,19226,610,0,26347,0.0009999999999998899
1345000,12346,-6343,127141,109,-6701,129594,113,19227,463,0,26348,0.001000000000000112
1346000,10409,415,128157,1591,-781,126957,119,19227,487,0,26349,0.0009999999999998899
1347000,8862,-3587,128048,2442,-2626,129138,121,19227,487,0,26350,0.001000000000000112
1348000,6886,-2312,127461,-1031,-2597,126342,146,19225,496,1,26351,0.0009999999999998899
1349000,7013,-31,129010,-1503,-4542,132016,146,19235,598,1,26352,0.001000000000000112
1350000,13735,929,127435,2378,6245,122075,97,19236,397,1,26353,0.0009999999999998899
1351000,8820,6496,127442,2317,559,126744,106,19231,434,1,26354,0.001000000000000112
1352000,10871,-4095,126549,-2493,-3910,126737,110,19231,451,1,26355,0.0009999999999998899
1353000,9501,1074,127009,2854,201,127296,138,19232,451,0,26356,0.001000000000000112
1354000,8680,546,128909,343,936,129306,110,19226,565,0,26357,0.0009999999999998899
1355000,9555,2510,127153,-829,-382,124408,110,19233,451,0,26358,0.001000000000000112
1356000,6741,-1636,128204,-1010,-4659,131187,117,19231,479,0,26359,0.0009999999999998899
1357000,11560,-2421,127000,2475,-350,125683,114,19233,467,0,26360,0.001000000000000112
1358000,8170,2458,126911,1307,2655,125785,135,19224,553,1,26361,0.0009999999999998899
1359000,8305,3477,128430,-6232,2919,125512,105,19224,553,1,26362,0.001000000000000112
1360001,11008,2382,126702,3373,1296,125322,107,19238,430,1,26363,0.0010010000000000296
1361000,9406,1874,127992,1632,255,129339,107,19233,438,1,26364,0.0009989999999999721
1362001,9847,-1824,126464,963,-4096,126023,105,19234,430,1,26365,0.0010010000000000296
1363000,8262,-1389,127170,-1489,-580,128256,120,19228,491,0,26366,0.0009989999999999721
1364000,9040,2265,127873,693,3511,126385,117,19234,479,0,26367,0.0009999999999998899
1365000,9428,1272,129019,1074,3826,124911,120,19234,479,0,26368,0.001000000000000112
1366000,8093,4163,126985,-2748,848,126972,117,19227,491,0,26369,0.0009999999999998899
1367000,8594,-2819,125710,1092,-2856,126404,117,19231,479,0,26370,0.001000000000000112
1368000,7531,3807,127262,-71,3417,126390,130,19236,532,1,26371,0.0009999999999998899
1369000,5051,2158,128996,-7038,513,127926,164,19237,672,1,26372,0.001000000000000112
1370000,9062,-2864,124323,-73,-5172,127256,110,19237,451,1,26373,0.0009999999999998899
1371000,6033,7330,128182,-951,9612,120519,109,19237,451,1,26374,0.001000000000000112
1372000,14027,4742,125847,2738,1173,128371,119,19230,446,1,26375,0.0009999999999998899
1373001,6000,-2468,127293,3922,-2321,127236,119,19221,487,0,26376,0.0010010000000000296
1374002,7416,2172,129385,-19830,1570,124449,155,19229,635,0,26377,0.0010010000000000296
1375000,11021,3671,128639,9232,604,129177,116,19236,475,0,26378,0.0009980000000000544
1376000,2891,-8620,126604,3552,-10195,132234,115,19233,471,0,26379,0.0009999999999998899
1377003,6936,4506,127049,-10970,4923,122450,121,19233,471,0,26380,0.0010030000000000872
1378000,5101,8399,125302,-2548,7752,121585,152,19228,496,1,26381,0.0009969999999999146
1379000,10705,10914,129500,-2009,8409,124559,152,19231,623,1,26382,0.001000000000000112
1380000,11818,-9271,125803,4696,-8839,133095,101,19233,414,1,26383,0.0009999999999998899
1381000,3979,-1272,128446,-2644,-651,126044,112,19231,459,1,26384,0.001000000000000112
1382001,8477,-3701,127615,-7518,-3899,129649,115,19228,471,1,26385,0.0010010000000000296
1383000,5518,-3836,127642,2456,-4355,128734,144,19228,590,0,26386,0.0009989999999999721
1384000,5925,9635,128449,-3031,9644,124500,115,19224,590,0,26387,0.0009999999999998899
1385000,5301,7112,126676,-6610,5560,122551,123,19228,471,0,26388,0.001000000000000112
1386001,5550,659,126513,-7604,-447,125021,123,19230,504,0,26389,0.0010010000000000296
1387000,11533,-7012,128629,4259,-7039,132600,121,19229,496,0,26390,0.0009989999999999721
1388000,6140,-380,127471,3732,-1520,125873,141,19224,577,0,26391,0.0009999999999998899
