t_us,ax,ay,az,ax1,ay1,az1,shunt_raw,bus_raw,curr_raw,pg_rpm,seq,dt
0,11864,-7700,116986,23893,-9423,124890,583,19166,2388,0,55723,
998,-206,-13779,119831,18600,-12575,120684,481,19170,1970,0,55724,0.000998
1998,844,-10015,115393,-37469,-11449,121675,620,19136,2539,1,55725,0.0009999999999999998
2998,785,18103,125098,-1895,16829,110488,438,19136,2539,1,55726,0.001
3999,21662,35360,122454,11964,35534,107615,546,19181,1794,1,55727,0.0010010000000000002
4999,5674,-14556,121357,-3917,-15830,132209,546,19151,2236,0,55728,0.001
5999,6268,-6080,125184,-14528,-9108,118725,481,19175,1970,0,55729,0.001
7003,6186,-6028,130570,9772,-7020,137664,597,19148,2445,1,55730,0.0010039999999999997
7998,509,17456,137114,-11925,17052,118937,474,19186,1941,1,55731,0.0009950000000000002
8998,1727,-5047,130204,-6975,-5337,143013,526,19186,1941,1,55732,0.0009999999999999992
9998,-4674,3925,133226,-19591,-1823,134283,572,19155,2154,0,55733,0.0010000000000000009
10999,10374,12185,137998,-4428,16547,141049,572,19182,2343,0,55734,0.0010010000000000002
11998,7968,-6892,133888,9303,-10408,137307,553,19162,2265,1,55735,0.0009989999999999999
12998,8291,6112,140319,-8964,4994,140989,500,19193,2048,1,55736,0.0009999999999999992
13998,10374,-11695,138294,-10301,-12232,143466,520,19163,2130,1,55737,0.0010000000000000009
14998,1525,12718,140621,2013,5917,138392,702,19163,2130,0,55738,0.0009999999999999992
15998,4866,-20123,137333,4614,-20203,146990,542,19194,2875,0,55739,0.0009999999999999992
16998,2685,7556,135269,-13780,15280,122319,542,19166,2220,1,55740,0.0010000000000000009
17998,11090,7707,137756,-7739,-2542,143723,698,19202,2859,1,55741,0.0010000000000000009
19000,21194,-5853,128803,13915,-1451,125385,468,19174,1917,1,55742,0.0010019999999999994
19998,7848,-1931,130445,1633,-7744,136283,649,19189,2658,0,55743,0.0009979999999999989
20999,12073,-17176,125452,-2399,-15629,131295,540,19189,2658,0,55744,0.0010010000000000019
22000,9777,2824,124696,3333,4290,124603,671,19167,2212,1,55745,0.0010009999999999984
23000,8525,-8830,129900,5444,-1507,131501,671,19166,2748,1,55746,0.0010000000000000009
23998,14217,12799,117900,-2166,11847,104968,450,19176,1843,1,55747,0.0009979999999999989
25001,6165,-5081,118233,3020,-9394,123730,591,19170,2421,0,55748,0.0010030000000000004
26000,18859,-6710,116262,13901,-270,112281,494,19172,2023,0,55749,0.0009989999999999999
27000,15288,-3420,113968,23157,-6851,121630,622,19172,2548,1,55750,0.0010000000000000009
27998,1618,13957,123083,-30134,14756,107361,391,19140,2548,1,55751,0.0009979999999999989
28998,28415,5130,121340,1539,2263,107915,567,19167,1601,1,55752,0.0010000000000000009
29998,-2115,-1752,117493,48338,-5349,130644,567,19151,2322,0,55753,0.0010000000000000009
31029,6525,-11806,118158,-34205,-14900,111340,411,19173,1683,0,55754,0.0010309999999999972
31998,2689,7868,115304,-13858,11012,112225,598,19150,2449,1,55755,0.0009690000000000011
33004,3479,24895,125989,19127,24091,116803,502,19150,2056,1,55756,0.001006
34000,22553,8247,121297,-11535,5925,109312,536,19185,2056,1,55757,0.0009959999999999969
34998,-1626,-1700,125086,-4235,-7496,135489,545,19155,2195,0,55758,0.0009980000000000058
35998,9360,-19511,124161,2160,-19127,131580,545,19174,2232,0,55759,0.000999999999999994
36998,3611,11846,126962,-2918,14112,119407,572,19156,2343,1,55760,0.0010000000000000009
37998,-1917,17206,137148,-9542,16125,131217,511,19187,2093,1,55761,0.0010000000000000009
38998,15703,3805,129924,-20601,3864,123929,512,19187,2097,1,55762,0.0010000000000000009
39998,-3499,-2947,134507,3809,-5163,145356,672,19165,2097,0,55763,0.0010000000000000009
40998,9241,-15993,138289,-1622,-14225,137962,551,19189,2752,0,55764,0.0010000000000000009
41998,-571,4088,134870,-6358,1479,134964,551,19168,2257,1,55765,0.0010000000000000009
43001,3265,7225,140479,-10487,3212,142688,571,19196,2339,1,55766,0.001002999999999997
43998,17046,4302,139722,-7440,5292,132196,495,19169,2027,1,55767,0.0009969999999999979
44998,5525,-3043,137698,10386,-4396,146445,685,19197,2806,0,55768,0.0010000000000000009
45998,8404,-7108,137699,4200,-7779,135192,545,19197,2806,0,55769,0.0010000000000000009
46999,999,-10400,131393,-19268,-11306,140434,693,19165,2232,1,55770,0.0010010000000000019
48000,6633,7697,140748,-3860,6641,136058,693,19189,2838,1,55771,0.0010010000000000019
49000,17312,-4555,129483,14300,-5312,139286,472,19170,1933,1,55772,0.000999999999999994
49998,9656,4966,130559,-3343,3497,124679,627,19165,2568,0,55773,0.0009980000000000058
50999,13199,-9727,124389,10211,-11860,127208,522,19169,2138,0,55774,0.001000999999999995
51998,12287,-8344,120816,2336,-10359,132149,654,19169,2138,1,55775,0.0009989999999999999
53000,10328,12417,127693,-476,11900,118205,418,19166,2679,1,55776,0.0010020000000000029
54000,11776,2706,120152,4913,2382,120804,418,19186,1712,1,55777,0.0010000000000000009
54999,6042,3920,120809,-7261,2498,115533,574,19156,2351,0,55778,0.0009989999999999999
55998,14131,-25678,116892,15889,-24180,126536,446,19175,1827,0,55779,0.0009989999999999999
56998,15882,13474,116114,21147,8762,111449,597,19132,2445,1,55780,0.0010000000000000009
57998,7961,-675,115016,-10205,-3326,114368,368,19132,2445,1,55781,0.000999999999999994
59000,24720,23517,122701,-15001,27750,104984,559,19178,1507,1,55782,0.0010020000000000029
59998,9913,-9215,115387,29066,-6837,132773,559,19148,2289,0,55783,0.0009979999999999989
60998,-1549,-8300,121414,11799,-9275,109833,436,19179,1786,0,55784,0.0010000000000000009
61999,3652,-15409,113629,-35247,-14673,127445,591,19152,2421,1,55785,0.0010010000000000019
62998,2406,24683,125542,3700,39615,98300,535,19184,2191,1,55786,0.0009989999999999999
63998,22765,28489,122792,10649,9743,122936,522,19184,2191,1,55787,0.0010000000000000009
64998,3687,-16157,120695,-3713,-16232,125973,534,19158,2138,0,55788,0.0010000000000000009
66001,5849,-776,125192,-14321,-3548,127013,534,19177,2187,0,55789,0.00100299999999999
66998,5540,-5214,130009,8367,-1596,133611,571,19157,2339,1,55790,0.0009970000000000118
67998,-781,17943,137382,-6954,18700,124301,580,19189,2376,1,55791,0.0010000000000000009
68998,2815,-9223,132474,-9767,-16128,147137,513,19172,2101,1,55792,0.0010000000000000009
69998,-2461,6427,132274,-16383,17349,121165,722,19172,2957,0,55793,0.000999999999999987
70998,12622,7344,138774,3573,-3147,139813,539,19197,2957,0,55794,0.0010000000000000009
71998,6481,-4643,132406,3789,-1437,136822,673,19165,2208,1,55795,0.0010000000000000009
72998,8228,6577,140420,-15356,-1589,140240,673,19203,2756,1,55796,0.0010000000000000009
73998,10033,-8854,138575,2164,-3999,145024,493,19169,2019,1,55797,0.0010000000000000009
74998,2611,7231,141463,6277,3148,137986,665,19190,2724,0,55798,0.0010000000000000009
75998,6202,-21200,135206,-8049,-22133,146573,531,19190,2175,0,55799,0.0010000000000000009
77001,2453,6213,134830,-18141,11070,125635,665,19169,2175,1,55800,0.0010030000000000039
77998,11848,4556,134884,10494,-1070,141606,436,19181,2724,1,55801,0.0009969999999999979
78998,19562,-2756,130021,12917,-611,127121,436,19170,1786,1,55802,0.0010000000000000009
80000,7600,-1107,131212,936,-7414,134333,598,19176,2449,0,55803,0.0010020000000000029
80998,11559,-15442,125725,-1423,-14212,131057,511,19171,2093,0,55804,0.0009979999999999989
82000,8547,-2578,126800,2507,-5137,127297,636,19171,2605,1,55805,0.001001999999999989
82998,6321,-4216,127172,6039,-2402,129697,399,19161,2605,1,55806,0.0009980000000000128
84001,16404,11264,119383,-2264,10402,107348,558,19180,1634,1,55807,0.00100299999999999
84998,3003,-2830,118106,4368,-3341,120072,558,19146,2285,0,55808,0.0009969999999999979
85998,23096,-4980,118205,12080,-4267,116376,400,19175,1638,0,55809,0.0010000000000000009
86998,11156,-4943,112689,25037,-4939,119409,603,19146,2470,1,55810,0.0010000000000000009
87998,4893,18431,122495,-33234,14359,106830,379,19146,1552,1,55811,0.0010000000000000009
88998,29133,-1,120077,6488,1875,109331,542,19179,1552,1,55812,0.0010000000000000009
89998,-5758,-2862,117347,48397,-5906,129843,479,19151,2220,0,55813,0.0010000000000000009
90998,10970,-10366,114123,-35218,-9149,113834,479,19175,1962,0,55814,0.0010000000000000009
91999,-2301,15293,118363,-13869,16498,107203,578,19153,2367,1,55815,0.0010010000000000019
92998,9752,23187,125444,14717,22627,118534,603,19195,2470,1,55816,0.0009989999999999999
93998,18287,3926,121526,-9232,3187,110218,513,19161,2101,1,55817,0.0010000000000000009
94998,-1659,-5058,127344,-1930,-7155,135198,586,19161,2101,0,55818,0.0010000000000000009
95998,12464,-18242,123820,-2559,-20348,131406,568,19175,2400,0,55819,0.0010000000000000009
96998,67,15642,130434,5545,14946,120654,568,19150,2326,1,55820,0.0010000000000000009
97998,963,14115,136458,-18464,15262,132097,584,19188,2392,1,55821,0.0010000000000000009
98998,16228,3581,133568,-20305,5098,120326,510,19166,2089,1,55822,0.000999999999999987
99998,-2709,-7718,134639,20615,-10170,149634,704,19188,2883,0,55823,0.0010000000000000009
100998,6644,-12916,135935,-16457,-12694,136465,542,19188,2883,0,55824,0.0010000000000000009
101998,2552,2725,136563,-18561,-626,135424,700,19167,2220,1,55825,0.0010000000000000009
102998,2416,9450,140843,17436,4933,145269,700,19205,2867,1,55826,0.0010000000000000009
104000,10804,42,135898,-15811,785,134944,498,19170,2040,1,55827,0.0010020000000000029
104998,2393,857,139176,-13571,10,140253,651,19179,2666,0,55828,0.0009979999999999989
105998,14477,-3158,135486,18817,-2082,137465,525,19172,2150,0,55829,0.0010000000000000009
107001,2863,-5592,133694,-6653,-7885,133915,653,19172,2150,1,55830,0.0010030000000000039
107998,5346,5792,140613,-18795,5940,145125,439,19181,2674,1,55831,0.0009969999999999979
109000,11138,-15008,129317,15487,-15752,132703,439,19174,1798,1,55832,0.0010020000000000029
110000,8229,8093,133672,-1554,3485,125024,585,19170,2396,0,55833,0.0010000000000000009
111011,14155,-6382,124658,4814,-11360,130789,487,19175,1995,0,55834,0.001010999999999998
111998,12512,-5268,120583,7054,2503,119558,617,19152,2527,1,55835,0.0009870000000000018
112998,12533,8669,126926,-1535,10148,122925,357,19152,2527,1,55836,0.0010000000000000009
113998,15581,-768,120582,8791,-3481,116785,550,19188,1462,1,55837,0.000999999999999987
114998,4794,354,121012,-4912,-3580,123636,550,19149,2253,0,55838,0.0010000000000000009
115998,12125,-24814,115476,15877,-13760,120241,454,19171,1859,0,55839,0.0010000000000000009
116998,13312,13490,116045,6455,15907,113494,585,19149,2396,1,55840,0.0010000000000000009
117998,9106,-1170,114250,-9768,-2820,110022,454,19186,1859,1,55841,0.0010000000000000009
118998,21805,20776,120027,4294,22523,102029,530,19186,2171,1,55842,0.0010000000000000009
119998,12288,-4515,117347,27807,-10904,127811,543,19163,2171,0,55843,0.0010000000000000009
120998,-1500,-4670,119131,-12920,-6395,111940,579,19177,2224,0,55844,0.0010000000000000009
121998,1178,-15682,115527,-25418,-16468,131348,579,19149,2371,1,55845,0.0010000000000000009
122999,60,17878,123914,10672,29280,102025,695,19200,2847,1,55846,0.0010010000000000019
123998,20624,32823,125441,14663,16177,114241,496,19163,2031,1,55847,0.0009989999999999999
125001,7663,-12901,122189,-16712,-13829,130167,667,19163,2732,0,55848,0.0010030000000000039
126000,8141,-2759,124726,-2986,-1683,123409,559,19189,2732,0,55849,0.0009989999999999999
126998,5398,-3728,130401,-1239,-1599,135799,673,19161,2289,1,55850,0.0009979999999999989
128000,1571,18702,137207,-7419,18269,120909,673,19203,2756,1,55851,0.0010020000000000029
128998,1257,-13359,133823,-6823,-17579,150546,498,19169,2040,1,55852,0.0009979999999999989
129999,-1650,4555,133213,-17494,10567,125663,670,19181,2744,0,55853,0.0010010000000000019
131010,12091,12361,138341,1866,6593,132710,521,19166,2134,0,55854,0.0010109999999999841
131998,7311,-857,133356,2069,287,139622,672,19166,2134,1,55855,0.0009880000000000166
132998,9185,4769,137651,-13091,-1606,138626,480,19197,2752,1,55856,0.0010000000000000009
134002,7847,-10644,138996,-1403,-7952,146606,480,19174,1966,1,55857,0.0010039999999999771
135000,2198,6465,142705,4409,3520,137073,633,19174,2593,0,55858,0.0009979999999999989
135998,3425,-22339,134142,-5137,-25400,151564,515,19169,2109,0,55859,0.0009979999999999989
137000,4350,5304,135570,-18034,8848,126011,627,19163,2568,1,55860,0.0010020000000000029
137998,12103,8652,134159,10004,5640,136327,403,19163,2568,1,55861,0.0009979999999999989
138999,21480,-253,129257,11254,-26,129099,568,19176,1651,1,55862,0.0010010000000000019
140000,8363,-3522,129277,2145,-5674,130460,568,19156,2326,0,55863,0.0010010000000000019
141000,10783,-17465,125894,1118,-18553,131647,451,19173,1847,0,55864,0.0010000000000000009
141998,8907,1755,127486,3426,1554,125795,613,19141,2511,1,55865,0.0009979999999999989
142998,5928,-4639,127233,1720,-4600,130916,362,19181,1483,1,55866,0.0010000000000000009
143998,16271,7876,121342,3083,8890,110219,527,19181,1483,1,55867,0.0010000000000000009
144998,4224,-911,117779,2839,-2481,117349,519,19157,2158,0,55868,0.0010000000000000009
145998,24632,-1560,117672,6844,-684,113614,519,19175,2126,0,55869,0.0010000000000000009
146998,11332,-5604,113183,32174,-7476,121963,583,19153,2388,1,55870,0.0010000000000000009
147998,4034,19171,121481,-25821,15632,107963,511,19186,2093,1,55871,0.0010000000000000009
148998,29739,-882,121085,-13871,2425,108857,522,19160,2138,1,55872,0.0010000000000000009
149998,-4612,-2104,117493,59805,-4574,128997,531,19160,2138,0,55873,0.0010000000000000009
151000,10406,-14051,113929,-25178,-16051,115689,559,19178,2175,0,55874,0.0010020000000000029
151998,-568,12783,117856,-26675,10671,109332,559,19158,2289,1,55875,0.0009979999999999989
152998,8518,23354,123656,17782,23151,118441,773,19205,3166,1,55876,0.0010000000000000009
153998,19344,5977,122154,-5464,6412,110773,500,19167,2048,1,55877,0.0010000000000000009
154998,-3620,-6268,127294,-5267,-4330,143536,708,19198,2900,0,55878,0.0010000000000000009
155998,12731,-22064,124074,-693,-26457,127366,550,19198,2900,0,55879,0.0010000000000000009
156998,-224,15227,130503,3124,11783,120471,711,19160,2253,1,55880,0.0010000000000000009
157998,746,10776,136623,-8076,17165,132873,711,19211,2912,1,55881,0.0010000000000000009
158998,12552,9754,133856,-30575,4583,123686,483,19175,1978,1,55882,0.0010000000000000009
159999,-824,-7641,135674,8692,-18300,155708,651,19174,2666,0,55883,0.0010010000000000019
160999,5814,-11433,133767,8303,-2724,130984,521,19166,2134,0,55884,0.0010000000000000009
162000,-1133,4601,136456,-17607,2401,135721,656,19166,2687,1,55885,0.0010010000000000019
163000,8292,11500,139315,2106,8518,141825,465,19187,2687,1,55886,0.0010000000000000009
163999,16651,-1031,137067,239,-8585,138730,604,19174,1905,1,55887,0.0009989999999999999
165000,3221,-5623,138542,4059,-1199,141991,604,19175,2474,0,55888,0.0010009999999999741
166000,5938,-1792,133710,-10525,-9981,135944,500,19182,2048,0,55889,0.0010000000000000009
167000,4042,-3729,133493,-9107,-268,135263,616,19150,2523,1,55890,0.0010000000000000009
167998,8280,11216,139336,10693,7173,138821,361,19150,1479,1,55891,0.0009979999999999989
168999,17385,-10196,131860,6543,-11247,130889,551,19183,1479,1,55892,0.0010010000000000019
169998,6755,2511,130307,-627,256,128359,410,19149,2257,0,55893,0.0009989999999999999
170998,14889,-14931,126361,6786,-16947,134849,410,19175,1679,0,55894,0.0010000000000000009
171998,11869,-6295,122539,1054,1975,120979,597,19148,2445,1,55895,0.0010000000000000009
172998,11348,12765,128438,8275,13293,123062,446,19186,1827,1,55896,0.0010000000000000009
173998,14097,16,119595,-1460,1772,113551,522,19186,2138,1,55897,0.0010000000000000009
174998,5881,-6392,121399,1224,-9989,125803,529,19160,2138,0,55898,0.0010000000000000009
176000,14225,-21294,114724,18878,-16543,119556,568,19179,2167,0,55899,0.0010020000000000029
176998,13141,10740,113666,2920,8940,113957,568,19157,2326,1,55900,0.0009979999999999989
177998,7470,8738,116547,-11609,9895,107987,538,19188,2203,1,55901,0.0010000000000000009
178999,25988,16835,121492,6084,13802,105598,522,19165,2138,1,55902,0.0010010000000000019
179998,7054,-12495,116225,32493,-12478,129825,601,19185,2462,0,55903,0.0009989999999999999
181001,-3625,-2762,119512,-23569,-6651,110982,560,19185,2462,0,55904,0.0010030000000000039
181998,4558,-10556,116556,-20803,-6786,123938,750,19160,2294,1,55905,0.0009969999999999979
182998,2320,34261,126221,12915,34970,104064,750,19203,3072,1,55906,0.0010000000000000009
183998,19902,17712,124159,10726,11320,119926,481,19172,1970,1,55907,0.0010000000000000009
184998,942,-8588,123071,-20130,-8667,125385,668,19187,2736,0,55908,0.0010000000000000009
185998,11362,-6032,129099,83,-6268,127642,542,19167,2220,0,55909,0.0010000000000000009
187000,2589,-1237,129496,1803,179,132148,698,19167,2220,1,55910,0.0010020000000000029
187999,3236,18588,138686,-12760,19155,123289,473,19193,2859,1,55911,0.0009989999999999999
188998,-220,-12475,132231,-6892,-13238,144623,473,19174,1937,1,55912,0.0009989999999999999
189998,274,11639,135346,-15570,11651,127085,621,19167,2543,0,55913,0.0010000000000000009
190998,13059,-1973,136364,1990,-3827,138265,502,19166,2056,0,55914,0.0010000000000000009
191998,6451,584,132998,5640,-910,135549,636,19181,2605,1,55915,0.0010000000000000009
192998,11702,-541,137302,-17355,-6135,140597,450,19181,2605,1,55916,0.0010000000000000009
194000,7747,-4278,137686,2399,-5739,142928,591,19182,1843,0,55917,0.0010019999999999751
195000,3562,2131,140474,3762,2425,141190,591,19165,2421,0,55918,0.0010000000000000009
196000,1266,-15874,133411,-5917,-19576,143165,481,19171,1970,0,55919,0.0010000000000000009
196998,4178,8474,136379,-17734,9165,129194,606,19145,2482,1,55920,0.0009979999999999989
197998,12306,-2053,133538,6715,-2370,140541,353,19177,1446,1,55921,0.0010000000000000009
198998,17159,2674,130621,11858,1837,127237,537,19177,1446,0,55922,0.0010000000000000009
199998,9000,-8426,130105,-1217,-7213,134304,473,19153,2199,0,55923,0.0010000000000000009
201000,11596,-8999,126134,2347,-10098,123026,473,19175,1937,0,55924,0.0010020000000000029
201998,9970,86,127259,5336,148,132394,591,19153,2421,1,55925,0.0009979999999999989
202998,6962,-1505,125382,1206,-2928,119821,528,19191,2163,1,55926,0.0010000000000000009
203998,14681,11744,121076,-1434,11687,112546,505,19163,2068,1,55927,0.0010000000000000009
204998,6224,-10447,116460,3458,-11686,121471,562,19163,2068,0,55928,0.0010000000000000009
205998,21739,2121,118719,11408,6108,112800,560,19179,2302,0,55929,0.0010000000000000009
206998,13130,-4980,112814,22133,-6074,120434,560,19158,2294,1,55930,0.0010000000000000009
207998,4051,20133,121473,-11388,19946,103772,632,19197,2588,1,55931,0.0010000000000000009
208998,29923,1114,118877,-24474,-4277,118624,503,19153,2060,1,55932,0.0010000000000000009
209999,-5438,-4921,117408,35561,-5239,124454,681,19181,2789,0,55933,0.0010010000000000019
211007,8169,-11980,115057,-49872,-11626,115734,545,19181,2232,0,55934,0.0010080000000000089
211998,544,7419,117678,7293,20355,107767,717,19164,2232,1,55935,0.0009909999999999919
212998,6007,28187,124063,15735,21972,119366,476,19189,2937,1,55936,0.0010000000000000009
213998,21528,2590,121301,-19469,3367,110216,476,19175,1950,1,55937,0.0010000000000000009
214998,-2471,-3171,125600,6949,-12291,138057,649,19173,2658,0,55938,0.0010000000000000009
216001,13084,-23982,125480,-3039,-14237,133625,535,19167,2191,0,55939,0.0010030000000000039
217000,299,14328,129897,-2688,16663,112538,666,19167,2728,1,55940,0.0009989999999999999
217998,-559,14639,137433,-13567,10302,138411,454,19180,2728,1,55941,0.0009979999999999989
219000,12567,6151,132982,-22546,7047,119954,597,19177,1859,1,55942,0.0010020000000000029
219998,-1058,-4084,136766,20158,-12160,152773,597,19161,2445,0,55943,0.0009979999999999989
220998,6104,-10948,133865,-10055,-8853,135613,480,19170,1966,0,55944,0.0010000000000000009
221998,1170,5490,136253,-24237,5092,130071,622,19162,2548,1,55945,0.0010000000000000009
223001,8238,10513,140539,7558,6540,146739,408,19175,1671,1,55946,0.0010029999999999761
223999,18605,-2785,137161,4717,-8008,136353,563,19175,1671,0,55947,0.0009980000000000266
224998,-383,-5802,138466,-1012,-3143,144910,402,19142,2306,0,55948,0.0009989999999999999
225998,7455,-4956,134400,-10675,-8502,138889,402,19174,1646,0,55949,0.0009999999999999731
226998,2742,-889,133654,-7232,4522,132745,588,19151,2408,1,55950,0.0010000000000000009
227998,13521,5694,138053,7433,2567,141354,428,19188,1753,1,55951,0.0010000000000000009
229008,15359,-7320,129754,15070,-8120,130028,527,19155,2158,0,55952,0.0010100000000000109
229998,8010,-570,130418,-7718,-1749,127835,530,19155,2158,0,55953,0.0009899999999999909
230998,15997,-12479,125813,5394,-11586,131843,573,19173,2171,0,55954,0.0010000000000000009
231998,9412,1450,126336,7479,2461,123651,573,19154,2347,1,55955,0.0010000000000000009
232998,10294,6124,127414,-212,7487,123587,594,19200,2433,1,55956,0.0010000000000000009
233998,7891,-2968,122243,1598,-4185,113212,494,19167,2023,1,55957,0.0010000000000000009
234998,7694,-4916,120504,-395,-7414,125635,653,19183,2674,0,55958,0.0010000000000000009
236002,15648,-13290,115216,16303,-13617,115303,556,19183,2674,0,55959,0.0010040000000000049
236999,13684,19436,117003,10960,17541,110263,744,19161,2277,1,55960,0.0009969999999999979
237998,10131,2984,115496,-12735,-1002,113439,744,19207,3047,1,55961,0.0009989999999999999
238998,20442,14248,120942,38,15021,105523,490,19164,2007,0,55962,0.0010000000000000009
239998,8165,-18187,116835,33881,-19209,134163,680,19191,2785,0,55963,0.0010000000000000009
240998,-3310,3342,117070,-13771,569,106641,537,19155,2199,0,55964,0.0010000000000000009
242001,4530,-3026,119505,-26780,-2249,123124,697,19155,2199,1,55965,0.0010030000000000039
242998,6587,30406,123920,11005,28846,108772,456,19169,2855,1,55966,0.0009969999999999979
243998,19303,14827,124202,11307,15696,115362,456,19176,1868,1,55967,0.0010000000000000009
244998,2855,-8309,125341,-17203,-9287,127773,613,19177,2511,0,55968,0.0010000000000000009
245999,8434,-7967,127998,-2235,-6484,125073,519,19168,2126,0,55969,0.0010010000000000019
246998,3162,-2774,132111,3669,-4774,137673,655,19169,2683,1,55970,0.0009989999999999999
247998,2000,19731,138596,-15085,21813,118999,445,19169,2683,1,55971,0.0010000000000000009
248998,2473,-10750,133832,-5639,-8822,138875,580,19174,1823,1,55972,0.0010000000000000009
249999,1261,9928,134678,-14577,6826,126330,580,19144,2376,0,55973,0.0010010000000000019
250999,13721,-6841,136926,1205,-3131,145862,413,19173,1692,0,55974,0.0009999999999999731
251998,3288,2213,133607,4980,-4088,129184,597,19145,2445,1,55975,0.0009990000000000276
252998,8703,-233,138762,-18136,-10705,150330,359,19175,1470,1,55976,0.0010000000000000009
253998,8240,-5389,136131,-2333,3491,134706,556,19175,2277,0,55977,0.0010000000000000009
255000,2760,3595,141384,7477,-6278,146189,457,19159,2277,0,55978,0.0010020000000000029
255998,3988,-14029,130810,-2830,-8943,136727,577,19174,1872,0,55979,0.0009979999999999989
257001,3663,8293,136712,-17102,9195,129513,577,19151,2363,1,55980,0.0010029999999999761
257998,14297,-1331,133538,16376,-3698,142281,487,19188,1995,1,55981,0.0009970000000000256
258998,16117,3113,131220,6936,-4104,122668,511,19165,2093,0,55982,0.0010000000000000009
259998,7515,-3922,130006,-3133,-14764,139133,524,19165,2146,0,55983,0.0010000000000000009
260998,10720,-12876,127055,4630,-4972,125178,559,19180,2146,0,55984,0.0010000000000000009
261998,10161,3068,129279,4358,-1371,129041,682,19158,2289,1,55985,0.0010000000000000009
262998,8010,-870,125547,5734,5720,122683,682,19204,2793,1,55986,0.0010000000000000009
263998,15058,8273,121558,-2560,3522,111089,482,19170,1974,0,55987,0.0010000000000000009
264999,5641,-11182,116800,5041,-7369,121657,695,19198,2847,0,55988,0.0010009999999999741
265999,23678,3042,118414,16116,1602,114107,550,19198,2253,0,55989,0.0010000000000000009
266998,9607,-7399,112028,15929,-4065,119750,725,19167,2253,1,55990,0.0009990000000000276
267998,7389,17272,120100,-36202,17966,105040,485,19198,2969,1,55991,0.0010000000000000009
268998,27528,-385,118326,20718,-2514,113163,485,19168,1986,0,55992,0.0010000000000000009
269998,-4897,-3531,116375,36261,-5702,126184,649,19184,2658,0,55993,0.0009999999999999454
271000,8579,-12529,114016,-45835,-11922,116500,522,19168,2138,0,55994,0.0010020000000000029
271998,-1631,7996,119507,1413,15862,108057,669,19153,2740,1,55995,0.0009979999999999989
272998,8302,25227,124026,12074,20204,120561,440,19153,2740,1,55996,0.0010000000000000009
274000,18438,5261,122454,-13499,4144,108851,611,19178,1802,0,55997,0.0010020000000000029
274998,-3672,-4998,125858,4520,-11109,138725,611,19171,2502,0,55998,0.0009979999999999989
276000,11937,-19735,126549,-4540,-17537,130309,508,19168,2081,0,55999,0.0010020000000000029
277000,-1534,19101,132590,-456,20268,116738,633,19165,2593,1,56000,0.0010000000000000009
277998,4468,12767,136956,-9062,12510,137491,407,19177,1667,1,56001,0.0009979999999999989
278999,9559,4391,134436,-24368,4023,121025,562,19177,1667,1,56002,0.0010010000000000296
279998,1003,-6940,136333,9804,-10786,152107,429,19154,2302,0,56003,0.0009989999999999721
280998,7236,-8387,132413,3199,-9251,136050,429,19176,1757,0,56004,0.0010000000000000009
281998,-2537,8014,135667,-23263,6713,130055,588,19142,2408,1,56005,0.0010000000000000009
282998,10864,11263,139308,-7528,6503,143453,365,19182,1495,1,56006,0.0010000000000000009
283998,16595,685,137536,10502,-1496,136336,536,19148,2195,0,56007,0.0010000000000000009
284998,3347,-8367,138386,5740,-7629,147842,517,19148,2195,0,56008,0.0010000000000000009
285998,3637,-8636,132673,-17002,-12573,134660,568,19168,2117,0,56009,0.0010000000000000009
286998,2030,-2630,136818,-8826,-1478,136505,568,19158,2326,1,56010,0.0010000000000000009
287999,14331,5246,136905,6493,4646,141677,514,19192,2105,1,56011,0.0010010000000000296
288998,13832,-5218,131126,13814,-5487,127873,504,19163,2064,0,56012,0.0009989999999999721
289998,7648,-1745,129316,-2067,-2569,130752,563,19183,2306,0,56013,0.0010000000000000009
290998,16358,-16277,124075,-419,-14206,130969,556,19183,2306,0,56014,0.0010000000000000009
291998,9388,3098,126126,10472,1604,122617,746,19160,2277,1,56015,0.0010000000000000009
292998,13394,5913,128133,2198,9788,123973,746,19209,3055,1,56016,0.0010000000000000009
293998,10537,-2653,120283,197,-3626,117517,478,19175,1958,0,56017,0.0010000000000000009
294998,4413,-5761,120713,20,-5578,121776,674,19194,2761,0,56018,0.0010000000000000009
295998,17887,-17418,113006,16206,-21302,109601,537,19162,2199,0,56019,0.0010000000000000009
296999,11823,19706,115677,13771,17898,114304,693,19162,2838,1,56020,0.0010010000000000296
297998,12481,6723,117693,-15169,2295,102512,469,19183,2838,1,56021,0.0009989999999999721
298998,19990,21177,120375,-3662,23870,113770,469,19171,1921,0,56022,0.0010000000000000009
299998,7134,-19348,117929,34987,-18442,132921,626,19180,2564,0,56023,0.0010000000000000009
300998,-4962,-6945,115956,-6700,-6701,109111,519,19164,2126,0,56024,0.0010000000000000009
302001,2940,-2989,119760,-33265,8015,121733,659,19149,2699,1,56025,0.0010029999999999761
303002,8063,35939,126010,8692,42078,100095,421,19149,1724,1,56026,0.0010010000000000296
303998,18426,11461,123663,13323,-8304,128134,584,19178,1724,0,56027,0.0009959999999999969
304998,3100,-12298,123723,-23029,-7813,123542,474,19160,2392,0,56028,0.0010000000000000009
305998,8481,-6159,129095,10884,-9464,132395,474,19171,1941,0,56029,0.0010000000000000009
306999,3264,-3605,130961,-8896,6309,128273,621,19155,2543,1,56030,0.0010009999999999741
307998,6254,17746,139862,-4771,10512,130779,367,19182,1503,1,56031,0.0009990000000000276
308998,-628,-10350,131560,-14154,-9210,139759,554,19182,2269,0,56032,0.0010000000000000009
309998,907,12061,135444,-16145,15241,122794,500,19150,2269,0,56033,0.0010000000000000009
310998,11441,-920,135091,8243,-13002,146187,572,19178,2048,0,56034,0.0010000000000000009
311999,5332,1549,134227,-3505,5547,130455,572,19157,2343,1,56035,0.0010009999999999741
312998,10219,659,138803,-12020,-7923,148705,391,19180,1601,1,56036,0.0009990000000000276
313999,7116,-5753,137901,1287,-2900,138134,536,19159,2195,0,56037,0.0010009999999999741
314998,2328,848,139514,1260,-6482,144723,530,19180,2171,0,56038,0.0009990000000000276
315998,2121,-12028,131621,-9171,-9688,138209,562,19180,2171,0,56039,0.0010000000000000009
316998,5773,14949,135649,-12002,13385,125712,584,19153,2302,1,56040,0.0010000000000000009
317998,16641,-1902,134132,15963,-4117,143579,584,19194,2392,1,56041,0.0010000000000000009
318998,19154,3979,131482,9968,3011,122330,488,19167,1999,0,56042,0.0010000000000000009
319998,6626,-8403,130208,-1754,-12248,138662,652,19188,2670,0,56043,0.0010000000000000009
320998,10752,-13724,127701,-618,-9174,126358,555,19155,2273,0,56044,0.0010000000000000009
322000,7805,1859,127249,5952,457,129319,728,19155,2273,1,56045,0.0010020000000000029
322999,11328,-271,126474,5798,4565,123748,482,19195,2982,1,56046,0.0009989999999999721
324000,13915,10200,120738,-2460,7422,107844,482,19175,1974,0,56047,0.0010010000000000296
325000,6882,-10688,118659,5016,-12447,124155,645,19182,2642,0,56048,0.0010000000000000009
325998,24464,3801,117180,16169,3169,112453,528,19168,2163,0,56049,0.0009979999999999989
327001,4772,-12752,114702,16243,-13598,123955,682,19183,2793,1,56050,0.0010029999999999761
327998,8994,20054,117606,-34819,15205,105071,468,19183,2793,1,56051,0.0009970000000000256
329000,25591,-1236,117501,17469,-3777,113114,611,19175,1917,0,56052,0.0010019999999999474
329999,-5767,-3496,115315,42062,-4389,127895,611,19181,2502,0,56053,0.0009990000000000276
330998,11371,-9721,114129,-48907,-11086,112833,505,19169,2068,0,56054,0.0009989999999999721
331998,-3574,12049,119853,965,14313,109474,629,19128,2576,1,56055,0.0010000000000000009
332998,11860,23384,124719,17724,22230,118048,351,19180,1438,1,56056,0.0010000000000000009
334001,16955,1856,122996,-16786,1452,111248,567,19180,1438,0,56057,0.0010030000000000316
334998,-4674,-4398,127573,5119,-7153,136048,409,19149,2322,0,56058,0.0009969999999999701
335998,12776,-12681,127052,-6521,-9690,131372,409,19171,1675,0,56059,0.0010000000000000009
336998,-4261,19844,132819,-1761,18751,115744,605,19144,2478,1,56060,0.0010000000000000009
337998,8603,10312,137791,-8728,13574,135134,356,19180,1458,1,56061,0.0010000000000000009
338998,8304,2126,132751,-19894,1776,123294,532,19153,2179,0,56062,0.0010000000000000009
339998,434,-7992,137932,5625,-7391,147385,549,19153,2179,0,56063,0.0010000000000000009
340998,9056,-9607,132134,-1157,-13866,139767,573,19183,2249,0,56064,0.0010000000000000009
341998,-4921,6134,136968,-8645,3116,132059,573,19158,2347,1,56065,0.0010000000000000009
342998,14887,10764,137419,-15484,6594,142959,458,19185,1876,1,56066,0.0010000000000000009
343998,16548,-3379,134688,4292,-4905,138628,525,19160,2150,0,56067,0.0010000000000000009
344998,3917,-3831,137732,17982,-4309,141809,522,19174,2138,0,56068,0.0010000000000000009
345999,5156,-14229,129851,-16632,-17144,136955,554,19174,2269,0,56069,0.0010010000000000296
346998,303,-419,136724,-16020,-4328,135638,715,19163,2269,1,56070,0.0009989999999999721
347998,12289,3055,137595,10338,-3584,143545,508,19197,2928,1,56071,0.0010000000000000009
348998,13421,-2846,130522,8083,-1998,122041,508,19169,2081,0,56072,0.0010000000000000009
349998,7818,2785,130905,-3312,-7743,131684,700,19198,2867,0,56073,0.0010000000000000009
350999,14428,-17880,124418,6436,-15664,130555,548,19161,2244,0,56074,0.0010010000000000296
352000,10090,2696,126915,4315,2247,120043,708,19185,2900,1,56075,0.0010009999999999741
352998,13564,9683,130979,6012,3268,125472,462,19185,2900,1,56076,0.0009979999999999989
354000,10924,-1641,120467,-4905,-209,112511,625,19173,1892,0,56077,0.0010020000000000029
354998,5154,-4158,122485,1607,-17823,130187,625,19171,2560,0,56078,0.0009979999999999989
355998,15749,-10705,113527,27184,2419,108874,516,19162,2113,0,56079,0.0010000000000000009
357001,12159,14358,114555,-4783,4705,116151,652,19171,2670,1,56080,0.0010029999999999761
357998,15570,8057,117923,-15301,17605,101466,474,19171,1941,1,56081,0.0009970000000000256
359000,21484,18702,119810,22778,3574,114238,601,19173,1941,0,56082,0.0010020000000000029
359998,4575,-17544,118875,14838,-12810,130426,494,19164,2462,0,56083,0.0009979999999999989
360998,-5202,-2355,116472,-30102,-6117,113304,494,19177,2023,0,56084,0.0010000000000000009
361998,1660,-6614,118721,-5825,5434,119610,627,19140,2568,1,56085,0.0010000000000000009
363000,10401,38635,127798,12372,40656,99637,389,19181,1593,1,56086,0.0010020000000000029
363998,16243,5571,123232,5730,-5937,129444,550,19150,2253,0,56087,0.0009979999999999989
364998,3215,-10099,124357,-23010,-8101,122234,446,19150,2253,0,56088,0.0010000000000000009
365998,7681,-6311,131339,9268,-6289,132252,588,19174,1827,0,56089,0.0010000000000000009
366998,709,1837,132232,-8025,6404,126865,588,19145,2408,1,56090,0.0010000000000000009
367998,8482,12448,138261,-4618,8708,132111,387,19182,1585,1,56091,0.0010000000000000009
368998,-1366,-13688,131206,-14971,-14578,138082,534,19161,2187,0,56092,0.0010000000000000009
369999,4077,18522,135844,-12323,18685,122247,564,19178,2310,0,56093,0.0010009999999999741
370998,11071,-3114,133225,6583,-8666,145268,557,19178,2310,0,56094,0.0009990000000000276
371998,4812,2684,136217,-6393,2423,131761,496,19159,2281,1,56095,0.0010000000000000009
372999,11637,-4365,137724,-11539,-9155,147851,496,19188,2031,1,56096,0.0010009999999999741
373998,6894,-129,138755,3447,277,137236,510,19164,2089,0,56097,0.0009990000000000276
374998,1057,-5404,138569,750,-8766,146136,598,19182,2449,0,56098,0.0010000000000000009
375998,2940,-12021,132167,-9272,-11194,138837,554,19161,2269,0,56099,0.0010000000000000009
376998,6620,15241,137584,-12044,15297,128033,727,19161,2269,1,56100,0.0010000000000000009
377998,17542,-2880,133917,15586,-2128,145329,470,19204,2978,1,56101,0.0010000000000000009
378998,15209,3532,131001,8718,2599,121260,470,19170,1925,0,56102,0.0010000000000000009
379998,7248,-11092,129457,-2528,-14525,139709,653,19196,2674,0,56103,0.0010000000000000009
381000,11154,-13165,127422,1905,-10704,128655,543,19176,2224,0,56104,0.0010020000000000029
381998,7118,732,127706,6318,-307,127749,695,19183,2847,1,56105,0.0009979999999999989
382998,14791,2000,125736,4716,6009,123869,455,19183,2847,1,56106,0.0010000000000000009
383998,13703,7967,120126,-921,7221,108505,604,19174,1864,0,56107,0.0010000000000000009
384999,6839,-7820,118196,4022,-8788,123472,604,19167,2474,0,56108,0.0010009999999999741
385998,21692,-3132,114008,14497,-4222,111945,500,19167,2048,0,56109,0.0009990000000000276
386998,-48,-1201,116385,15888,-4160,120328,637,19168,2609,1,56110,0.0010000000000000009
387999,18801,15972,117144,-37247,12441,107334,428,19177,1753,1,56111,0.0010009999999999741
389000,20946,728,119368,28560,-71,111419,581,19177,2380,0,56112,0.0010009999999999741
389998,-5330,-3284,117900,32614,-3995,127978,457,19152,2380,0,56113,0.0009979999999999989
390998,9530,-7319,114737,-49087,-9713,115314,457,19171,1872,0,56114,0.0010000000000000009
391998,-5144,18297,123724,4099,15845,111162,609,19142,2494,1,56115,0.0010000000000000009
392998,19937,19286,124164,13496,21983,114316,456,19186,1868,1,56116,0.0010000000000000009
393998,11755,4949,124960,-9890,4331,123672,546,19155,2236,0,56117,0.0010000000000000009
394998,-164,-10105,126934,-684,-11193,136281,507,19155,2077,0,56118,0.0010000000000000009
395998,12018,-8606,127972,-4203,7399,122172,587,19170,2077,0,56119,0.0010000000000000009
396998,-6530,21920,135526,5711,16308,124574,466,19153,2404,1,56120,0.0010000000000000009
397998,12409,8365,134607,-22154,4136,130681,466,19181,1909,1,56121,0.0010000000000000009
398999,8202,3890,133206,-14082,-330,133772,527,19160,2158,0,56122,0.0010010000000000296
399998,207,-7939,136774,6975,-11909,144521,618,19183,2531,0,56123,0.0009989999999999721
401002,6404,-3543,132892,-33909,257,131373,561,19183,2298,0,56124,0.0010040000000000049
401998,1080,2433,140671,3285,304,144067,550,19153,2298,1,56125,0.0009959999999999969
402998,12086,-1963,138172,16616,3719,143674,515,19187,2253,1,56126,0.0010000000000000009
403998,3278,1806,134131,-28654,-2277,133353,515,19161,2109,0,56127,0.0010000000000000009
404998,5415,-736,138255,-2429,-207,140316,662,19188,2711,0,56128,0.0010000000000000009
405998,12111,-3565,130996,19363,-3964,137771,542,19164,2220,0,56129,0.0010000000000000009
407000,6029,564,137437,-15466,453,134569,711,19200,2912,1,56130,0.0010020000000000029
407998,13883,-8328,135425,4766,-12172,142532,466,19200,2912,1,56131,0.0009979999999999989
408998,7855,-10379,129850,9253,-7081,131448,642,19171,1909,0,56132,0.0010000000000000009
409998,11235,4799,130609,-8386,-489,127505,642,19188,2629,0,56133,0.0010000000000000009
410998,12099,-2329,126500,16514,-5164,126222,526,19167,2154,0,56134,0.0010000000000000009
412000,9014,4541,124308,1704,587,122052,662,19181,2711,1,56135,0.0010020000000000029
412998,16335,2165,126178,-3210,5471,119314,445,19187,1823,1,56136,0.0009979999999999989
414000,13884,920,123394,12179,-2839,118295,594,19187,1823,0,56137,0.0010020000000000029
414998,6026,-6502,119493,-818,-12964,125919,498,19173,2433,0,56138,0.0009979999999999989
415998,11945,-6920,117234,11499,21,107720,498,19170,2040,0,56139,0.0010000000000000009
416999,9406,11499,116818,10206,3610,125398,669,19150,2740,1,56140,0.0010010000000000296
417998,14739,-5620,113731,-11244,-45,105266,381,19176,1560,1,56141,0.0009989999999999721
419007,21235,26316,119670,2727,22857,102336,562,19145,2302,0,56142,0.0010089999999999821
420002,10202,-12969,117095,26776,-9276,128437,403,19145,2302,0,56143,0.0009950000000000236
421006,-2848,-1408,118362,-16303,-4282,109411,605,19178,1651,0,56144,0.0010040000000000049
422000,291,-17974,118108,-20329,-16443,133535,605,19139,2478,1,56145,0.0009939999999999949
423000,8602,31685,126063,14346,37885,97475,525,19184,2150,1,56146,0.0010000000000000009
423998,14872,15571,125204,9775,8427,123314,523,19160,2142,0,56147,0.0009979999999999989
425001,5745,-9006,123143,-24653,-10566,125287,520,19175,2130,0,56148,0.0010029999999999761
425998,6093,-6288,130983,8416,-5134,130117,584,19175,2130,0,56149,0.0009970000000000256
426998,-2203,4287,133272,-8757,5698,128399,511,19153,2392,1,56150,0.0010000000000000009
427998,9044,14338,138376,-6225,12245,124453,511,19187,2093,1,56151,0.0010000000000000009
428998,-3603,-17424,134302,-7813,-18978,150012,519,19158,2126,0,56152,0.0010000000000000009
429999,1326,17345,135143,-16974,17609,121845,716,19193,2933,0,56153,0.0010009999999999741
430998,11153,-665,134623,1263,-3847,140425,544,19161,2228,0,56154,0.0009990000000000276
431998,7246,4699,134808,1197,2118,133941,621,19161,2228,1,56155,0.0010000000000000009
432998,14007,-3985,136971,-9066,-6396,143466,505,19197,2543,1,56156,0.0010000000000000009
433998,7087,-1481,138338,-2156,-3359,141568,505,19166,2068,0,56157,0.0010000000000000009
434998,-628,364,139858,2861,-15,142264,696,19200,2851,0,56158,0.0010000000000000009
435999,2009,-17873,132889,-9260,-20156,147077,540,19171,2212,0,56159,0.0010009999999999741
436998,4258,14113,136271,-15067,12000,125122,680,19187,2785,1,56160,0.0009990000000000276
437998,19153,-2486,132876,15683,-1081,141280,457,19187,1872,1,56161,0.0010000000000000009
439000,17984,-635,129578,7541,-1059,120945,624,19183,1872,0,56162,0.0010020000000000029
439998,7720,-3906,129364,1435,-5447,136893,531,19179,2556,0,56163,0.0009979999999999989
440998,11449,-10855,128241,2295,-10548,125357,531,19172,2175,0,56164,0.0010000000000000009
442001,4403,-1228,127873,1244,-1391,130308,660,19166,2703,1,56165,0.0010029999999999761
442998,13403,-3458,125610,4400,6149,119097,427,19173,1749,1,56166,0.0009970000000000256
444000,14546,6358,118469,1612,-241,113104,572,19173,2343,0,56167,0.0010020000000000029
444998,6698,-6650,118690,4809,-2409,116362,466,19162,2343,0,56168,0.0009979999999999989
445999,27234,-1068,114138,7922,-7632,120898,621,19168,1909,0,56169,0.0010009999999999741
446998,154,1658,115466,27271,11878,109183,621,19140,2543,1,56170,0.0009990000000000276
447998,18875,14860,118214,-40802,8893,111323,355,19174,1454,1,56171,0.0010000000000000009
449000,19032,89,117573,50842,-518,117552,552,19148,2261,0,56172,0.0010019999999999474
449998,-7130,-7549,118135,5305,-15184,124301,445,19148,1823,0,56173,0.0009979999999999989
450998,10540,-11000,115179,-40620,749,112035,587,19175,1823,0,56174,0.0010000000000000009
451998,-5117,22833,123279,18465,23501,109368,557,19147,2404,1,56175,0.0010000000000000009
452998,20895,16763,125265,-16,12608,116952,557,19189,2281,1,56176,0.0010000000000000009
453998,11047,8985,125115,-10121,3870,117648,522,19167,2138,0,56177,0.0010000000000000009
454998,-2287,-14142,127104,3517,-26696,141826,563,19178,2306,0,56178,0.0010000000000000009
456000,10485,-14188,127796,-4178,-643,123776,573,19160,2347,0,56179,0.0010020000000000029
456998,-6155,18825,135209,3184,17243,125185,525,19160,2347,1,56180,0.0009979999999999989
457998,11179,12354,133271,-32675,9569,127270,507,19193,2150,1,56181,0.0010000000000000009
458998,9026,6842,133959,-8996,3257,130614,507,19166,2077,0,56182,0.0010000000000000009
459998,-1091,-12827,135535,22204,-15976,151071,721,19198,2953,0,56183,0.0010000000000000009
460998,4160,-3484,131406,-21260,-1062,130832,523,19164,2142,0,56184,0.0010000000000000009
461998,-1859,108,138439,-20170,2565,135826,698,19205,2859,1,56185,0.0010000000000000009
463000,18592,9721,140766,11538,4633,143178,488,19205,2859,1,56186,0.0010020000000000029
463998,10792,-6688,132840,271,-10078,140386,662,19170,1999,0,56187,0.0009979999999999989
464998,-2365,-3346,139175,-6606,-3436,140390,662,19191,2711,0,56188,0.0010000000000000009
465998,7251,-8852,131736,-5864,-10228,137274,531,19173,2175,0,56189,0.0010000000000000009
467000,3403,7876,139171,-3605,9304,133621,665,19177,2724,1,56190,0.0010020000000000029
467998,19003,-1414,135474,6005,-2579,142791,445,19177,1823,1,56191,0.0009979999999999989
469001,9861,-10278,127249,11199,-11251,128513,597,19177,1823,0,56192,0.0010030000000000316
469998,9932,2873,128332,-4173,-1608,128446,510,19170,2445,0,56193,0.0009969999999999701
470998,15086,-11747,126083,8701,-11056,132984,510,19164,2089,0,56194,0.0010000000000000009
471998,10003,7389,125777,4580,9216,120264,637,19152,2609,1,56195,0.0010000000000000009
472998,15253,5337,126524,5315,6594,122899,382,19173,1565,1,56196,0.0010000000000000009
473998,10031,-999,119115,-3879,-1857,115062,549,19150,2249,0,56197,0.0010000000000000009
474998,7534,-12095,117251,3169,-14767,126337,423,19150,2249,0,56198,0.0010000000000000009
475998,16058,-3577,114140,22199,-1212,114324,625,19174,1732,0,56199,0.0010000000000000009
476998,9779,13527,117405,786,11264,110439,625,19146,2560,1,56200,0.0010000000000000009
477998,19956,12572,118624,-19200,11587,107811,416,19181,1704,1,56201,0.0010000000000000009
478999,18246,-4434,118636,18881,-5728,116399,539,19151,2208,0,56202,0.0010009999999999741
480002,-1827,-8497,118078,23267,-9585,124726,515,19174,2109,0,56203,0.0010030000000000316
480998,1560,-4006,116919,-35430,-4441,111236,577,19174,2363,0,56204,0.0009959999999999969
481998,1879,4882,120605,-4754,3230,119516,648,19154,2363,1,56205,0.0010000000000000009
482998,17433,24671,124869,15790,26266,110647,511,19196,2654,1,56206,0.0010000000000000009
483998,11171,5753,122444,4788,4831,117689,511,19162,2093,0,56207,0.0010000000000000009
484999,1263,-4999,124142,-22702,-7084,127035,618,19183,2531,0,56208,0.0010009999999999741
486000,8633,-11959,130199,5190,-10770,135027,558,19150,2285,0,56209,0.0010010000000000296
487000,-2536,13815,134093,-3292,10599,121944,620,19150,2539,1,56210,0.0010000000000000009
487998,10943,14426,137048,-6760,17522,137950,499,19194,2539,1,56211,0.0009979999999999989
488998,-6460,-7238,129833,-10715,-10333,133740,693,19166,2044,0,56212,0.0010000000000000009
489998,5168,7903,139450,-17328,9045,133948,693,19182,2838,0,56213,0.0010000000000000009
491000,9494,-944,132829,8247,582,138839,530,19169,2171,0,56214,0.0010020000000000029
491998,4741,7342,141058,-3640,1436,136264,684,19205,2801,1,56215,0.0009979999999999989
492998,13509,-9980,136412,-15476,-9823,148122,478,19205,1958,1,56216,0.0010000000000000009
494000,6305,56,139532,6286,1918,137801,639,19176,1958,0,56217,0.0010020000000000029
494998,3335,-4919,136880,2195,-8820,143430,525,19182,2617,0,56218,0.0009979999999999989
495999,918,-14764,135406,-18228,4938,134125,525,19171,2150,0,56219,0.0010009999999999741
497001,8833,5958,134351,-2588,1445,134947,648,19170,2654,1,56220,0.0010020000000000029
498000,17400,-820,132092,15201,3361,133568,423,19181,1732,1,56221,0.0009990000000000276
499000,15460,1933,129429,-914,-6669,130165,570,19162,2335,0,56222,0.0010000000000000009
499998,4823,-12143,126782,3601,-16192,131825,480,19162,2335,0,56223,0.0009979999999999989
500998,12836,-4592,128729,5543,-4139,127789,622,19171,1966,0,56224,0.0009999999999999454
501998,7559,-1281,127439,6475,-765,127929,622,19141,2548,1,56225,0.0010000000000000009
502998,14065,3969,124910,-2923,6688,115942,348,19182,1425,1,56226,0.0010000000000000009
503998,12008,5921,121993,-1400,-6898,119449,541,19149,2216,0,56227,0.0010000000000000009
504998,3987,-10196,117482,14010,-9996,114376,481,19173,1970,0,56228,0.0010000000000000009
505998,22158,9468,119284,15786,6094,119938,581,19173,1970,0,56229,0.0010000000000000009
506998,4661,-10897,113649,6700,-9068,116011,490,19154,2380,1,56230,0.0010000000000000009
507998,16102,21802,117827,-32217,22987,102641,490,19187,2007,1,56231,0.0010000000000000009
508998,24786,-1803,117177,34590,-5506,121971,534,19158,2187,0,56232,0.0010000000000000009
509998,-8149,-5324,115811,19526,-4273,115135,527,19180,2158,0,56233,0.0010000000000000009
510998,10370,-8393,117763,-48299,-7816,122743,569,19169,2330,0,56234,0.0010000000000000009
511998,-3387,12529,120882,19318,19462,105904,742,19169,2330,1,56235,0.0010000000000000009
512998,15859,27727,124780,-605,26496,118486,497,19204,3039,1,56236,0.0010000000000000009
513998,16615,-4356,124252,-17439,-5761,117781,497,19179,2036,0,56237,0.0010000000000000009
514998,-4277,-6253,124529,13839,-12464,132025,717,19195,2937,0,56238,0.0010000000000000009
515998,13504,-12230,130752,-8302,-7434,135759,562,19155,2302,0,56239,0.0010000000000000009
516998,-7937,18912,133809,-3601,21046,111088,688,19204,2818,1,56240,0.0010000000000000009
518001,11138,11766,136664,-19950,6613,140855,482,19204,2818,1,56241,0.0010029999999999761
519022,9204,-4042,131406,-13845,-2989,127685,653,19170,1974,0,56242,0.0010210000000000496
519998,-7996,-2270,136539,18383,-7195,144681,653,19173,2674,0,56243,0.0009759999999999769
521000,10026,-12398,132098,-21436,-12895,139483,533,19169,2183,1,56244,0.0010020000000000584
521998,476,15460,141469,-9718,14293,123832,670,19190,2744,1,56245,0.0009979999999999434
522998,20028,3174,138608,6164,678,155618,474,19173,1941,1,56246,0.0010000000000000009
524000,9426,-8831,134565,-66,-8815,131509,616,19173,2523,0,56247,0.0010020000000000584
525000,-2835,-3862,137601,-5381,-5743,146474,506,19174,2523,0,56248,0.0010000000000000009
525999,8787,-9419,133797,-10477,-8685,137939,625,19171,2072,0,56249,0.0009989999999999721
527000,2416,10747,137821,1018,10308,127306,625,19156,2560,1,56250,0.0010010000000000296
528000,21664,-3145,135918,6689,-2998,147656,385,19188,1577,1,56251,0.0010000000000000009
528999,8080,-6150,126589,5600,-7604,122163,566,19151,2318,0,56252,0.0009989999999999721
529998,10404,2104,130919,-4869,-164,135063,411,19151,1683,0,56253,0.0009989999999999721
530998,14441,-12284,124966,13359,-12113,129476,602,19172,1683,0,56254,0.0010000000000000009
531998,6493,6264,128784,-523,6246,119103,405,19146,2466,1,56255,0.0010000000000000009
532998,16436,-1066,124720,3664,1087,131164,405,19184,1659,1,56256,0.0010000000000000009
533998,7609,325,119506,4135,47,114489,525,19159,2150,0,56257,0.0010000000000000009
534999,9499,-6259,119186,-3733,-5971,125832,546,19171,2236,0,56258,0.0010010000000000296
535998,15385,-5893,114308,19765,-8361,105192,579,19171,2371,0,56259,0.0009989999999999721
536998,11364,16367,117170,8994,14947,121724,524,19171,2371,1,56260,0.0010000000000000009
537998,17160,-3913,115013,-13098,13452,104084,518,19181,2146,1,56261,0.0010000000000000009
538998,19053,13776,120283,4746,-3574,120783,518,19152,2122,0,56262,0.0010000000000000009
539998,2301,-13072,117061,30953,-10733,120857,562,19183,2302,0,56263,0.0010000000000000009
540998,-3324,-510,120917,-21966,-1627,115759,560,19161,2294,0,56264,0.0010000000000000009
542000,3668,-2671,120865,2780,6208,120536,764,19202,3129,1,56265,0.0010019999999999474
542998,14247,30454,124910,13766,33034,102321,487,19202,3129,1,56266,0.0009980000000000544
544000,12692,9693,124439,-6718,-7047,129782,681,19167,1995,0,56267,0.0010019999999999474
545000,2202,-11148,122372,-12727,-14778,123982,681,19188,2789,0,56268,0.0010000000000000009
545998,7777,-4483,132036,8440,-8847,136060,547,19166,2240,1,56269,0.0009980000000000544
547000,712,8894,135778,-12187,17395,122321,708,19201,2900,1,56270,0.0010019999999999474
547999,8976,18465,136215,-8359,6828,131946,475,19173,1945,1,56271,0.0009990000000000832
548998,-1327,-15948,131514,-17906,-12537,143164,635,19173,1945,0,56272,0.0009989999999999721
549998,1799,11507,135240,-5228,14216,123788,510,19160,2601,0,56273,0.0010000000000000009
550998,11554,-817,135196,10743,-4564,145420,510,19170,2089,1,56274,0.0010000000000000009
552001,4082,4894,138838,-11148,5218,129637,642,19187,2629,1,56275,0.0010029999999999761
553001,13543,-7847,138821,-12717,-13200,152430,463,19176,1896,1,56276,0.0010000000000000009
553998,6037,-4050,137434,4143,2856,136878,603,19173,2470,0,56277,0.0009970000000000256
554998,494,-2725,137672,5972,-4726,142024,498,19173,2470,0,56278,0.0010000000000000009
555998,3140,-13210,134399,-13777,-7449,138844,615,19174,2040,0,56279,0.0010000000000000009
556998,7113,9344,135680,-7524,8665,128537,615,19139,2519,1,56280,0.0010000000000000009
557998,19459,-5624,132028,14449,-5336,144253,342,19181,1401,1,56281,0.0010000000000000009
559000,15259,-334,130416,2213,-751,121868,542,19151,2220,0,56282,0.0010019999999999474
559998,5627,-6829,126682,2613,-14567,136476,438,19175,1794,0,56283,0.0009980000000000544
560998,12368,-10622,126974,4445,-5704,126534,595,19175,1794,0,56284,0.0010000000000000009
562000,8060,4955,127143,6341,3608,125096,470,19148,2437,1,56285,0.0010019999999999474
562998,15809,1604,122258,-340,797,122398,470,19187,1925,1,56286,0.0009980000000000544
563998,13244,10689,121075,-1961,6038,109073,516,19161,2113,0,56287,0.0010000000000000009
564998,4676,-10047,117541,10345,-9622,120575,510,19173,2089,0,56288,0.0010000000000000009
565998,22816,6796,120232,15668,5576,116058,562,19164,2302,0,56289,0.0010000000000000009
566998,2169,-11828,112930,8181,-11828,120687,579,19164,2302,1,56290,0.0010000000000000009
567998,18737,26398,119774,-30063,27470,99585,511,19194,2371,1,56291,0.0010000000000000009
568998,22687,-7032,116184,28788,-9836,121479,511,19167,2093,0,56292,0.0010000000000000009
569998,-8232,-7669,117931,23016,-7621,121389,632,19189,2588,0,56293,0.0010000000000000009
570998,11713,-8276,117233,-44574,-5998,119193,551,19162,2257,0,56294,0.0010000000000000009
572005,-5578,14829,121974,12864,17799,106627,739,19197,3027,1,56295,0.0010069999999999801
572998,19361,28594,125310,2831,26266,114767,479,19197,1962,1,56296,0.0009930000000000216
573998,14278,-16208,120339,-9588,-17283,124708,664,19181,1962,0,56297,0.0010000000000000009
574999,-3253,760,125865,8237,-2924,127608,542,19181,2720,0,56298,0.0010009999999999186
576001,12533,-12380,129656,-9097,-11950,135227,542,19167,2220,1,56299,0.0010020000000000584
577000,-9606,21758,135561,-7449,21329,111787,687,19193,2814,1,56300,0.0009989999999999721
577998,13643,8765,135749,-14784,7768,141962,468,19175,1917,1,56301,0.0009980000000000544
579000,1423,-2415,129807,-3548,-3440,128286,612,19175,2507,0,56302,0.0010019999999999474
579998,-6289,3349,136056,-2743,1195,138872,497,19169,2507,0,56303,0.0009980000000000544
580998,10930,-9795,134882,-20443,-9879,128922,631,19168,2036,1,56304,0.0010000000000000009
581998,2037,18679,142581,4611,16088,142412,631,19179,2584,1,56305,0.0010000000000000009
582998,21612,-8525,140485,1405,-6690,144859,448,19177,1835,1,56306,0.0010000000000000009
583998,-2252,-2194,135116,-5643,-5468,135229,586,19156,2400,0,56307,0.0010000000000000009
584998,3700,-8880,137843,-11293,-8118,147301,457,19156,1872,0,56308,0.0010000000000000009
585998,9076,-3466,132882,3814,7195,126409,602,19169,1872,0,56309,0.0010000000000000009
586998,5188,8858,139135,-4611,-2317,142814,392,19141,2466,1,56310,0.0010000000000000009
587998,19797,-10427,131194,-687,-5463,131567,392,19188,1606,1,56311,0.0010000000000000009
588998,9841,1564,128352,15514,3664,129523,536,19152,2195,0,56312,0.0010000000000000009
589998,13346,-9347,125814,6099,-15928,132880,498,19172,2040,0,56313,0.0010000000000000009
590998,8707,-5756,124100,8681,3667,119495,581,19147,2380,0,56314,0.0010000000000000009
591998,10340,5205,129759,-8480,-1908,133001,520,19147,2380,1,56315,0.0010000000000000009
592998,14981,-3238,121179,8930,1330,111502,505,19188,2130,1,56316,0.0010000000000000009
593998,9675,7669,122814,-346,5010,119112,505,19164,2068,0,56317,0.0010000000000000009
594998,9615,-15640,115882,6660,-22017,124014,599,19184,2453,0,56318,0.0010000000000000009
595998,11519,3041,115842,23010,17505,105648,561,19160,2298,0,56319,0.0010000000000000009
596998,12739,3678,117899,-6569,-11117,126372,674,19199,2761,1,56320,0.0009999999999998899
597998,20052,6315,116882,-13275,20231,93513,504,19199,2761,1,56321,0.0010000000000000009
599000,16952,13584,121598,25822,-3873,127725,700,19161,2064,0,56322,0.0010020000000000584
599998,3395,-20154,115327,10881,-12743,117990,700,19196,2867,0,56323,0.0009979999999999434
600998,-2642,5580,119797,-33996,1807,114686,541,19173,2216,0,56324,0.0010000000000000009
601998,5446,-4678,121882,3744,4094,123173,718,19181,2941,1,56325,0.0010000000000000009
602998,13095,35693,123537,10011,35576,98341,484,19173,1982,1,56326,0.0010000000000000009
603998,12612,-2407,124988,-7175,-14422,138021,641,19173,1982,0,56327,0.0010000000000000009
604998,2269,-6770,121618,-11768,-5421,116562,528,19171,2625,0,56328,0.0010000000000000009
605998,8556,-3499,131955,10069,-6120,140695,528,19167,2163,1,56329,0.0010000000000000009
606998,-1801,9227,133597,-12819,16568,118598,663,19178,2715,1,56330,0.0010000000000000009
607998,6533,14932,136028,-6709,3142,133953,451,19176,1847,1,56331,0.0010000000000000009
608998,-1843,-16406,131800,-19111,-11510,144977,598,19153,2449,0,56332,0.0010000000000000009
610000,274,19289,137503,-6290,15671,119733,449,19153,2449,0,56333,0.0010020000000000584
611000,11930,-11035,134498,10456,-13131,152219,606,19170,1839,1,56334,0.0010000000000000009
612003,4097,10924,140226,-9469,10531,124198,606,19166,2482,1,56335,0.0010029999999999761
612998,13955,-11852,137206,-11806,-14485,155794,410,19179,1679,1,56336,0.0009949999999999681
613998,6430,-2448,138456,3098,2305,130016,565,19152,2314,0,56337,0.0010000000000000009
614998,847,532,139047,4887,-6290,143588,400,19175,1638,0,56338,0.0010000000000000009
615999,3846,-11662,134988,-14051,-7612,139759,589,19175,1638,0,56339,0.0010010000000000296
616999,7958,8958,137970,-4632,6956,128683,459,19150,2412,1,56340,0.0010000000000000009
617998,19693,-7874,130227,13009,-8491,145563,459,19185,1880,1,56341,0.0009989999999999721
618998,14055,6176,130618,1929,4858,117541,513,19155,2101,0,56342,0.0010000000000000009
619998,5182,-9776,126336,1008,-16494,139968,536,19175,2195,0,56343,0.0010000000000000009
620998,13703,-6768,126455,5558,-4855,124538,574,19158,2351,0,56344,0.0010000000000000009
621998,7530,5952,129018,5764,4551,127033,574,19158,2351,1,56345,0.0010000000000000009
622998,16498,1586,122093,953,1417,126231,495,19194,2351,1,56346,0.0010000000000000009
623998,12294,6604,120474,68,6712,106613,697,19163,2027,0,56347,0.0010000000000000009
624998,4847,-11250,116857,8653,-12890,124683,697,19189,2855,0,56348,0.0010000000000000009
625998,24048,7321,118161,11301,8397,112059,542,19167,2220,1,56349,0.0010000000000000009
626998,2726,-7530,115003,16624,-10030,120719,733,19205,3002,1,56350,0.0010000000000000009
627998,21319,23869,118082,-29508,23721,101538,492,19205,2015,1,56351,0.0010000000000000009
629000,20721,-8922,117758,20050,-7697,130545,714,19172,2015,0,56352,0.0010020000000000584
629998,-8188,-7440,117457,32810,-9354,112829,536,19195,2924,0,56353,0.0009979999999999434
630998,9676,-15437,116024,-48853,-14514,120002,536,19162,2195,0,56354,0.0010000000000000009
631998,-7615,22396,123435,6246,19584,103593,685,19181,2806,1,56355,0.0010000000000000009
633012,23607,24433,123634,5877,4634,120477,452,19178,1851,1,56356,0.0010140000000000704
633998,11116,-9081,122123,-5076,-6559,127286,598,19177,2449,0,56357,0.0009859999999999314
634998,-2996,-4125,125448,5617,-14852,131030,519,19177,2449,0,56358,0.0010000000000000009
635998,11316,-12012,126773,-13014,1536,125822,653,19174,2126,1,56359,0.0010000000000000009
636998,-8802,22191,137298,-6718,23481,124596,653,19179,2674,1,56360,0.0010000000000000009
637998,15749,3874,133205,-11789,-4825,139344,442,19176,1810,1,56361,0.0010000000000000009
638998,-3013,3867,131681,-3602,1686,127730,574,19142,2351,0,56362,0.0010000000000000009
639998,-1567,2580,138091,-14629,-9717,142827,400,19177,1638,0,56363,0.0010000000000000009
640998,14309,-5351,134479,2155,5011,132260,601,19177,1638,1,56364,0.0010000000000000009
642001,2627,9997,144195,2995,-671,143525,367,19157,2462,1,56365,0.0010029999999999761
642999,18076,-10188,136082,-9348,-10381,143499,367,19177,1503,1,56366,0.0009980000000000544
644000,-1867,226,139540,-8890,822,137438,557,19151,2281,0,56367,0.0010010000000000296
644998,5258,-6509,138281,7111,-7231,145723,444,19176,1818,0,56368,0.0009979999999999434
645998,5898,-1192,133551,-3408,5168,128758,570,19154,2335,1,56369,0.0010000000000000009
646998,8544,3487,137258,-15390,751,140129,524,19154,2335,1,56370,0.0010000000000000009
648001,17917,-12720,130508,12477,-3854,135241,501,19179,2146,1,56371,0.0010029999999999761
648998,12032,-522,129341,8527,-3299,129649,501,19156,2052,0,56372,0.0009970000000000256
649998,10896,-7126,125561,3916,-11031,131008,525,19177,2150,0,56373,0.0010000000000000009
650999,8376,-3384,123807,2500,-1002,123226,573,19158,2347,1,56374,0.0010010000000000296
651998,11818,1174,127950,-947,1623,129652,678,19198,2777,1,56375,0.0009989999999999721
653000,15427,6331,121198,6771,3388,114963,493,19198,2777,1,56376,0.0010020000000000584
653998,7099,2616,122087,-5509,2012,116544,698,19170,2019,0,56377,0.0009979999999999434
654998,9716,-14090,116337,8297,-17663,120974,698,19189,2859,0,56378,0.0010000000000000009
655999,13577,2453,118380,30210,3272,114071,545,19160,2232,1,56379,0.0010010000000000296
656998,9162,1672,118952,-11093,-4432,121094,724,19198,2965,1,56380,0.0009989999999999721
657998,20710,19210,118267,-22914,26048,94273,494,19172,2023,1,56381,0.0010000000000000009
658998,18051,8717,123188,35159,-1438,124293,643,19172,2023,0,56382,0.0010000000000000009
660001,49,-16665,116409,11203,-14816,120614,521,19183,2634,0,56383,0.0010029999999999761
660998,-926,-6471,119023,-36817,-8014,119217,521,19164,2134,0,56384,0.0009970000000000256
662001,4788,4125,122497,4516,10737,116716,671,19177,2748,1,56385,0.0010029999999999761
662998,18826,37802,123713,13377,34157,102587,450,19174,1843,1,56386,0.0009970000000000256
664000,9265,-5362,122680,-8542,-10463,133791,603,19166,2470,0,56387,0.0010019999999999474
664998,2211,-4303,120161,-15355,-5122,120223,504,19166,2064,0,56388,0.0009980000000000544
665998,8162,-3083,131077,9317,-4180,134385,622,19173,2064,1,56389,0.0010000000000000009
666998,835,11264,134162,-10070,13260,120567,410,19165,2548,1,56390,0.0010000000000000009
667998,5764,8481,134178,-4772,1708,137197,410,19177,1679,1,56391,0.0010000000000000009
668998,-4977,-10132,133070,-21504,-7692,138947,568,19145,2326,0,56392,0.0010000000000000009
669998,4523,14400,138335,-8032,12615,123632,428,19170,1753,0,56393,0.0010000000000000009
670998,8359,-8705,135454,14325,-9798,148991,585,19170,2396,1,56394,0.0010000000000000009
671998,6426,6296,141652,-11718,6007,127390,344,19151,2396,1,56395,0.0010000000000000009
672998,13312,-11912,137872,-11098,-11380,149797,539,19177,1409,1,56396,0.0010000000000000009
673998,5153,2819,142431,3633,2957,135498,539,19152,2208,0,56397,0.0010000000000000009
674998,4139,-7176,136940,5947,-6221,144262,466,19170,1909,0,56398,0.0010000000000000009
675998,845,-8944,134708,-13359,-9831,131406,579,19157,2371,1,56399,0.0010000000000000009
676998,10669,7748,135873,-6657,7233,137272,525,19157,2150,1,56400,0.0010000000000000009
677998,19734,-1883,129177,11386,-3969,132216,511,19192,2150,1,56401,0.0010000000000000009
678998,13903,2084,130880,4178,1129,130872,566,19165,2093,0,56402,0.0010000000000000009
679998,6956,-10230,125158,3679,-15141,130669,566,19182,2318,0,56403,0.0010000000000000009
680998,10149,-100,125734,1614,-970,124297,572,19161,2343,1,56404,0.0010000000000000009
681998,7088,-1727,128746,2536,-1755,130580,760,19209,3113,1,56405,0.0010000000000000009
682998,13739,7642,120714,3546,9962,110171,483,19169,1978,1,56406,0.0010000000000000009
683998,10702,-1724,120096,-1783,-8404,121029,676,19169,1978,0,56407,0.0010000000000000009
684998,9617,-5621,118562,9027,-793,113487,531,19193,2769,0,56408,0.0010000000000000009
685998,21944,-3384,114740,26160,-9737,125485,531,19165,2175,1,56409,0.0010000000000000009
687001,-825,1686,116840,-18884,17352,101982,672,19186,2752,1,56410,0.0010029999999999761
688000,26229,19608,118985,-16524,8976,109135,486,19171,1991,1,56411,0.0009989999999999721
688999,11334,-8941,118681,55781,-8911,128920,643,19173,2634,0,56412,0.0009989999999999721
689998,-1359,-14190,118278,-26389,-13249,116976,524,19173,2634,0,56413,0.0009990000000000832
690998,8965,-3721,118020,-24166,5033,112605,659,19167,2146,1,56414,0.0010000000000000009
692000,-4417,29944,124588,15577,29833,108198,659,19151,2699,1,56415,0.0010019999999999474
692999,30445,12922,121533,-5886,2152,119354,411,19177,1683,1,56416,0.0009989999999999721
694000,2925,-742,122599,3215,-4296,125902,580,19159,2376,0,56417,0.0010010000000000296
694998,495,-8817,126409,-4575,-18496,133921,477,19172,1954,0,56418,0.0009980000000000544
695998,5861,-3479,127144,-10903,4934,122595,625,19172,1954,1,56419,0.0010000000000000009
696998,-5236,18435,139582,-3378,15832,130795,384,19152,2560,1,56420,0.0010000000000000009
697999,16108,7459,131086,-12432,-1787,130848,384,19180,1573,1,56421,0.0010009999999999186
699001,-6808,6842,133455,-2068,4972,133422,558,19149,2285,0,56422,0.0010020000000000584
699998,4629,-6904,136279,-16863,-9394,139183,480,19173,1966,0,56423,0.0009970000000000256
700998,11051,1942,135328,9825,6545,132129,585,19150,2396,1,56424,0.0010000000000000009
701998,4204,2559,143566,-1957,-4165,147794,378,19150,2396,1,56425,0.0010000000000000009
702998,13089,-9584,134588,-12072,-6646,139084,537,19180,1548,1,56426,0.0010000000000000009
703998,-1166,-536,139562,-7059,-1303,141104,537,19159,2199,0,56427,0.0010000000000000009
705000,11308,-4177,138937,9489,-1212,139626,522,19184,2138,0,56428,0.0010019999999999474
705998,990,2728,134129,-3156,2409,131329,561,19161,2298,1,56429,0.0009980000000000544
707001,11486,-6964,136290,-18735,-4284,142094,572,19192,2343,1,56430,0.0010029999999999761
707999,18074,-5467,128945,16352,-7760,133305,494,19192,2343,1,56431,0.0009979999999999434
708998,11943,689,130172,7631,-1567,131693,637,19168,2023,0,56432,0.0009990000000000832
709998,9723,-8680,125993,1931,-14533,130774,637,19182,2609,0,56433,0.0010000000000000009
710998,6746,-2957,124145,1126,-2239,125076,555,19161,2273,1,56434,0.0010000000000000009
711999,14705,2519,127935,961,2445,128205,729,19208,2986,1,56435,0.0010009999999999186
712998,13971,5779,117581,9198,3613,115347,472,19172,1933,1,56436,0.0009990000000000832
713998,8355,-447,122428,-7621,-826,116839,659,19172,2699,0,56437,0.0010000000000000009
714999,11908,-14636,115152,10930,-16113,120207,530,19185,2699,0,56438,0.0010009999999999186
716000,12650,6763,119686,30635,6889,117794,685,19172,2171,1,56439,0.0010010000000000296
716998,10350,-2203,115935,-19780,-2803,117225,685,19179,2806,1,56440,0.0009979999999999434
717998,20535,22333,119548,-14481,25868,95165,470,19176,1925,1,56441,0.0010000000000000009
719000,13951,-4308,118853,37920,-7607,128325,616,19180,2523,0,56442,0.0010020000000000584
719998,359,-16372,116713,1731,-14342,118002,510,19180,2089,0,56443,0.0009979999999999434
720998,-249,-6247,118822,-31387,-6836,121457,646,19168,2089,1,56444,0.0010000000000000009
721998,5932,16136,123336,5391,17264,110725,369,19143,2646,1,56445,0.0010000000000000009
722998,18610,32401,121951,10417,31097,106820,369,19182,1511,1,56446,0.0010000000000000009
724001,7250,-19724,120850,-8773,-22228,128851,571,19147,2339,0,56447,0.0010030000000000872
724998,5815,-349,121558,-10289,-5662,121791,419,19171,1716,0,56448,0.0009969999999999146
725998,7156,-2648,129041,8253,-4793,132195,606,19155,2482,1,56449,0.0010000000000000009
726998,848,15384,136729,-10611,15218,123710,367,19155,2482,1,56450,0.0010000000000000009
727998,279,-579,129799,-6894,-12693,145729,549,19178,1503,1,56451,0.0010000000000000009
728998,-4309,1594,135166,-24221,13882,124172,549,19151,2249,0,56452,0.0010000000000000009
729998,5641,7855,137242,-5171,-6841,140464,553,19176,2265,0,56453,0.0010000000000000009
730998,9498,-7584,135777,14121,-807,137525,573,19153,2347,1,56454,0.0010000000000000009
731998,7231,7315,141691,-12440,-7837,139650,459,19182,1880,1,56455,0.0010000000000000009
732998,11229,-9552,140045,1721,-5601,144939,531,19182,1880,1,56456,0.0010000000000000009
733998,3295,7446,140622,4813,1939,138506,523,19157,2175,0,56457,0.0010000000000000009
734999,3062,-13734,139124,-9843,-16155,144368,523,19189,2142,0,56458,0.0010010000000000296
735998,3694,-1414,133625,-13971,3889,130107,563,19170,2306,1,56459,0.0009989999999999721
737000,10322,3961,137120,8127,-811,139092,673,19199,2756,1,56460,0.0010020000000000584
737998,22298,-1023,128420,9412,553,129486,481,19163,1970,1,56461,0.0009979999999999434
739000,11149,1866,130894,2800,-5589,132774,649,19163,1970,0,56462,0.0010020000000000584
739998,10571,-12699,123131,3347,-12191,130130,549,19190,2658,0,56463,0.0009979999999999434
741001,8975,1828,123488,1280,7703,124211,549,19168,2249,1,56464,0.0010030000000000872
742000,9018,-3434,128345,-683,-3501,130683,712,19200,2916,1,56465,0.0009989999999999721
742998,14714,7720,117951,4159,10054,108602,478,19174,1958,1,56466,0.0009979999999999434
743998,8790,3928,122991,3150,-8303,125677,641,19176,2625,0,56467,0.0010000000000000009
744998,10860,-15159,116759,7444,-6414,109088,521,19176,2625,0,56468,0.0010000000000000009
746001,20330,6843,118766,19952,-3280,126887,647,19164,2134,1,56469,0.0010029999999999761
746999,1311,-8137,115315,-1824,2638,110295,647,19176,2650,1,56470,0.0009980000000000544
748001,22734,25891,120112,-32996,24135,99499,454,19176,1859,1,56471,0.0010019999999999474
749000,16167,-13635,119729,55524,-16910,133003,600,19172,2457,0,56472,0.0009990000000000832
749998,-3680,-9112,120377,-1962,-10630,110582,497,19170,2036,0,56473,0.0009979999999999434
750998,9395,-7192,116291,-41900,-5612,124382,627,19170,2036,1,56474,0.0010000000000000009
751998,-6477,21091,123808,20467,28196,103567,363,19135,2568,1,56475,0.0010000000000000009
753005,28304,24418,122256,-6285,14636,116948,555,19176,1487,1,56476,0.0010069999999999801
753998,6714,-5678,121810,-316,-6904,127250,555,19146,2273,0,56477,0.0009930000000000216
754998,1151,-4557,126301,4917,-11756,128657,405,19174,1659,0,56478,0.0010000000000000009
755999,8808,-9374,124428,-18082,-6360,132278,608,19145,2490,1,56479,0.0010010000000000296
756998,-8937,25374,139949,-3236,27326,116859,371,19145,1520,1,56480,0.0009989999999999721
757999,15041,6095,131223,-13552,-1452,144168,534,19181,1520,1,56481,0.0010010000000000296
758998,-9167,1075,133528,-1637,2682,126911,541,19150,2187,0,56482,0.0009989999999999721
759998,3035,-4656,139245,-15515,-6911,140364,541,19177,2216,0,56483,0.0010000000000000009
761000,12593,-4032,135226,2629,-1472,137795,564,19158,2310,1,56484,0.0010020000000000584
761998,2644,11301,142811,3294,7214,134488,500,19186,2048,1,56485,0.0009979999999999434
762999,15769,-16616,135863,-12557,-15966,152125,521,19186,2134,1,56486,0.0010010000000000296
763998,-3179,3131,138359,-5309,2965,131416,574,19167,2134,0,56487,0.0009989999999999721
764998,10963,-10575,139721,6584,-9715,150280,547,19180,2351,0,56488,0.0010000000000000009
765998,1755,-1961,131143,-2097,-502,126633,547,19159,2240,1,56489,0.0010000000000000009
766998,10959,4153,138894,-13644,2484,137981,728,19204,2982,1,56490,0.0010000000000000009
768001,20217,-5268,125404,9887,-6904,138695,475,19188,1945,1,56491,0.0010029999999999761
768998,10878,2526,130788,9063,318,125036,676,19188,2769,0,56492,0.0009970000000000256
770006,14829,-11560,125885,4343,-15247,124645,549,19199,2769,0,56493,0.0010080000000000089
771003,6098,232,122802,3126,-1866,123815,698,19160,2249,1,56494,0.0009970000000000256
772000,12226,2504,130460,-712,3894,130323,698,19188,2859,1,56495,0.0009970000000000256
772998,14108,5855,116567,4698,2867,106286,453,19179,1855,1,56496,0.0009979999999999434
773998,6080,7490,123533,-5013,7919,126130,610,19170,2498,0,56497,0.0010000000000000009
774999,12284,-20411,116000,7964,-19596,109260,513,19173,2101,0,56498,0.0010010000000000296
775998,13538,10671,118577,26437,8205,121685,657,19173,2101,1,56499,0.0009989999999999721
776998,10855,-4236,116968,-7146,-4292,112976,436,19166,2691,1,56500,0.0010000000000000009
777998,21249,21082,120580,-19708,26032,94949,436,19175,1786,1,56501,0.0010000000000000009
779000,13374,2685,119503,26614,-15015,137867,579,19154,2371,0,56502,0.0010019999999999474
779998,630,-17530,118649,-17193,-10464,106818,462,19174,1892,0,56503,0.0009980000000000544
780998,256,-8872,116293,-25444,-9062,129620,613,19150,2511,1,56504,0.0010000000000000009
781998,6130,12305,124743,11449,36660,101560,454,19150,2511,1,56505,0.0010000000000000009
782998,18263,33730,119739,12737,19702,117403,548,19186,1859,1,56506,0.0010000000000000009
783998,7615,-12907,123596,-17643,-17046,134546,548,19151,2244,0,56507,0.0010000000000000009
784998,6234,-4575,120314,-1222,-3813,119755,454,19167,1859,0,56508,0.0010000000000000009
785998,5801,-3447,130277,-538,-522,137622,588,19149,2408,1,56509,0.0010000000000000009
786998,276,15667,136157,-8653,18979,118747,446,19186,1827,1,56510,0.0010000000000000009
787998,2478,1128,131154,-5774,-12120,146437,523,19186,1827,1,56511,0.0010000000000000009
788998,-4902,-1108,133562,-19514,10105,128199,614,19160,2142,0,56512,0.0010000000000000009
789998,7087,8458,139511,2837,-111,133832,614,19182,2515,0,56513,0.0010000000000000009
790998,8143,-4887,134930,3451,-10455,142015,561,19160,2298,1,56514,0.0010000000000000009
792000,6724,6891,142431,-16625,-146,134566,527,19185,2158,1,56515,0.0010019999999999474
793000,11428,-9751,138770,-868,-6987,147306,504,19167,2064,1,56516,0.0010000000000000009
793998,3337,5597,141702,6398,4516,136597,661,19167,2064,0,56517,0.0009980000000000544
794998,4997,-12625,137641,-5334,-17135,144690,547,19189,2707,0,56518,0.0010000000000000009
795998,2447,-4155,133806,-18150,3552,131798,547,19165,2240,1,56519,0.0010000000000000009
797000,9886,7077,136989,5230,1244,136403,715,19211,2928,1,56520,0.0010019999999999474
798000,20658,-5249,127592,12396,-3981,134284,472,19174,1933,1,56521,0.0010000000000000009
798998,10388,3540,130756,3107,-404,128850,647,19184,2650,0,56522,0.0009980000000000544
799999,9988,-18330,123569,5092,-14068,134992,533,19184,2183,0,56523,0.0010010000000000296
800998,11291,891,123780,2718,2625,122782,672,19163,2183,1,56524,0.0009989999999999721
801998,7557,-2568,127004,470,-2048,130677,449,19175,2752,1,56525,0.0010000000000000009
803000,15396,7778,119139,641,8256,111426,449,19176,1839,1,56526,0.0010019999999999474
804000,7551,-2126,117967,4000,-6504,120430,600,19175,2457,0,56527,0.0010000000000000009
805000,14206,-9158,118481,10222,-5364,112432,496,19174,2031,0,56528,0.0010000000000000009
805998,17467,-788,113694,20337,-5926,126181,629,19174,2576,1,56529,0.0009980000000000544
807004,673,919,120132,-8519,6375,106741,385,19154,2576,1,56530,0.0010059999999999514
807998,27995,21979,121531,-27458,17723,102772,567,19178,1577,1,56531,0.0009940000000000504
808998,6453,-8785,120841,54167,-11856,129459,567,19145,2322,0,56532,0.0010000000000000009
809998,-1059,-10079,120231,-11901,-9420,113841,401,19169,1642,0,56533,0.0010000000000000009
810998,8980,-6944,116561,-33477,-5579,121793,606,19145,2482,1,56534,0.0010000000000000009
811998,-3847,32107,125943,21308,33415,102239,519,19145,2126,1,56535,0.0010000000000000009
812998,30947,12046,120676,-9754,7290,120735,528,19184,2126,1,56536,0.0010000000000000009
813998,1169,-6014,121446,-717,-7262,125575,522,19157,2163,0,56537,0.0010000000000000009
814998,5484,-7241,126766,5793,-12928,131268,522,19171,2138,0,56538,0.0010000000000000009
816001,6211,-1349,123036,-14449,-1561,128349,582,19150,2384,1,56539,0.0010029999999999761
816998,-6892,22587,138804,-5001,23732,122423,503,19183,2060,1,56540,0.0009970000000000256
817998,17264,-1678,130108,-19559,-3323,140704,513,19167,2101,1,56541,0.0010000000000000009
818998,-9213,9079,133939,5747,7380,139150,627,19167,2101,0,56542,0.0010000000000000009
819998,6835,-11599,141525,-9449,-9236,142034,549,19188,2568,0,56543,0.0010000000000000009
820999,8314,1922,133893,-11248,99,125338,549,19163,2249,1,56544,0.0010009999999999186
822001,5008,10207,145715,6608,8930,155877,619,19198,2535,1,56545,0.0010020000000000584
822998,15384,-12533,136503,-3713,-11215,130340,501,19169,2052,1,56546,0.0009970000000000256
823998,-4507,1854,140549,-13041,-1854,147910,690,19200,2826,0,56547,0.0010000000000000009
825000,11648,-14654,141332,420,-8001,137224,538,19200,2826,0,56548,0.0010019999999999474
825998,2032,6397,134090,-5033,7544,129447,687,19168,2203,1,56549,0.0009980000000000544
827000,11568,-676,137415,-13318,-9201,147051,687,19198,2814,1,56550,0.0010019999999999474
827998,15920,-7795,125787,16401,-532,122748,506,19181,2072,1,56551,0.0009980000000000544
829001,10216,3760,130868,63,-5242,138187,625,19181,2560,0,56552,0.0010029999999999761
829998,15045,-9967,124776,5179,-9983,123867,529,19169,2167,0,56553,0.0009970000000000256
830998,6168,1134,123014,-1680,4039,126272,658,19169,2167,1,56554,0.0010000000000000009
831999,12552,-377,127380,1998,596,127435,426,19165,2695,1,56555,0.0010009999999999186
832998,11322,8501,117586,13068,1701,107303,426,19177,1745,1,56556,0.0009990000000000832
833998,5731,6480,122751,-6483,-4050,127999,575,19157,2355,0,56557,0.0010000000000000009
834998,15109,-21932,115226,16379,-11808,108966,467,19171,1913,0,56558,0.0009999999999998899
835998,11366,14450,120812,15582,12881,121762,621,19141,2543,1,56559,0.0010000000000000009
836998,11931,-6363,116401,-17126,-7771,112475,354,19141,2543,1,56560,0.0010000000000000009
837998,18690,21453,120357,-1390,26187,96378,554,19179,1450,1,56561,0.0010000000000000009
838998,13292,-6919,119255,37456,-19581,139021,554,19148,2269,0,56562,0.0010000000000000009
839998,411,-14911,117010,-13438,-6273,103826,434,19172,1778,0,56563,0.0010000000000000009
840998,1818,-3583,117535,-30860,-5315,131211,589,19143,2412,1,56564,0.0010000000000000009
841998,5942,9720,122752,12425,28752,102356,553,19190,2265,1,56565,0.0010000000000000009
842998,18948,34696,121815,9401,18566,115030,523,19190,2142,1,56566,0.0010000000000000009
843998,6834,-15066,121108,-18243,-20550,135453,529,19165,2142,0,56567,0.0010000000000000009
844998,6722,-3890,121963,1793,-2699,118933,529,19176,2167,0,56568,0.0010000000000000009
845998,7904,-3682,130166,1101,-3604,139380,574,19151,2351,1,56569,0.0010000000000000009
846998,-1422,19135,135930,-11750,22026,115895,527,19187,2158,1,56570,0.0010000000000000009
847998,2862,-358,131954,-5102,-10287,147282,505,19170,2068,1,56571,0.0010000000000000009
848998,-5404,332,133328,-19313,7582,128791,729,19170,2986,0,56572,0.0010000000000000009
849998,8443,10638,140403,1468,916,131218,544,19196,2986,0,56573,0.0010000000000000009
850998,7011,-9181,134102,8069,-7515,146862,682,19166,2228,1,56574,0.0010000000000000009
851998,6755,9126,142615,-16907,3920,129996,682,19208,2793,1,56575,0.0010000000000000009
852998,11771,-13102,137085,-2379,-11110,151193,490,19167,2007,1,56576,0.0010000000000000009
853998,1871,9241,142350,7145,8523,133925,672,19191,2752,0,56577,0.0010000000000000009
854998,5877,-16058,135942,-4445,-17365,146262,534,19191,2187,0,56578,0.0010000000000000009
856000,3292,1516,134152,-17175,5203,130584,670,19166,2187,1,56579,0.0010020000000000584
857000,10154,5779,136928,4202,2046,136708,451,19186,2744,1,56580,0.0010000000000000009
857998,22126,-5559,128748,13978,-4038,136082,451,19172,1847,1,56581,0.0009979999999999434
858999,7570,863,128853,1526,-232,125869,603,19176,2470,0,56582,0.0010010000000000296
859998,12331,-16755,126156,2611,-18895,134902,502,19165,2056,0,56583,0.0009989999999999721
860998,10478,4275,124562,2708,4917,122145,642,19165,2629,1,56584,0.0010000000000000009
862000,7284,-3750,128409,2345,-4323,133024,395,19156,2629,1,56585,0.0010020000000000584
863000,14754,8527,119113,78,8403,110299,563,19184,1618,1,56586,0.0010000000000000009
863999,6550,-3888,118373,1533,-6591,120825,563,19143,2306,0,56587,0.0009989999999999721
864998,15682,-11071,117657,11492,-8553,115658,403,19173,1651,0,56588,0.0009989999999999721
865998,18060,2290,113484,19203,-178,121415,603,19140,2470,1,56589,0.0010000000000000009
866998,85,8852,120834,-2638,8194,102268,405,19182,1659,1,56590,0.0010000000000000009
867998,29775,14906,120744,-31661,18218,111933,542,19182,1659,1,56591,0.0010000000000000009
868998,5856,-6140,119904,49533,-6690,130126,501,19156,2220,0,56592,0.0010000000000000009
869998,1879,-14355,119502,2834,-13040,115483,501,19178,2052,0,56593,0.0010000000000000009
870998,6411,-493,116777,-41212,13846,109287,581,19146,2380,1,56594,0.0010000000000000009
871998,-3092,28216,126638,18660,26712,116262,626,19193,2564,1,56595,0.0010000000000000009
873000,29276,11200,120813,-6174,1509,112657,507,19166,2077,1,56596,0.0010020000000000584
873998,652,-688,122270,-4505,-8442,135231,557,19166,2077,0,56597,0.0009979999999999434
874998,7622,-15815,124988,9988,-12209,131428,572,19181,2281,0,56598,0.0010000000000000009
875998,4906,-1849,123859,-5826,17913,118364,572,19161,2343,1,56599,0.0010000000000000009
876998,-5711,19176,139867,-9130,15168,136222,604,19197,2474,1,56600,0.0010000000000000009
877998,16406,1906,129319,-11881,49,126217,497,19159,2036,1,56601,0.0010000000000000009
878998,-9796,3636,134762,6601,-3687,144974,692,19191,2834,0,56602,0.0010000000000000009
879999,6519,-12903,138101,-22384,-9513,135832,530,19191,2834,0,56603,0.0010010000000000296
880999,8449,7645,136121,646,8595,130296,697,19165,2171,1,56604,0.0010000000000000009
881998,5302,6017,143127,4000,-4271,151646,697,19208,2855,1,56605,0.0009989999999999721
882998,15741,-8901,137636,-2847,-7774,132801,487,19171,1995,1,56606,0.0010000000000000009
883998,-6157,-1151,139836,-13191,-8760,148879,648,19185,2654,0,56607,0.0010000000000000009
884998,11317,-6359,141219,-1175,-7412,135355,518,19168,2122,0,56608,0.0010000000000000009
885999,1227,4526,131480,-3067,4843,132893,642,19168,2122,1,56609,0.0010010000000000296
886998,11575,1388,138963,-4903,-3962,142460,439,19182,2629,1,56610,0.0009989999999999721
887999,16588,-7621,126568,19128,-8145,126691,591,19189,1798,1,56611,0.0010010000000000296
888998,9044,1394,131755,-2095,-2484,136547,591,19170,2421,0,56612,0.0009989999999999721
889999,15822,-11826,125884,3447,-11720,127075,506,19170,2072,0,56613,0.0010010000000000296
890998,6170,1169,123013,1982,5376,124706,645,19145,2642,1,56614,0.0009989999999999721
891998,13057,4394,126050,1099,4708,126896,342,19145,1401,1,56615,0.0010000000000000009
893001,11717,1558,116113,8224,4969,110075,541,19185,1401,1,56616,0.0010029999999999761
893998,9006,4281,122305,-4924,682,122862,434,19148,2216,0,56617,0.0009970000000000256
894998,16511,-19956,115223,17391,-15402,112392,434,19170,1778,0,56618,0.0010000000000000009
895998,11595,16021,120039,15171,13234,118988,602,19147,2466,1,56619,0.0010000000000000009
896998,9420,-8602,115604,-17035,-9409,116717,476,19183,1950,1,56620,0.0010000000000000009
897998,18265,22656,121511,-3819,26476,95315,525,19183,2150,1,56621,0.0010000000000000009
898998,11989,-5988,119355,36471,-13888,135581,535,19160,2150,0,56622,0.0010000000000000009
899998,-237,-12000,117796,-9293,-6600,106138,572,19178,2191,0,56623,0.0010000000000000009
900998,4180,-11066,118597,-30940,-13287,130414,572,19154,2343,1,56624,0.0010000000000000009
901998,1945,16341,125255,12369,23888,106325,740,19208,3031,1,56625,0.0010000000000000009
902998,19533,30716,122682,9454,21328,113258,505,19161,2068,1,56626,0.0010000000000000009
903998,4409,-14199,120649,-16920,-16767,135719,619,19161,2535,0,56627,0.0010000000000000009
904998,8120,-2243,123757,-2074,-3389,118027,554,19180,2535,0,56628,0.0010000000000000009
905998,7661,-4607,128584,2897,-3659,139774,695,19159,2269,1,56629,0.0010000000000000009
906999,-459,20158,138025,-11774,21774,116462,695,19204,2847,1,56630,0.0010010000000000296
907998,3654,-5414,131459,-5457,-9729,145515,494,19173,2023,1,56631,0.0009989999999999721
908998,-5420,5197,134285,-20928,7598,131144,677,19187,2773,0,56632,0.0010000000000000009
909998,10206,10121,138634,-259,8418,131444,570,19165,2335,0,56633,0.0010000000000000009
911000,6815,-6550,134297,7745,-7690,145222,676,19165,2335,1,56634,0.0010019999999999474
911998,5566,7859,141370,-17210,3939,129084,470,19194,2769,1,56635,0.0009980000000000544
912998,11819,-13843,140044,-4527,-12576,153487,470,19168,1925,1,56636,0.0010000000000000009
914000,1805,9969,141603,8135,9309,141279,624,19175,2556,0,56637,0.0010019999999999474
914998,5933,-16971,136685,-2318,-17547,142576,516,19172,2113,0,56638,0.0009980000000000544
915998,3040,1451,133648,-16080,1146,126732,639,19172,2617,1,56639,0.0010000000000000009
916998,9595,3889,136299,-162,2191,145317,420,19172,2617,1,56640,0.0010000000000000009
918001,23903,-10384,127672,16203,-10092,122411,566,19184,1720,1,56641,0.0010029999999999761
918998,8024,4265,130605,3918,-9215,137183,566,19158,2318,0,56642,0.0009970000000000256
919998,12578,-17298,122992,2580,-10491,126394,466,19173,1909,0,56643,0.0010000000000000009
920998,9603,3391,124728,2023,6698,125486,613,19145,2511,1,56644,0.0010000000000000009
922001,7455,-1651,127019,2611,-3750,128594,391,19185,1601,1,56645,0.0010029999999999761
922998,14852,8453,119247,-2184,9272,105443,536,19185,1601,1,56646,0.0009970000000000256
924001,5819,-4693,118398,7067,-14548,126954,489,19154,2195,0,56647,0.0010029999999999761
924998,17071,-6793,117877,10569,5618,109066,489,19177,2003,0,56648,0.0009970000000000256
925998,16772,2088,112692,19575,-14087,123326,580,19153,2376,1,56649,0.0010000000000000009
927000,-824,10934,121410,-21990,23530,99508,527,19184,2158,1,56650,0.0010019999999999474
927998,29753,16311,121102,2706,1674,111302,524,19162,2146,1,56651,0.0009980000000000544
929001,2727,-10209,118862,44729,-12159,130836,558,19162,2146,0,56652,0.0010029999999999761
930000,3487,-13109,119214,-40741,-13657,113973,566,19179,2285,0,56653,0.0009989999999999721
930998,7847,-1795,115630,-7587,11728,112008,566,19155,2318,1,56654,0.0009980000000000544
931998,-2577,33686,126604,12646,33149,110108,778,19204,3186,1,56655,0.0010000000000000009
933003,29714,7958,120473,-8455,-4010,118805,498,19165,2040,1,56656,0.0010049999999999226
934001,-2288,-3780,122040,4952,-1470,132095,705,19201,2887,0,56657,0.0009980000000000544
934999,9824,-14750,125153,-9467,-13293,134300,559,19201,2887,0,56658,0.0009979999999999434
935998,3958,-1896,125983,-8163,12363,117644,725,19162,2289,1,56659,0.0009990000000000832
936998,-2941,23303,140607,-3951,14386,136295,725,19213,2969,1,56660,0.0010000000000000009
937998,15065,-4741,130692,-11126,-2874,131824,493,19166,2019,1,56661,0.0010000000000000009
938998,-10028,10212,135224,1483,5918,135555,642,19170,2629,0,56662,0.0010000000000000009
939998,7770,-13226,137895,-19980,-14180,141986,510,19165,2089,0,56663,0.0010000000000000009
941001,8337,7602,135962,4106,10304,127124,654,19165,2679,1,56664,0.0010029999999999761
941998,7266,1962,142237,4214,-8529,154051,450,19183,2679,1,56665,0.0009970000000000256
943001,11756,-9656,136466,-7508,-11360,131293,607,19173,1843,0,56666,0.0010029999999999761
943999,-3492,3350,139693,-9381,480,145564,607,19172,2486,0,56667,0.0009979999999999434
944999,12357,-6583,138983,2100,-5064,136597,495,19171,2027,0,56668,0.0010000000000000009
945998,-346,8044,132743,-5511,7325,129669,606,19159,2482,1,56669,0.0009990000000000832
946998,12198,-4247,136451,-7244,-7877,145910,376,19159,1540,1,56670,0.0010000000000000009
947998,16807,-6340,127469,18725,-3536,125054,554,19177,1540,1,56671,0.0010000000000000009
948998,11543,1,131896,2328,-4819,137460,409,19152,2269,0,56672,0.0010000000000000009
949998,14332,-11585,125822,3138,-11124,125728,409,19172,1675,0,56673,0.0010000000000000009
950998,5430,2906,125207,-662,4994,125886,603,19146,2470,1,56674,0.0010000000000000009
951998,11148,941,125732,-647,4388,129370,458,19190,1876,1,56675,0.0010000000000000009
952998,12902,2283,118786,14347,2499,109024,512,19162,2097,1,56676,0.0010000000000000009
953998,8951,14,121016,-7691,-3275,123568,537,19162,2097,0,56677,0.0009999999999998899
954999,16677,-16752,116156,15528,-14017,113143,577,19179,2199,0,56678,0.0010010000000000296
955998,12208,11581,117611,22359,9048,120168,577,19154,2363,1,56679,0.0009989999999999721
956998,8179,-3377,115605,-22109,-5394,113749,572,19189,2343,1,56680,0.0010000000000000009
957998,19292,24481,121673,-3975,26302,95376,508,19160,2081,0,56681,0.0010000000000000009
958998,11004,-12396,118028,39155,-16739,136973,607,19180,2486,0,56682,0.0010000000000000009
959998,-828,-11260,117155,-10753,-11759,107383,553,19180,2486,0,56683,0.0010000000000000009
960998,2737,-5621,119811,-30858,-6421,127392,752,19161,2265,1,56684,0.0010000000000000009
961998,2670,26609,124356,10896,27841,99492,752,19196,3080,1,56685,0.0010000000000000009
963001,17562,23302,123102,7211,20071,130648,491,19174,2011,1,56686,0.0010030000000000872
963998,5090,-13089,122398,-15287,-14881,123203,674,19194,2761,0,56687,0.0009969999999999146
964998,9657,-2393,124277,796,-4163,130111,539,19159,2208,0,56688,0.0010000000000000009
966001,6923,-3841,129742,884,6828,126426,685,19159,2208,1,56689,0.0010030000000000872
966998,-268,17762,136785,-12204,9878,129735,471,19197,2806,1,56690,0.0009969999999999146
968011,3040,-7119,132465,-3464,-11816,143153,471,19175,1929,1,56691,0.0010130000000000416
968998,-3479,8329,132677,-23550,16603,122500,626,19175,2564,0,56692,0.0009869999999999601
970007,11744,1181,138690,8542,-9130,146661,512,19174,2097,0,56693,0.0010090000000000376
970998,6793,-3672,131870,-1607,3712,129467,637,19181,2609,1,56694,0.0009909999999999641
971998,7569,7408,141790,-13575,-6044,147132,442,19181,2609,1,56695,0.0010000000000000009
972998,11527,-11424,137528,3205,-1838,138326,584,19175,1810,0,56696,0.0010000000000000009
973998,1275,7315,141906,1604,-196,142054,584,19157,2392,0,56697,0.0010000000000000009
974998,4720,-16314,134966,-11781,-14261,142344,473,19175,1937,0,56698,0.0010000000000000009
975998,2852,3892,135137,-10404,10162,127391,609,19148,2494,1,56699,0.0010000000000000009
976998,10540,-987,136567,12974,-8221,146075,343,19182,1405,1,56700,0.0010000000000000009
977998,20523,-3608,131856,8529,415,121301,535,19182,1405,0,56701,0.0010000000000000009
978998,8538,1312,130433,506,-9898,137907,445,19150,2191,0,56702,0.0010000000000000009
979999,11779,-17196,123802,465,-9460,127128,445,19172,1823,0,56703,0.0010010000000000296
980998,9495,3353,125857,1895,4238,124840,589,19153,2412,1,56704,0.0009989999999999721
981998,7186,-2934,125682,7353,2287,128360,533,19190,2183,1,56705,0.0010000000000000009
982998,14779,9237,120537,-613,8833,106312,521,19162,2134,0,56706,0.0010000000000000009
983998,5765,-7896,116486,3335,-12567,126337,552,19162,2261,0,56707,0.0010000000000000009
984998,18581,-2758,117104,11038,4265,107558,563,19175,2261,0,56708,0.0010000000000000009
985998,15566,4955,111522,20928,-6296,124025,672,19161,2306,1,56709,0.0010000000000000009
986998,497,11236,121871,-24280,18375,101132,672,19191,2752,1,56710,0.0010000000000000009
987998,29897,12404,122688,-898,3243,110411,513,19163,2101,0,56711,0.0010000000000000009
988998,-491,-10226,119091,50154,-12659,133466,718,19191,2941,0,56712,0.0010000000000000009
989999,3256,-10043,117786,-42788,-9128,109573,551,19191,2257,0,56713,0.0010010000000000296
991000,7889,-136,116953,-9814,7998,115415,726,19163,2257,1,56714,0.0010010000000000296
991998,-448,29699,124376,23691,28925,111488,473,19195,2973,1,56715,0.0009979999999999434
992998,27885,4776,121636,-16534,429,116658,473,19161,1937,0,56716,0.0010000000000000009
993998,-750,-9245,122821,4996,-8371,133065,644,19184,2638,0,56717,0.0010000000000000009
994998,9907,-12961,127715,-1158,-14055,132332,542,19169,2220,0,56718,0.0010000000000000009
995999,2662,3918,124946,-11951,8386,121961,675,19169,2765,1,56719,0.0010010000000000296
996998,-3908,19396,137849,-9003,18670,131549,462,19188,2765,1,56720,0.0009989999999999721
997999,17379,-324,132234,-12369,-1014,129338,590,19172,1892,1,56721,0.0010010000000000296
999000,-8280,4772,133840,12144,865,138449,590,19163,2416,0,56722,0.0010010000000000296
1000000,10424,-11120,137994,-23042,-12563,140718,490,19166,2007,0,56723,0.0010000000000000009
1000998,3535,7469,136024,-5138,8120,129174,618,19179,2531,1,56724,0.0009980000000000544
1001998,8065,12509,142343,4501,1393,147227,441,19180,1806,1,56725,0.0009999999999998899
1002998,11557,-9737,137380,-226,-11100,138417,577,19180,1806,0,56726,0.001000000000000112
1003998,-3624,-797,140068,-8874,-1339,142775,408,19145,2363,0,56727,0.0009999999999998899
1004998,11570,-6921,136925,-5546,-9384,139046,408,19171,1671,0,56728,0.001000000000000112
1005998,649,6612,135086,1392,7636,130651,594,19145,2433,1,56729,0.0009999999999998899
1006998,14907,-639,136185,-7996,-2836,143276,410,19193,1679,1,56730,0.001000000000000112
1007998,12570,-9486,128093,16350,-9002,128159,537,19157,2199,0,56731,0.0009999999999998899
1008998,11599,461,131551,-231,-1216,134872,505,19157,2199,0,56732,0.001000000000000112
1009998,15699,-16536,124750,5932,-15964,121404,581,19174,2068,0,56733,0.0009999999999998899
1010999,7173,4875,124404,4290,5332,126787,581,19152,2380,1,56734,0.0010010000000000296
1011998,10872,-1040,126801,-5176,-571,124366,542,19190,2220,1,56735,0.0009989999999999721
1012998,10977,1658,118541,8910,1464,108345,498,19165,2040,0,56736,0.001000000000000112
1013998,8630,2840,122134,-3143,-15376,132489,596,19185,2441,0,56737,0.0009999999999998899
1014998,16079,-19617,113948,13999,4044,101216,556,19185,2441,0,56738,0.0009999999999998899
1015998,13666,20764,118638,17777,2608,126825,680,19168,2277,1,56739,0.001000000000000112
1016998,9824,-10575,114400,-11672,5347,103857,680,19200,2785,1,56740,0.0009999999999998899
1018001,18728,25032,120544,13542,17123,107456,507,19165,2077,0,56741,0.0010030000000000872
1018998,11094,-13191,118569,23923,-22990,132932,695,19202,2847,0,56742,0.0009969999999999146
1019998,-4269,-1754,115994,-28561,3088,100743,542,19165,2220,0,56743,0.001000000000000112
1020998,5124,-5697,120155,-10235,-5417,132228,710,19165,2220,1,56744,0.0009999999999998899
1021998,1459,20003,121791,17038,35841,96201,471,19181,2908,1,56745,0.001000000000000112
1022998,18787,26884,125418,5126,-320,128023,471,19172,1929,0,56746,0.0009999999999998899
1023998,5370,-18809,121786,-22622,-12569,125786,634,19169,2597,0,56747,0.001000000000000112
1024998,8476,1371,126771,7666,492,127041,522,19168,2138,0,56748,0.0009999999999998899
1026001,6345,-6256,130262,-6507,1639,132862,653,19177,2674,1,56749,0.0010030000000000872
1027008,1098,22000,137052,-5284,21659,120875,456,19177,1868,1,56750,0.0010069999999999801
1028000,2660,-12512,132092,-10710,-17720,152052,600,19177,1868,0,56751,0.000992000000000104
1028999,-511,5112,133839,-15439,18717,119340,600,19151,2457,0,56752,0.0009989999999999721
1030000,13373,4481,137786,4522,-10674,146442,451,19171,1847,0,56753,0.0010010000000000296
1031000,4715,-5860,133634,-229,4295,132602,612,19164,2507,1,56754,0.0009999999999998899
1031998,8685,10966,139396,-13712,-3894,142464,407,19177,1667,1,56755,0.0009980000000000544
1032999,9734,-13178,137505,2020,-5830,143236,558,19177,2285,0,56756,0.0010010000000000296
1033998,2405,11261,141261,2403,3674,136831,400,19151,2285,0,56757,0.0009989999999999721
1034998,4499,-18688,133274,-7641,-20054,146470,590,19175,1638,0,56758,0.0009999999999998899
1035998,2199,7684,136383,-17166,7076,123231,590,19154,2416,1,56759,0.001000000000000112
1036998,11228,751,136309,15409,-8698,147302,460,19182,1884,1,56760,0.0009999999999998899
1037998,19059,-2701,131064,8339,-129,122685,514,19160,2105,0,56761,0.001000000000000112
1038998,6814,-16,131260,-365,-8111,136490,530,19160,2171,0,56762,0.0009999999999998899
1039998,13197,-16243,125006,80,-12112,129050,570,19180,2171,0,56763,0.001000000000000112
1040998,9578,7148,126172,4418,5586,123410,578,19158,2335,1,56764,0.0009999999999998899
1041998,8220,-3511,126887,6795,-2092,130333,578,19197,2367,1,56765,0.001000000000000112
1042999,14940,8974,119739,-2444,8653,105254,498,19162,2040,0,56766,0.0010010000000000296
1043998,5135,-5502,119544,7637,-6864,123741,699,19189,2863,0,56767,0.0009989999999999721
1044998,22826,180,115270,10382,5328,113660,542,19161,2220,0,56768,0.0009999999999998899
1045998,12464,-4854,113438,20387,-4989,118473,714,19161,2220,1,56769,0.001000000000000112
1046998,6280,21622,120429,-26867,17610,104330,491,19205,2924,1,56770,0.0009999999999998899
1047998,29190,2617,121190,9284,-550,109412,491,19166,2011,0,56771,0.001000000000000112
1048998,-7065,-7975,117715,43936,-11010,131994,677,19191,2773,0,56772,0.0009999999999998899
1050000,8203,-13913,114936,-43477,-14579,113327,539,19162,2208,0,56773,0.0010020000000001694
1051000,-598,12978,119289,-6614,18588,108003,687,19174,2814,1,56774,0.0009999999999998899
1051998,6852,26555,124287,15902,23219,117823,451,19174,2814,1,56775,0.0009980000000000544
1053000,21067,496,122592,-13329,-2526,110937,609,19176,1847,0,56776,0.0010019999999999474
1053998,-4128,-7370,127248,5843,-11549,137958,609,19174,2494,0,56777,0.0009980000000000544
1054998,14060,-18675,125234,-7635,-16283,131001,515,19174,2109,0,56778,0.0009999999999998899
1055998,-553,14501,129110,-525,14464,119746,649,19175,2658,1,56779,0.001000000000000112
1056998,1094,11927,136860,-7556,12379,132015,456,19170,1868,1,56780,0.0009999999999998899
1058000,11797,5391,131927,-33499,6110,129435,581,19170,1868,0,56781,0.0010020000000001694
1058998,-1592,-3850,136409,23472,-6277,150156,403,19139,2380,0,56782,0.0009979999999998324
1059998,5685,-9486,132693,-3426,-11558,128322,403,19178,1651,0,56783,0.001000000000000112
1060998,2770,9812,136024,-30821,5066,136588,595,19152,2437,1,56784,0.0009999999999998899
1061998,8576,13394,139453,6080,3104,146727,374,19176,1532,1,56785,0.001000000000000112
1063000,17319,-7278,136688,8245,-11630,139349,563,19145,2306,0,56786,0.0010019999999999474
1064000,-2832,-5607,139528,-4082,-4125,141477,454,19145,2306,0,56787,0.001000000000000112
1064998,6544,-3342,135929,-12816,-6705,138400,572,19176,1859,0,56788,0.0009979999999998324
1065998,4171,-2820,134365,2816,5710,132615,572,19154,2343,1,56789,0.001000000000000112
1066999,10584,8107,139224,5911,-1929,141434,512,19186,2097,1,56790,0.0010010000000000296
1067998,12725,-11653,127645,5023,-11612,126910,505,19167,2068,0,56791,0.0009989999999999721
1068998,9789,459,129934,-6593,2087,128739,558,19179,2285,0,56792,0.0009999999999998899
1069998,20218,-17441,125617,12743,-9688,133675,565,19179,2285,0,56793,0.001000000000000112
1070998,9798,1053,124755,1608,9197,117975,668,19153,2314,1,56794,0.0009999999999998899
1072000,10598,6043,127031,1995,675,124676,668,19200,2736,1,56795,0.0010019999999999474
1073000,10412,-5765,119353,-1849,-1555,115246,482,19170,1974,0,56796,0.001000000000000112
1073999,8319,59,120436,5124,-12922,126935,688,19196,2818,0,56797,0.0009989999999999721
1074998,16515,-16078,113701,19071,-1188,109601,539,19168,2208,0,56798,0.0009989999999999721
1075998,12971,26380,119157,-1841,15327,113627,713,19168,2920,1,56799,0.001000000000000112
1076998,8747,-4601,114296,-7319,-2727,111906,481,19202,2920,1,56800,0.0009999999999998899
1077999,18589,17845,120540,13016,6689,107373,645,19174,1970,0,56801,0.0010010000000000296
1078998,9118,-13554,117941,23867,-15525,129489,645,19181,2642,0,56802,0.0009989999999999721
1079998,-3631,4473,117520,-24111,7273,103534,524,19166,2146,0,56803,0.001000000000000112
1080998,3747,-5388,120279,-16339,-8108,129682,665,19161,2724,1,56804,0.0009999999999998899
1081998,4234,20292,124267,17106,32176,101001,424,19161,1737,1,56805,0.001000000000000112
1083000,17623,24774,124500,8945,6751,122230,592,19174,1737,0,56806,0.0010019999999999474
1083998,3804,-18369,122581,-25186,-16390,127722,493,19167,2425,0,56807,0.0009980000000000544
1084998,8996,-1733,127492,5563,-1970,128279,493,19172,2019,0,56808,0.0009999999999998899
1085998,5287,-5458,131543,-3070,3053,134874,611,19163,2502,1,56809,0.001000000000000112
1086998,6464,23349,135842,-8788,25888,118395,407,19183,1667,1,56810,0.0009999999999998899
1087998,-403,-13197,133381,-12371,-17728,148966,562,19183,2302,0,56811,0.001000000000000112
1088998,1533,6096,133488,-15592,12925,122957,474,19141,2302,0,56812,0.0009999999999998899
1089998,11803,4353,136382,4498,-4366,143423,589,19177,1941,0,56813,0.001000000000000112
1090998,4324,-3631,135272,-1452,-597,135117,589,19150,2412,1,56814,0.0009999999999998899
1091998,9930,4140,138641,-12210,-6484,141305,364,19178,1491,1,56815,0.001000000000000112
1092998,8262,-8636,138020,1405,-6005,144794,537,19158,2199,0,56816,0.0009999999999998899
1093998,2956,7661,140916,2976,4323,136408,515,19172,2109,0,56817,0.001000000000000112
1094998,2501,-15737,132040,-9501,-22522,145187,570,19172,2109,0,56818,0.0009999999999998899
1095998,4079,9070,135989,-16381,13506,124921,569,19160,2335,1,56819,0.001000000000000112
1096998,14374,997,135250,18670,-2476,142518,569,19193,2330,1,56820,0.0009999999999998899
1097998,18166,-5741,129847,8447,-4732,127943,497,19165,2036,0,56821,0.001000000000000112
1098998,7789,-4804,130432,-2213,-8885,134445,621,19181,2543,0,56822,0.0009999999999998899
1099998,11733,-13130,125847,963,-9164,129565,557,19156,2281,0,56823,0.001000000000000112
1100998,10316,7231,127032,4602,5579,123197,740,19156,2281,1,56824,0.0009999999999998899
1101998,8689,-5680,125915,5930,-2919,130381,476,19209,3031,1,56825,0.001000000000000112
1102998,15355,8199,121042,-1785,9366,108775,476,19173,1950,0,56826,0.0009999999999998899
1103999,5282,-6416,117930,7681,-5396,123640,668,19185,2736,0,56827,0.0010010000000000296
1104998,22442,-1323,116764,8904,-1333,118198,530,19159,2171,0,56828,0.0009989999999999721
1106005,11133,-3359,113945,21590,-4058,111655,685,19192,2806,1,56829,0.0010069999999999801
1106998,5721,20270,119929,-24071,15716,107811,469,19192,2806,1,56830,0.0009930000000000216
1108001,28974,1615,119664,-2426,2035,117687,621,19173,1921,0,56831,0.0010030000000000872
1109000,-5948,-6145,117855,52101,-14005,124710,621,19177,2543,0,56832,0.0009989999999999721
1109998,8372,-12011,114290,-35917,-2504,114248,518,19172,2122,0,56833,0.0009980000000000544
1110998,-2611,11700,120847,-18436,25224,107971,651,19142,2666,1,56834,0.0009999999999998899
1111998,7570,24548,124237,19670,11720,119439,376,19181,1540,1,56835,0.001000000000000112
1113000,19140,7164,123328,-10636,2137,112788,571,19181,1540,0,56836,0.0010019999999999474
1114000,-2520,-4225,126770,8637,-23287,141234,427,19146,2339,0,56837,0.0009999999999998899
1114998,12193,-22418,125879,-7236,-2816,125665,427,19182,1749,0,56838,0.0009980000000000544
1115998,-810,18793,131096,1760,18742,121196,613,19154,2511,1,56839,0.001000000000000112
1116998,3096,13827,138060,-28803,7760,133515,364,19178,1491,1,56840,0.0009999999999998899
1117998,11301,5344,133709,-11800,-343,128570,551,19150,2257,0,56841,0.001000000000000112
1118998,-1407,-9629,135431,22646,-17485,152950,537,19150,2199,0,56842,0.0009999999999998899
1120001,7304,-5972,133318,-23269,2016,128657,567,19179,2199,0,56843,0.0010030000000000872
1121000,1897,9576,134833,-13429,10791,132826,440,19154,2322,1,56844,0.0009989999999999721
1121998,11968,10727,139903,10985,6315,145996,440,19195,1802,1,56845,0.0009980000000000544
1123000,15454,-5845,134828,-4077,-11840,138209,535,19161,2191,0,56846,0.0010019999999999474
1123998,-2033,-6252,139812,-6061,-4006,142796,526,19182,2154,0,56847,0.0009980000000000544
1124998,6708,-5282,133253,-3236,-8755,137416,555,19182,2273,0,56848,0.0009999999999998899
1125998,2789,-881,135919,-5575,4514,133478,649,19157,2273,1,56849,0.001000000000000112
1127001,12845,5464,137961,6800,-481,141625,483,19203,2658,1,56850,0.0010029999999998651
1127998,12853,-8721,129170,11218,-8999,127133,483,19171,1978,0,56851,0.0009970000000001367
1129001,9008,-2578,130826,-9265,-6001,130030,701,19201,2871,0,56852,0.0010029999999998651
1129998,14511,-13028,127361,11517,-13769,132103,554,19156,2269,0,56853,0.0009970000000001367
1131000,10010,2058,125421,3147,4956,122679,719,19156,2945,1,56854,0.0010019999999999474
1131998,13117,6037,126960,4431,5433,123924,468,19197,2945,1,56855,0.0009980000000000544
1133001,9072,-1778,120808,-217,-2835,113611,607,19166,1917,0,56856,0.0010029999999998651
1133999,9082,-4223,118531,-822,-11727,126633,607,19174,2486,0,56857,0.0009980000000000544
1134998,16202,-12277,114809,22056,-3271,111639,515,19170,2109,0,56858,0.0009989999999999721
1135998,12939,19921,116448,1755,13556,114176,667,19175,2732,1,56859,0.0009999999999998899
1136998,11594,3797,114430,-12358,6331,106905,462,19175,1892,1,56860,0.001000000000000112
1137998,19796,21233,118643,11354,13412,108849,605,19175,1892,0,56861,0.0009999999999998899
1138998,8966,-22650,117362,29138,-20742,131516,497,19171,2478,0,56862,0.001000000000000112
1139998,-4639,4581,118174,-26056,3800,103313,497,19159,2036,0,56863,0.0009999999999998899
1140998,3232,-5008,121837,-18451,-4308,126834,628,19145,2572,1,56864,0.001000000000000112
1141998,6845,29091,125589,17946,35348,101036,355,19185,1454,1,56865,0.0009999999999998899
1143001,16856,13439,124527,8713,2435,124366,561,19147,2298,0,56866,0.0010030000000000872
1143998,3299,-14438,123441,-22266,-12666,127143,434,19147,2298,0,56867,0.0009969999999999146
1144998,7885,-5565,129288,3412,-4505,128638,602,19169,1778,0,56868,0.001000000000000112
1145998,4483,-7733,132661,-2922,-2755,133946,602,19138,2466,1,56869,0.0009999999999998899
1146999,6825,20042,138257,-5508,18753,122119,358,19180,1466,1,56870,0.0010010000000000296
1147998,-860,-13061,130968,-11706,-15945,146381,533,19158,2183,0,56871,0.0009989999999999721
1148998,1899,12031,132722,-16649,14960,123513,547,19181,2240,0,56872,0.001000000000000112
1149998,12924,654,134578,4311,-4691,141169,568,19181,2240,0,56873,0.0009999999999998899
1150998,4607,3034,134642,-967,3012,134844,495,19152,2326,1,56874,0.001000000000000112
1151998,10417,-54,139444,-11717,-6042,154809,495,19187,2027,1,56875,0.0009999999999998899
1152998,7275,-7457,137336,936,-7902,132416,522,19162,2138,0,56876,0.001000000000000112
1153998,667,7795,141431,2328,5433,147835,561,19177,2298,0,56877,0.0009999999999998899
1154998,1533,-12373,133195,-10829,-15320,133714,557,19163,2281,0,56878,0.001000000000000112
1155998,3914,12780,137200,-16651,13562,130578,736,19163,2281,1,56879,0.0009999999999998899
1157000,14636,-2571,135871,14194,-6323,142306,479,19207,3014,1,56880,0.0010020000000001694
1157998,17274,-268,131149,10707,-536,121186,479,19177,1962,0,56881,0.0009979999999998324
1158998,7407,-8112,130036,-664,-19206,139996,675,19192,2765,0,56882,0.001000000000000112
1159998,12006,-14579,126239,-177,-820,122362,542,19166,2220,0,56883,0.0009999999999998899
1161001,9689,5513,127318,5234,-490,129788,693,19179,2838,1,56884,0.0010030000000000872
1161998,11920,-2314,126197,-1666,6432,117764,461,19179,2838,1,56885,0.0009969999999999146
1162998,15350,7575,119090,-2176,1604,114506,620,19170,1888,0,56886,0.001000000000000112
1163998,5035,-11475,118240,10462,-10196,119783,620,19173,2539,0,56887,0.0009999999999998899
1164998,22902,3659,116455,18451,2386,116616,510,19168,2089,0,56888,0.001000000000000112
1166000,7851,-7697,112882,5333,-784,117004,645,19174,2642,1,56889,0.0010019999999999474
1166998,9407,21651,120441,-35070,19316,102770,441,19177,1806,1,56890,0.0009980000000000544
1167998,26534,2813,117682,39981,-5162,120573,588,19177,2408,0,56891,0.0009999999999998899
1169000,-5919,-6694,117692,14724,-8276,121141,481,19163,2408,0,56892,0.0010020000000001694
1169998,8698,-11135,113548,-43603,-6796,117260,622,19170,1970,0,56893,0.0009979999999998324
1170998,-3334,11318,121084,17530,19196,105203,622,19139,2548,1,56894,0.001000000000000112
1171998,9390,26235,124751,1197,18049,116891,430,19185,1761,1,56895,0.0009999999999998899
1172998,18662,2172,123589,-10221,-1130,116794,541,19150,2216,0,56896,0.001000000000000112
1173998,-3290,-7567,125057,8397,-16913,137517,485,19150,1986,0,56897,0.0009999999999998899
1174998,14381,-16688,127886,-8969,-5096,127224,595,19174,1986,0,56898,0.001000000000000112
1175998,-2861,16512,130305,-813,21260,118094,480,19150,2437,1,56899,0.0009999999999998899
1176998,6096,12353,138230,-24588,7149,136780,480,19185,1966,1,56900,0.001000000000000112
1177998,12010,-244,132847,1026,-1191,129903,523,19159,2142,0,56901,0.0009999999999998899
1178998,-6504,-4600,136456,3701,-10333,148751,582,19181,2384,0,56902,0.001000000000000112
1179998,10775,-8277,131061,-23228,-1027,133807,556,19181,2277,0,56903,0.0009999999999998899
1180998,-740,12410,138808,206,11881,131379,523,19160,2277,1,56904,0.001000000000000112
1182000,18749,4025,138808,1201,-3638,151236,521,19189,2142,1,56905,0.0010019999999999474
1183000,6481,-7501,133929,-30,-7323,134543,521,19166,2134,0,56906,0.001000000000000112
1183998,-53,-3665,140302,-12964,-5029,145946,641,19187,2625,0,56907,0.0009979999999998324
1185002,9269,-7166,131621,1774,-7111,134648,551,19162,2257,0,56908,0.0010040000000000049
1185999,-1547,8018,138050,-545,7514,133464,709,19209,2904,1,56909,0.0009970000000001367
1186998,18265,-5918,135871,-1169,-8094,144412,467,19209,2904,1,56910,0.0009989999999999721
1187998,8816,-7940,128764,9104,-9925,121416,647,19171,1913,0,56911,0.0009999999999998899
1188998,12684,3926,132138,-3048,-2932,136326,647,19181,2650,0,56912,0.001000000000000112
1190005,12645,-14777,125127,8855,-11583,125687,534,19167,2187,0,56913,0.0010069999999999801
1191000,6728,6224,127577,1153,7058,124020,670,19181,2744,1,56914,0.0009949999999998571
1191998,15411,-2649,124789,5447,-1594,127076,445,19178,1823,1,56915,0.0009980000000000544
1193000,10627,3238,119640,1966,5390,108258,592,19178,1823,0,56916,0.0010019999999999474
1193999,9854,237,122132,-2736,-5999,129085,488,19169,2425,0,56917,0.0009990000000001942
1194998,14720,-16056,109988,18499,-10195,109286,488,19166,1999,0,56918,0.0009989999999999721
1195998,12374,25136,119942,6863,20923,115826,631,19158,2584,1,56919,0.0009999999999998899
1196998,14104,-7203,112999,-8480,-6074,115879,405,19183,1659,1,56920,0.001000000000000112
1197999,17865,22135,119964,5018,20680,98951,571,19144,2339,0,56921,0.0010010000000000296
1198998,10945,-16253,117991,26551,-17406,136781,410,19144,2339,0,56922,0.0009989999999999721
1199998,-5083,3532,116924,-15347,3203,113580,600,19166,1679,0,56923,0.0009999999999998899
1200998,3706,-5936,121411,-26496,-6246,124363,600,19143,2457,1,56924,0.001000000000000112
1201999,7223,22111,123759,15875,26338,98042,506,19185,2072,1,56925,0.0010010000000000296
1202998,15407,22120,125614,12203,17931,135645,531,19153,2175,0,56926,0.0009989999999999721
1203998,4910,-17591,123456,-21411,-9859,118205,550,19175,2253,0,56927,0.0009999999999998899
1204998,6557,-7436,130512,-1046,-4536,140126,586,19175,2253,0,56928,0.001000000000000112
1205998,3049,-1847,133781,-99,14502,120292,492,19154,2400,1,56929,0.0009999999999998899
1206998,7779,25223,137414,-7704,7964,130834,492,19187,2015,1,56930,0.001000000000000112
1207999,-2735,-14600,131293,-21009,-14083,146302,514,19163,2105,0,56931,0.0010010000000000296
1208998,1085,7634,135009,-3619,16273,119560,684,19188,2801,0,56932,0.0009989999999999721
1209998,11862,4654,134317,8257,-10247,151045,550,19167,2253,0,56933,0.0009999999999998899
1211001,5688,-1003,135827,-8771,6767,127032,595,19167,2437,1,56934,0.0010030000000000872
1212000,11528,1659,137372,-11636,-12524,152493,507,19195,2437,1,56935,0.0009989999999999721
1213000,8946,-7439,136435,2711,1800,135470,692,19166,2077,0,56936,0.0009999999999998899
1214000,1414,12314,138479,6862,-2788,140486,692,19200,2834,0,56937,0.001000000000000112
1215001,2427,-17897,132958,-15219,-11884,143741,535,19161,2191,0,56938,0.0010010000000000296
1215999,4382,8536,136371,-6676,10278,124176,684,19194,2801,1,56939,0.0009980000000000544
1216998,14938,-623,136774,14936,-6768,147153,462,19194,1892,1,56940,0.0009989999999999721
1218001,18025,-4496,129972,1532,-451,119645,628,19176,1892,0,56941,0.0010029999999998651
1218998,6813,-2194,129641,3147,-15076,137419,523,19168,2572,0,56942,0.0009970000000001367
1219998,12052,-16146,126958,4732,-6993,126833,523,19163,2142,0,56943,0.0009999999999998899
1221000,7941,8953,127504,4657,6444,121842,683,19172,2797,1,56944,0.0010019999999999474
1221998,14228,-12364,128449,-748,-3775,131065,428,19175,1753,1,56945,0.0009980000000000544
1222999,12761,7250,120236,-1474,7417,105320,573,19175,2347,0,56946,0.0010010000000000296
1224000,5492,-9976,117028,10422,-13767,124722,445,19160,2347,0,56947,0.0010010000000000296
1224998,19765,3119,114165,11873,11496,110259,620,19171,1823,0,56948,0.0009980000000000544
1225998,12161,-4360,113269,14817,-13473,122570,620,19142,2539,1,56949,0.0009999999999998899
1226998,8108,17169,119175,-27781,25717,100751,371,19178,1520,1,56950,0.001000000000000112
1227998,27457,11411,119236,14250,-3885,115321,562,19149,2302,0,56951,0.0009999999999998899
1228998,-5251,-12375,116398,35789,-10108,126351,438,19176,1794,0,56952,0.001000000000000112
1229998,3924,-3968,115738,-44221,-10647,116141,596,19176,1794,0,56953,0.0009999999999998899
1230998,1083,2838,118991,6507,11331,110913,550,19148,2441,1,56954,0.001000000000000112
1231998,5641,36429,127228,8097,34656,110395,550,19185,2253,1,56955,0.0009999999999998899
1232998,22976,-2354,124589,-8690,-11195,122416,530,19164,2171,0,56956,0.001000000000000112
1233998,-4660,-4242,125042,4881,-6275,129436,535,19177,2191,0,56957,0.0009999999999998899
1234998,12317,-14258,130697,-9623,-12759,135028,565,19157,2314,0,56958,0.001000000000000112
1236000,-3037,7788,129436,-9370,15583,114823,575,19157,2314,1,56959,0.0010019999999999474
1236998,9688,17747,140342,-272,10597,140292,508,19190,2355,1,56960,0.0009980000000000544
1238000,4679,-10899,128803,-8125,-7344,132164,508,19169,2081,0,56961,0.0010019999999999474
1239000,-3208,7788,135696,-17302,9115,134342,732,19197,2998,0,56962,0.0009999999999998899
1240000,15054,-10000,133101,-7093,-11472,143721,539,19157,2208,0,56963,0.001000000000000112
1240998,1650,13800,137061,10742,12125,125375,668,19199,2736,1,56964,0.0009980000000000544
1241998,15875,-4975,139489,-13064,-10124,157141,499,19199,2736,1,56965,0.0009999999999998899
1243000,2678,-3493,137724,-5138,-235,127989,673,19171,2044,0,56966,0.0010019999999999474
1244000,2735,1483,140254,198,-2623,149443,673,19190,2756,0,56967,0.001000000000000112
1245002,9774,-9653,131893,-608,-8341,126592,541,19163,2216,0,56968,0.0010019999999999474
1245998,-91,10389,137061,-10034,7691,128676,671,19185,2748,1,56969,0.0009959999999999969
1246998,18682,-11016,136517,3543,-11531,134701,444,19179,1818,1,56970,0.001000000000000112
1247998,12290,2841,131658,15979,2247,127395,594,19179,1818,0,56971,0.0009999999999998899
1248998,10168,-3319,131025,127,-6820,133670,511,19176,2433,0,56972,0.001000000000000112
1249999,9468,-13458,124628,-288,-10946,121963,511,19169,2093,0,56973,0.0010009999999998076
1250999,7570,4111,127136,1658,721,130777,641,19163,2625,1,56974,0.001000000000000112
1251998,16582,1125,125722,8476,6474,113187,400,19179,1638,1,56975,0.0009989999999999721
1253000,10756,6025,120716,1793,1663,115721,557,19145,2281,0,56976,0.0010019999999999474
1253998,9456,-6991,121420,-3689,-18047,124249,399,19145,2281,0,56977,0.0009980000000000544
1254998,16951,-7626,113387,24082,5485,113070,598,19177,1634,0,56978,0.0009999999999998899
1255998,6421,8243,116172,8640,-2524,121664,403,19145,2449,1,56979,0.001000000000000112
1256998,19182,5584,116420,-15592,25057,95091,403,19181,1651,1,56980,0.0009999999999998899
1257998,19343,21230,120983,39791,-2401,124662,552,19145,2261,0,56981,0.001000000000000112
1258998,4276,-19375,116479,44,-18363,123168,498,19176,2040,0,56982,0.0009999999999998899
1259998,-2549,-5672,117072,-30285,-3868,115422,575,19176,2355,0,56983,0.001000000000000112
1261002,-610,2757,121157,4290,18086,115098,620,19152,2355,1,56984,0.0010040000000000049
1261998,15298,33735,125299,12534,30801,103434,521,19192,2539,1,56985,0.0009959999999999969
1263000,10165,3694,123463,-7675,-15041,135432,521,19168,2134,0,56986,0.0010019999999999474
1264000,5395,-16297,122881,-13709,-14475,121159,605,19183,2478,0,56987,0.001000000000000112
1264998,5174,-136,131527,10570,-548,129959,570,19155,2335,0,56988,0.0009979999999998324
1265998,2976,8617,134630,-12316,11956,125424,661,19155,2707,1,56989,0.001000000000000112
1267001,6627,9364,136945,-4247,-1404,137072,488,19196,2707,1,56990,0.0010030000000000872
1268004,-3528,-7375,132977,-25084,-4003,138210,685,19170,1999,0,56991,0.0010029999999998651
1269000,5648,11105,135907,-3279,11219,124790,685,19189,2806,0,56992,0.0009959999999999969
1269998,9206,-394,133883,15270,-7593,146329,534,19166,2187,1,56993,0.0009980000000000544
1271000,6902,241,135807,-15266,1079,132289,698,19200,2859,1,56994,0.0010019999999999474
1271998,11843,497,138342,-9735,-2932,147556,487,19169,1995,1,56995,0.0009980000000000544
1273000,9159,-50,137721,4083,3553,138908,638,19169,1995,0,56996,0.0010019999999999474
1273998,1180,-562,138215,4186,-3971,140203,515,19177,2613,0,56997,0.0009980000000000544
1274998,2714,-12289,133611,-14642,-8791,141123,515,19171,2109,0,56998,0.0009999999999998899
1276000,6347,3406,135738,-2961,4656,130460,647,19181,2650,1,56999,0.0010020000000001694
1276998,16794,-1165,134257,12399,19,138389,436,19175,1786,1,57000,0.0009979999999998324
1278000,17663,2440,132451,1140,1720,124830,586,19159,2400,0,57001,0.0010020000000001694
1278998,6716,-8763,127407,3003,-18128,136159,487,19159,2400,0,57002,0.0009979999999998324
1279999,11779,-13042,128550,6742,-3463,126025,613,19166,1995,0,57003,0.0010010000000000296
1280998,5672,2005,127976,164,-3889,126719,613,19149,2511,1,57004,0.0009989999999999721
1281998,14596,-4438,125611,-5,1789,123128,345,19178,1413,1,57005,0.001000000000000112
1282998,13666,12579,122202,3583,8297,110907,545,19149,2232,0,57006,0.0009999999999998899
1283999,3472,-15866,114592,7455,-15543,122226,469,19172,1921,0,57007,0.0010010000000000296
1284998,21173,8798,118075,7697,11183,110324,589,19172,1921,0,57008,0.0009989999999999721
1285998,9762,-12013,112749,18027,-17719,129062,458,19144,2412,1,57009,0.001000000000000112
1286998,12244,22355,119073,-23303,29283,92971,458,19184,1876,1,57010,0.0009999999999998899
1287999,24630,10405,118101,8161,337,118630,528,19161,2163,0,57011,0.0010010000000000296
1288998,-5501,-14626,114604,36518,-12702,125313,541,19177,2216,0,57012,0.0009989999999999721
1289998,7358,-432,115204,-40170,-223,115022,574,19160,2351,0,57013,0.001000000000000112
1290998,-1543,894,119820,2378,5657,114335,719,19160,2351,1,57014,0.0009999999999998899
1291998,12272,42434,127670,7586,43215,100669,499,19209,2945,1,57015,0.001000000000000112
1292998,20468,-10758,124688,-3481,-17879,134384,499,19171,2044,0,57016,0.0009999999999998899
1293998,-5166,-6608,122397,2818,-5911,122087,689,19188,2822,0,57017,0.001000000000000112
1294998,11337,-8844,131687,-12799,-8958,136716,561,19163,2298,0,57018,0.0009999999999998899
1295998,-5305,7463,130655,-7012,10830,115145,686,19200,2810,1,57019,0.001000000000000112
1296998,14711,16603,140424,-2925,14469,148199,494,19200,2023,1,57020,0.0009999999999998899
1297998,764,-15658,130319,-6084,-16233,123121,671,19173,2023,0,57021,0.001000000000000112
1299000,-5585,15966,137564,-17211,-3970,138782,671,19179,2748,0,57022,0.0010019999999999474
1299998,17067,-15569,132255,-9878,-5566,140710,522,19163,2138,1,57023,0.0009980000000000544
1301000,-157,13272,136644,14681,9121,133089,669,19198,2740,1,57024,0.0010019999999999474
1302000,19407,-5205,138941,-14292,-14926,152659,475,19173,1945,1,57025,0.001000000000000112
1303000,938,-2304,136620,-4930,7275,129868,626,19173,2564,0,57026,0.0009999999999998899
1304000,2182,251,140168,3729,-16176,153573,515,19174,2564,0,57027,0.001000000000000112
1304998,5506,-11563,131377,-4954,8899,122840,634,19171,2109,0,57028,0.0009979999999998324
1305998,1068,20478,137376,-11961,-5884,142293,634,19155,2597,1,57029,0.001000000000000112
1307013,19557,-14274,133211,13710,-10964,136982,411,19179,1683,1,57030,0.0010149999999999881
1307998,11850,5900,131491,9137,4065,125413,576,19148,2359,0,57031,0.0009850000000000136
1308999,11959,-7997,132253,-2014,-22217,139837,452,19148,1851,0,57032,0.0010010000000000296
1309998,7767,-12755,124042,5859,4333,113907,614,19168,1851,0,57033,0.0009989999999999721
1310998,8977,9223,129519,1344,1031,136366,382,19143,2515,1,57034,0.0009999999999998899
1311998,15890,-4760,123169,-340,2046,113044,382,19181,1565,1,57035,0.001000000000000112
1312998,8900,7554,121016,785,825,115750,536,19151,2195,0,57036,0.0009999999999998899
1313998,9823,-13289,119643,7833,-15428,125697,520,19177,2130,0,57037,0.001000000000000112
1314999,17343,-3256,112080,23254,13718,109218,581,19177,2380,0,57038,0.0010010000000000296
1315998,6868,4721,116231,-13242,-4423,124783,526,19155,2380,1,57039,0.0009989999999999721
1316998,23513,10133,114668,-13396,25784,91190,534,19187,2154,1,57040,0.0009999999999998899
1317998,16833,17798,120201,33144,-2069,126498,534,19160,2187,0,57041,0.001000000000000112
1318998,3420,-21351,118563,2378,-20944,122413,536,19178,2195,0,57042,0.0009999999999998899
1319998,-1286,-5508,116751,-27858,-4604,116770,558,19158,2285,0,57043,0.001000000000000112
1320998,543,6931,123631,2053,17646,115681,776,19208,3178,1,57044,0.0009999999999998899
1321999,15073,35957,124812,12070,31560,101631,496,19208,3178,1,57045,0.0010010000000000296
1322999,10270,-3661,123858,-5172,-20763,135483,706,19180,2031,0,57046,0.001000000000000112
1323998,4570,-10174,124104,-12219,-7230,118149,706,19201,2892,0,57047,0.0009989999999999721
1324998,6094,-1943,132835,10249,-472,133379,549,19163,2249,1,57048,0.0009999999999998899
1325998,1437,5098,133958,-12986,9780,125340,708,19207,2900,1,57049,0.001000000000000112
1326998,7753,9627,135599,-4639,1000,134978,479,19166,1962,1,57050,0.0009999999999998899
1327998,-2294,-7034,130718,-22711,-2471,138188,653,19166,1962,0,57051,0.001000000000000112
1329000,2774,16612,136638,-4728,13010,122245,520,19189,2674,0,57052,0.0010019999999999474
1330000,9364,-7636,133693,11755,-12261,150650,520,19172,2130,1,57053,0.0009999999999998899
1330999,7461,2714,138424,-14253,6267,130225,657,19190,2691,1,57054,0.0009990000000001942
1331998,12311,-1423,137405,-7868,-3757,150278,461,19178,1888,1,57055,0.0009989999999999721
1333000,7729,-1927,138651,1761,1278,136620,603,19175,2470,0,57056,0.0010019999999999474
1334000,-611,-1844,138083,1594,-8036,142271,499,19175,2470,0,57057,0.0009999999999998899
1334998,3393,-11986,134474,-11268,-8733,141999,621,19169,2044,0,57058,0.0009980000000000544
1335998,6874,8704,136910,-2322,6682,126850,621,19149,2543,1,57059,0.001000000000000112
1336998,17381,-2975,135002,10484,-3018,142185,360,19181,1474,1,57060,0.0009999999999998899
1337998,17832,1213,131702,2654,-995,124900,559,19152,2289,0,57061,0.001000000000000112
1338998,5516,-10126,126992,5890,-16360,137414,412,19157,1687,0,57062,0.0009999999999998899
1340000,11774,-10987,127400,3257,-10488,122898,600,19157,1687,0,57063,0.0010019999999999474
1341000,5730,5519,127612,1226,3263,124963,445,19142,2457,1,57064,0.001000000000000112
1341998,16095,77,124870,2299,3133,123666,445,19191,1823,1,57065,0.0009980000000000544
1342998,13752,8615,121991,3985,7031,123938,520,19161,2130,0,57066,0.0009999999999998899
1343998,3274,-13868,115782,4572,-15577,107586,528,19180,2163,0,57067,0.001000000000000112
1344999,22603,10626,118727,8611,11934,128662,572,19155,2343,1,57068,0.0010009999999998076
1345998,5109,-14254,113199,20329,-17940,108819,538,19155,2343,1,57069,0.0009990000000001942
