t_us,ax,ay,az,ax1,ay1,az1,shunt_raw,bus_raw,curr_raw,pg_rpm,seq,dt
0,4068,5562,133321,28835,-1870,136276,253,19194,1036,0,56984,
1000,-1305,-16008,125595,-8543,-18110,130158,337,19195,1380,1,56985,0.001
1999,-14708,-2016,125367,-41187,-2968,124757,393,19195,1610,1,56986,0.0009989999999999999
2999,6326,16945,130900,5251,17828,121555,316,19220,1610,0,56987,0.001
3999,964,12842,125474,10137,10190,122422,341,19203,1294,0,56988,0.001
4999,5043,12223,127300,-26891,13821,119187,341,19183,1397,1,56989,0.001
5999,8430,3879,130335,1111,-6074,128357,338,19217,1384,0,56990,0.001
6999,17785,-1708,124108,20149,946,125802,344,19205,1409,0,56991,0.001
7999,6752,11559,134533,-4677,4104,124611,352,19205,1442,1,56992,0.0009999999999999992
8999,11531,-2916,129788,-9917,-1062,130427,263,19223,1442,1,56993,0.0010000000000000009
9999,4046,1329,128904,10357,-10,128695,381,19200,1077,0,56994,0.0009999999999999992
10999,9039,3757,129682,-3009,1529,130435,381,19196,1560,1,56995,0.0010000000000000009
12001,10734,690,124438,1476,-4887,126552,396,19226,1622,1,56996,0.0010019999999999994
12999,15528,5637,128662,5879,5288,122480,240,19201,983,0,56997,0.0009980000000000006
14000,15714,2486,128498,2098,882,128572,313,19197,1282,0,56998,0.0010009999999999984
14999,4706,-3029,127148,6334,-3910,127530,379,19197,1282,1,56999,0.0009990000000000016
15999,9916,-15586,125546,-13266,-19732,137530,312,19216,1552,0,57000,0.0009999999999999992
17000,-4544,-850,124651,16673,-2130,127947,312,19191,1278,0,57001,0.0010009999999999984
17999,4220,1004,124205,-14140,-4101,128308,325,19194,1331,1,57002,0.0009989999999999999
18999,6790,9364,131923,-24280,13317,116038,212,19221,868,1,57003,0.0010000000000000009
19999,10957,2610,131178,22762,-2352,134829,375,19197,1536,0,57004,0.0010000000000000009
20999,-3675,-19093,124099,4782,-19307,121342,359,19197,1536,1,57005,0.0010000000000000009
21999,-11353,56,127908,-44034,-6131,130033,240,19192,1470,1,57006,0.0009999999999999974
22999,5970,13071,129887,744,11939,115621,240,19217,983,0,57007,0.0010000000000000009
23999,797,23792,128473,9630,23218,124976,296,19200,1212,0,57008,0.0010000000000000009
24999,2596,5798,128136,-20849,7672,120674,396,19190,1622,1,57009,0.0010000000000000009
26000,7696,641,127160,-3715,-10838,130437,265,19205,1085,0,57010,0.0010009999999999984
27001,14594,5245,127781,17235,14383,119021,313,19205,1085,0,57011,0.0010009999999999984
28001,10263,12452,132843,-5128,-2505,130095,294,19201,1282,1,57012,0.0010000000000000009
28999,12378,-3833,129895,-2409,-4639,129796,294,19219,1204,1,57013,0.0009979999999999989
29999,4394,266,129623,-4901,-1784,132387,293,19193,1200,0,57014,0.0010000000000000009
31000,10901,927,129303,4370,-623,127353,334,19193,1368,1,57015,0.0010010000000000019
32002,7451,2896,125646,3709,510,124402,280,19226,1147,1,57016,0.001001999999999996
32999,18824,4899,128400,1339,3636,126008,315,19226,1147,0,57017,0.0009970000000000048
33999,14051,2095,128208,5774,-1821,125875,327,19205,1290,0,57018,0.0010000000000000009
34999,3888,-1463,127132,-3660,-11720,131927,327,19183,1339,1,57019,0.000999999999999994
36002,13734,-18462,123767,633,-9670,128959,235,19220,962,0,57020,0.0010030000000000039
36999,-5320,9089,126835,4146,-1885,132110,368,19205,1507,0,57021,0.0009969999999999979
38002,7363,-10070,122291,-18510,-1940,121245,351,19214,1438,1,57022,0.0010030000000000039
38999,6679,22658,136660,-8512,16960,118570,228,19214,1438,1,57023,0.0009969999999999979
39999,9683,-16445,126668,20266,-27698,145652,380,19206,934,0,57024,0.0010000000000000009
40999,-9125,-6913,126728,-23728,-3694,118554,380,19195,1556,1,57025,0.0010000000000000009
41999,-5958,-5957,127391,-29554,-7510,133137,471,19226,1929,1,57026,0.000999999999999994
42999,1042,26254,129788,20357,31400,111064,261,19206,1069,0,57027,0.0010000000000000009
44000,6016,17403,127556,-16575,5251,126389,326,19195,1335,0,57028,0.0010010000000000019
44999,3578,4479,128703,-12369,3593,122736,485,19195,1986,1,57029,0.0009989999999999999
45999,11110,-5070,124278,11230,-6925,127929,320,19224,1986,0,57030,0.0010000000000000009
46999,16651,11949,130737,6559,9367,121955,329,19204,1311,0,57031,0.0010000000000000009
47999,5457,5664,130568,-1395,-2631,127500,329,19209,1347,1,57032,0.0010000000000000009
48999,14409,2280,131655,-12427,2141,127326,260,19214,1065,0,57033,0.0010000000000000009
49999,2486,1617,130091,5141,-1301,134332,401,19202,1642,0,57034,0.000999999999999994
50999,4774,-11,127339,8972,-6267,129549,349,19202,1429,1,57035,0.0010000000000000009
51999,8570,-2261,124364,-12427,-5234,123194,227,19206,1429,1,57036,0.0010000000000000009
52999,18328,11065,129822,11319,11229,123916,313,19218,930,0,57037,0.0010000000000000009
53999,22076,1231,126644,15666,-687,128353,313,19200,1282,1,57038,0.0010000000000000009
54999,-567,-1556,128299,-11127,-8813,127903,404,19209,1655,1,57039,0.0010000000000000009
56000,9646,-19107,124409,-2858,-14286,131774,272,19193,1114,0,57040,0.001000999999999995
57000,-5064,4755,125592,5560,-4684,134365,309,19193,1266,0,57041,0.0010000000000000009
57999,5159,-5324,124425,-15336,-1028,120758,327,19201,1266,1,57042,0.0009989999999999999
58999,9943,25444,138155,-14655,19778,118277,266,19223,1339,0,57043,0.0010000000000000009
59999,9777,-25357,122807,23411,-27701,144493,266,19188,1089,0,57044,0.0010000000000000009
61001,-10792,887,130234,-16178,-2349,119409,348,19193,1425,1,57045,0.0010020000000000029
62009,-1634,-10387,124839,-34297,-11620,134114,370,19220,1515,0,57046,0.001007999999999995
62999,-2609,39631,131017,16664,39438,107620,300,19203,1229,0,57047,0.0009900000000000048
63999,5060,10087,126196,-12820,5101,129316,335,19203,1229,1,57048,0.0010000000000000009
64999,2615,2432,127602,-13679,864,121909,272,19176,1372,1,57049,0.0010000000000000009
66002,13297,-6510,124871,8017,-8113,128121,272,19219,1114,0,57050,0.00100299999999999
67002,14211,10599,131042,9284,5680,123429,348,19203,1425,1,57051,0.0010000000000000009
68001,12833,4463,129223,-5701,637,126577,368,19224,1507,1,57052,0.0009989999999999999
68999,13512,9122,132344,990,6737,133141,258,19199,1057,0,57053,0.0009979999999999989
69999,4589,-3638,125480,353,-6209,129298,357,19199,1057,0,57054,0.0010000000000000009
71000,5090,6064,128482,2168,3033,126341,403,19203,1462,1,57055,0.0010010000000000019
71999,7748,-2586,126118,-2549,197,127744,403,19227,1651,1,57056,0.0009989999999999999
72999,25851,7320,128380,5733,5873,123280,242,19205,991,0,57057,0.0010000000000000009
73999,5672,2307,129475,7116,-5154,133392,314,19194,1286,1,57058,0.0010000000000000009
74999,2803,-9088,127609,185,-20766,130186,349,19227,1429,1,57059,0.0010000000000000009
75999,11499,-13986,122909,-14225,1467,127365,310,19227,1429,0,57060,0.0010000000000000009
77001,-6256,10600,127529,2245,-6076,135439,312,19195,1270,1,57061,0.0010020000000000029
78001,13167,-3769,121190,-33020,13647,107494,312,19193,1278,1,57062,0.0010000000000000009
78999,3965,24289,138550,4364,1774,134538,212,19224,868,0,57063,0.0009979999999999989
79999,8946,-27009,123900,22776,-23685,137356,396,19199,1622,0,57064,0.0010000000000000009
80999,-14752,-6685,126098,-37084,-14504,126095,366,19197,1499,1,57065,0.0010000000000000009
81999,-4600,-4084,128056,-19984,14315,124144,250,19197,1499,0,57066,0.0010000000000000009
82999,4212,39593,128720,20210,30903,109590,296,19215,1024,0,57067,0.000999999999999987
83999,6026,11417,124565,-14956,6281,129693,296,19200,1212,1,57068,0.0010000000000000009
84999,3469,6036,129612,-15555,-6495,121837,420,19195,1720,1,57069,0.0010000000000000009
85999,13427,-12677,122241,15542,-5534,129039,269,19200,1102,0,57070,0.0010000000000000009
86999,12706,17762,133612,4043,9583,124166,319,19201,1307,1,57071,0.0010000000000000009
87999,10149,-1148,127994,-10259,-2281,127754,265,19201,1085,1,57072,0.0010000000000000009
88999,6547,7428,130626,1461,765,131732,295,19218,1085,0,57073,0.0010000000000000009
89999,9078,-2608,127316,-2866,984,129578,334,19193,1208,0,57074,0.0010000000000000009
91000,6426,8980,127570,13461,2247,123288,334,19192,1368,1,57075,0.0010010000000000019
91999,14858,-1136,123748,-4377,-3625,130126,247,19227,1012,0,57076,0.0009989999999999999
92999,19864,6482,128167,2861,1975,121928,313,19203,1282,0,57077,0.0010000000000000009
94001,8104,1953,129609,13793,-950,129587,333,19203,1364,1,57078,0.0010020000000000029
94999,4476,-9567,126485,-15222,-15466,133156,240,19193,1364,1,57079,0.0009979999999999989
95999,6400,-8944,125846,-1221,-11806,134658,362,19213,983,0,57080,0.0010000000000000009
96999,-7597,1751,125178,23260,766,124317,362,19207,1483,1,57081,0.0010000000000000009
97999,10604,10177,124402,-47503,2989,119820,370,19214,1515,1,57082,0.000999999999999987
98999,13584,4546,133786,6274,6176,125332,251,19204,1028,0,57083,0.0010000000000000009
99999,2637,-4675,129395,25810,-15106,138980,403,19204,1651,0,57084,0.0010000000000000009
101002,-6065,-14070,123500,-37128,-13120,124654,487,19197,1651,1,57085,0.0010030000000000039
101999,-9876,13254,131665,-25825,9328,121849,261,19229,1995,0,57086,0.0009969999999999979
102999,10653,15190,126486,26831,10517,126883,261,19204,1069,0,57087,0.0010000000000000009
103999,-3401,8987,123438,-11087,9441,118310,330,19197,1352,1,57088,0.0010000000000000009
104999,5493,18564,132764,-28127,12266,120735,454,19220,1859,1,57089,0.0010000000000000009
105999,12107,-8817,123433,17630,-10947,130740,343,19203,1405,0,57090,0.0010000000000000009
106999,16596,16182,130221,13632,12605,119455,327,19203,1405,1,57091,0.0010000000000000009
107999,2921,-242,130718,-17503,-4858,133289,252,19215,1339,1,57092,0.0010000000000000009
108999,12325,-623,126394,1487,-2070,126561,252,19213,1032,0,57093,0.0010000000000000009
109999,3014,4261,130144,3565,3179,131085,391,19201,1601,0,57094,0.0010000000000000009
110999,13151,327,126026,462,-3387,129324,359,19204,1470,1,57095,0.0010000000000000009
111999,13148,2021,122649,6227,-2160,124818,223,19214,913,0,57096,0.0010000000000000009
112999,19648,12148,130506,1893,9351,123214,296,19214,913,0,57097,0.000999999999999987
113999,10158,-2830,125948,5591,-5063,127868,420,19203,1212,1,57098,0.0010000000000000009
114999,-23,-4388,128782,-5799,-8132,140578,420,19227,1720,1,57099,0.0010000000000000009
116001,9393,-21325,124288,-2118,-23740,129687,265,19193,1085,0,57100,0.0010020000000000029
116999,-11417,12023,125478,16897,6372,123718,319,19202,1307,1,57101,0.0009979999999999989
117999,13939,-524,124604,-36063,-3248,120089,315,19227,1290,1,57102,0.0010000000000000009
119000,7387,21620,135991,-6311,8330,128074,267,19227,1290,0,57103,0.0010010000000000019
119999,5907,-15008,126452,25880,-25306,140195,344,19186,1094,0,57104,0.0009989999999999999
121001,-14770,-6284,125499,-25397,-3951,120114,344,19189,1409,1,57105,0.0010020000000000029
121999,578,2966,128139,-32574,8367,127566,316,19222,1294,0,57106,0.0009979999999999989
122999,4615,24361,128544,24716,23740,115584,297,19201,1216,0,57107,0.0010000000000000009
124000,3026,6638,124080,-23913,3736,126490,341,19173,1397,1,57108,0.0010010000000000019
124999,4255,11907,131566,-6352,-562,124885,234,19173,1397,1,57109,0.0009989999999999999
125999,12115,-7935,121868,21844,1098,124406,334,19214,958,0,57110,0.0010000000000000009
126999,15689,21796,131797,-3724,11676,121378,334,19204,1368,1,57111,0.0010000000000000009
127999,6048,-2175,129467,-11457,-7454,133385,355,19225,1454,1,57112,0.0010000000000000009
128999,8854,-2987,127604,9037,437,128813,270,19199,1106,0,57113,0.0010000000000000009
129999,4239,2992,129865,1238,-171,133618,339,19199,1388,0,57114,0.0010000000000000009
130999,12795,599,125683,947,-621,122581,372,19199,1388,1,57115,0.0010000000000000009
131999,13994,7358,124464,2743,2951,125952,247,19223,1524,0,57116,0.0010000000000000009
132999,19397,6667,129667,463,2073,126867,316,19204,1012,0,57117,0.0010000000000000009
134002,9118,-4317,125599,9894,-5404,127150,316,19193,1294,1,57118,0.0010029999999999761
134999,7249,-10909,127548,-6959,-17595,136222,336,19219,1376,1,57119,0.0009969999999999979
135999,-1404,-7166,125219,13804,-6568,132939,337,19200,1380,0,57120,0.0010000000000000009
136999,1350,-1394,122117,-18174,-4603,126520,324,19200,1327,1,57121,0.0010000000000000009
137999,2540,16755,131500,-18943,23445,113734,219,19192,1327,1,57122,0.0010000000000000009
138999,9444,5609,130121,20725,-11021,138106,416,19221,897,0,57123,0.0010000000000000009
139999,-323,-15990,125297,-1552,-11193,128287,416,19198,1704,0,57124,0.0010000000000000009
141000,-10189,-10483,126983,-36179,-18178,132470,385,19198,1577,1,57125,0.0010010000000000019
141999,7036,15378,127238,4476,26301,114921,248,19211,1016,0,57126,0.0009989999999999999
143001,-1662,29392,129707,1649,18244,121068,304,19211,1245,0,57127,0.0010020000000000029
143999,6358,2380,126522,-20548,1051,128578,439,19200,1245,1,57128,0.0009979999999999989
144999,-817,2503,127837,1474,-3983,124562,266,19203,1798,0,57129,0.0010000000000000009
145999,15767,2252,127177,14679,4674,124840,266,19202,1089,0,57130,0.0010000000000000009
147002,12150,13822,130774,-6457,5914,122795,320,19206,1311,1,57131,0.0010030000000000039
148000,10290,-2828,129336,-3626,-937,128038,274,19220,1122,1,57132,0.0009979999999999989
149000,5321,4390,128674,5251,2552,132327,301,19189,1233,0,57133,0.0010000000000000009
149999,11154,-740,126856,-1721,-793,128996,330,19189,1233,1,57134,0.0009989999999999999
150999,4537,9096,127640,6076,3192,123618,212,19193,1352,1,57135,0.0010000000000000009
151999,19395,-2521,125468,-4646,-6171,130739,212,19223,868,0,57136,0.0010000000000000009
152999,18574,4413,128821,7835,5068,122257,305,19203,1249,0,57137,0.0010000000000000009
153999,5589,306,128144,11396,-3758,130910,351,19183,1438,1,57138,0.0010000000000000009
155000,7932,-16062,122634,-18362,-20148,133556,246,19212,1008,1,57139,0.0010010000000000019
155999,-2369,3138,127318,20013,2499,127007,362,19212,1008,0,57140,0.0009989999999999999
157023,2993,54,123026,-12310,-7129,132957,380,19201,1483,1,57141,0.0010239999999999971
158001,3353,8423,128765,-25976,11467,111711,380,19224,1556,1,57142,0.0009780000000000066
158999,8964,3677,133695,18983,-3712,137726,243,19202,995,0,57143,0.0009979999999999989
160002,-1774,-23118,122914,3565,-22962,134061,374,19199,1532,0,57144,0.0010030000000000039
161002,-9821,1494,127879,-34705,-2863,121970,504,19228,2064,1,57145,0.0010000000000000009
161999,7140,18468,128325,-3646,14215,126105,267,19228,2064,0,57146,0.0009969999999999979
162999,-151,21458,125384,10514,19581,119153,327,19204,1094,0,57147,0.0010000000000000009
163999,4332,8900,129314,-20387,7506,128081,327,19192,1339,1,57148,0.0010000000000000009
164999,2082,-4086,127178,-6429,-7578,127997,470,19221,1925,0,57149,0.0009999999999999731
165999,13793,1528,126900,16506,10122,122503,349,19206,1429,0,57150,0.0010000000000000009
167001,9940,11937,134067,-4927,-3638,130971,331,19209,1356,1,57151,0.0010020000000000029
167999,11160,-2026,127812,-5032,6404,121596,248,19209,1356,1,57152,0.0009979999999999989
168999,5668,4987,128963,5632,-1712,135146,368,19216,1016,0,57153,0.0010000000000000009
169999,8968,2077,128708,-4761,2228,123433,368,19202,1507,1,57154,0.0010000000000000009
170999,9309,2444,125007,7785,-7403,130027,363,19211,1487,1,57155,0.0010000000000000009
171999,17801,1590,128582,3756,3530,126168,253,19207,1036,0,57156,0.0010000000000000009
173000,15045,4051,127995,6789,1469,123837,293,19200,1200,0,57157,0.0010010000000000019
173999,8264,-1357,127823,-1834,-7734,132874,438,19200,1200,1,57158,0.0009989999999999999
174999,2032,-11313,127202,-11740,-17787,135343,267,19227,1794,0,57159,0.0010000000000000009
175999,7948,-10936,122979,25126,-5302,129558,267,19194,1094,0,57160,0.0010000000000000009
176999,-6029,10963,127332,-25204,4846,121912,320,19197,1311,1,57161,0.0010000000000000009
177999,11882,3588,127615,-19483,5169,120330,298,19228,1221,1,57162,0.0010000000000000009
179001,4173,9946,134694,29814,-4069,137781,285,19185,1167,0,57163,0.0010020000000000029
180001,-1586,-18046,125802,-11281,-18422,131171,342,19185,1401,1,57164,0.0010000000000000009
180999,-14672,-1311,125982,-38576,-3520,124975,307,19182,1401,1,57165,0.0009979999999999989
181999,6714,11640,129398,6298,18172,120755,300,19218,1257,0,57166,0.0010000000000000009
182999,4530,20545,126700,7560,11533,120987,300,19202,1229,0,57167,0.0010000000000000009
183999,3063,6086,125976,-18505,11871,121434,347,19171,1421,1,57168,0.0010000000000000009
184999,6875,7252,131541,-3298,-9114,129875,243,19211,995,0,57169,0.0010000000000000009
185999,12274,-4098,123532,12979,7349,121763,322,19211,1319,0,57170,0.0010000000000000009
187000,10144,18430,134877,-877,5069,126126,357,19203,1319,1,57171,0.0010010000000000019
187999,8767,-7795,128428,-4202,-5123,131184,263,19223,1462,1,57172,0.0009989999999999999
188999,6649,615,127784,1763,448,126484,263,19192,1077,0,57173,0.0010000000000000009
190000,10943,2676,129195,-1944,644,131764,316,19202,1294,1,57174,0.0010010000000000019
190999,12738,5984,125558,9227,-1198,124033,334,19225,1368,1,57175,0.0009989999999999999
191999,14822,3114,127762,928,4436,124136,254,19225,1040,0,57176,0.0010000000000000009
192999,15602,3905,129355,-2605,1300,127545,313,19205,1040,0,57177,0.0010000000000000009
193999,5470,-6776,125656,10913,-8998,130784,342,19199,1282,1,57178,0.0010000000000000009
194999,8433,-13232,126239,-11096,-17163,134384,342,19223,1401,0,57179,0.0009999999999999731
195999,-1245,-4300,124375,12943,-4358,130376,354,19202,1450,0,57180,0.0010000000000000009
196999,3703,3935,125032,-15121,-380,123534,330,19201,1352,1,57181,0.0010000000000000009
197999,6657,10975,131879,-16795,16397,118093,229,19218,938,1,57182,0.0010000000000000009
198999,8995,2383,130874,22545,-7750,137342,397,19218,938,0,57183,0.0010000000000000009
199999,-4904,-17667,124556,-4773,-15721,129760,387,19198,1626,1,57184,0.0010000000000000009
200999,-11838,-3868,127394,-40570,-9437,128558,387,19197,1585,1,57185,0.0010000000000000009
201999,8573,17994,130240,5618,21376,118425,247,19211,1012,0,57186,0.0010000000000000009
202999,-1231,20964,127833,8478,17215,119962,308,19203,1261,0,57187,0.0010000000000000009
203999,6058,6204,127800,-24678,5657,125079,460,19204,1884,1,57188,0.0010000000000000009
204999,5540,-602,128066,204,-5766,126772,279,19204,1884,0,57189,0.0010000000000000009
206000,17626,4639,127617,19145,5179,125559,320,19199,1143,0,57190,0.0010010000000000019
206999,6572,10774,132854,-3571,4829,124358,320,19194,1311,1,57191,0.0009989999999999999
207999,17007,-4062,129928,-9949,-2960,129430,237,19223,971,1,57192,0.0010000000000000009
208999,318,2746,129874,13382,1497,129070,315,19188,1290,0,57193,0.0010000000000000009
210001,12380,-1074,128170,-3521,-2307,124134,340,19191,1393,1,57194,0.0010020000000000029
211001,5724,9716,127604,-5114,4348,127998,216,19191,1393,1,57195,0.0010000000000000009
211999,16669,2485,129238,3377,511,125958,316,19223,885,0,57196,0.0009979999999999989
212999,13031,1076,127996,12152,390,127374,316,19205,1294,0,57197,0.0010000000000000009
213999,4283,-10319,125904,-1080,-12355,130257,339,19193,1388,1,57198,0.0010000000000000009
214999,16171,-11097,125991,-7345,-10281,134987,252,19207,1032,0,57199,0.0010000000000000009
215999,-3688,1940,123941,23988,3438,124447,352,19204,1442,0,57200,0.0010000000000000009
216999,6587,8261,126489,-28907,8426,116645,400,19204,1442,1,57201,0.0010000000000000009
217999,1664,11569,135004,-20578,-925,133293,238,19228,1638,1,57202,0.0010000000000000009
218999,4954,-18028,126814,13128,-27326,138720,238,19201,975,0,57203,0.0010000000000000009
219999,-10196,-16943,125304,-40314,-9415,124445,338,19197,1384,1,57204,0.0010000000000000009
220999,1112,7575,129454,-6982,15127,120346,458,19220,1876,1,57205,0.0010000000000000009
221999,3026,29531,128472,19057,24559,115746,287,19206,1175,0,57206,0.0010000000000000009
222999,6310,13479,126636,-26250,3744,124947,334,19206,1175,0,57207,0.0010000000000000009
223999,3365,3238,127484,-8640,-51,122867,419,19194,1368,1,57208,0.0010000000000000009
224999,8137,-2811,126290,14120,-7385,130905,419,19215,1716,0,57209,0.0009999999999999731
225999,11864,5018,130588,-107,8345,120482,358,19206,1466,0,57210,0.0010000000000000009
226999,11294,3482,131667,-7027,-6378,131965,334,19207,1368,1,57211,0.0010000000000000009
227999,12486,2114,129558,6810,3443,127573,260,19213,1065,1,57212,0.0010000000000000009
228999,4737,6930,129663,-4522,4012,126778,385,19213,1577,0,57213,0.0010000000000000009
229999,10132,1881,127433,2117,151,126877,377,19206,1577,1,57214,0.0010000000000000009
230999,9856,4316,125718,6236,-5580,127910,231,19211,1544,1,57215,0.0010000000000000009
231999,15736,-1807,127548,3857,-384,127756,231,19207,946,0,57216,0.0010000000000000009
232999,11543,5980,131063,3637,1171,123058,294,19199,1204,1,57217,0.0010000000000000009
233999,5658,-8783,126424,-2221,-13536,135199,448,19226,1835,1,57218,0.0010000000000000009
234999,8335,-7493,127658,-12598,-9308,132495,266,19226,1089,0,57219,0.0010000000000000009
236000,-738,-4154,124104,21963,-4060,126648,320,19193,1089,0,57220,0.0010010000000000019
237001,5,11523,126423,-25226,6969,121390,308,19199,1311,1,57221,0.0010010000000000019
238002,14606,-626,130166,-15621,2108,122391,308,19229,1261,1,57222,0.0010010000000000019
238999,4667,1919,132156,28686,-7365,137798,295,19193,1208,0,57223,0.0009969999999999979
239999,58,-18015,123568,-15760,-16405,128910,346,19177,1417,1,57224,0.0010000000000000009
240999,-20226,4699,128360,-41873,1810,122252,272,19223,1114,1,57225,0.0010000000000000009
241999,9644,16150,131029,13635,16797,124822,301,19223,1114,0,57226,0.0010000000000000009
242999,-1806,14841,125526,4577,9030,119594,354,19201,1233,0,57227,0.0010000000000000009
243999,6968,11541,128293,-24775,14313,119677,354,19173,1450,1,57228,0.0010000000000000009
244999,12095,-582,127984,1572,-10569,130179,252,19207,1032,0,57229,0.0010000000000000009
245999,16226,4545,126514,18850,6167,122079,334,19202,1368,0,57230,0.0010000000000000009
246999,6056,7477,132910,-6251,607,129340,331,19227,1356,1,57231,0.0010000000000000009
247999,12072,-2303,128867,-7665,-5846,129557,268,19227,1356,0,57232,0.0010000000000000009
248999,4920,2194,129264,3527,2619,128173,323,19190,1098,0,57233,0.0010000000000000009
249999,10524,5459,128988,-192,1490,128820,323,19197,1323,1,57234,0.0010000000000000009
251001,9337,843,123973,6585,-4972,125305,348,19227,1425,1,57235,0.0010019999999999751
251999,18815,7482,128695,1435,6269,124115,259,19200,1061,0,57236,0.0009979999999999989
252999,12592,-352,128142,4184,-2661,129129,319,19193,1307,1,57237,0.0010000000000000009
253999,3379,-2354,127856,4510,-4350,127198,300,19193,1307,1,57238,0.0010000000000000009
254999,11713,-18166,125801,-15485,-21008,138357,362,19220,1229,0,57239,0.0010000000000000009
255999,-8343,4135,125740,17276,710,125570,362,19203,1483,0,57240,0.0010000000000000009
257001,8815,-1852,122776,-18248,-5960,119087,329,19199,1347,1,57241,0.0010020000000000029
257999,9844,16082,134467,-17650,17764,123049,228,19215,934,0,57242,0.0009979999999999989
258999,10615,-7039,128286,27942,-11762,141330,408,19197,1671,0,57243,0.0010000000000000009
259999,-7434,-10996,124959,-12008,-11870,121328,396,19197,1671,1,57244,0.0010000000000000009
260999,-9416,-2095,128595,-40234,-8274,130341,248,19208,1622,0,57245,0.0010000000000000009
261999,6359,19536,129571,14579,27568,113419,248,19211,1016,0,57246,0.0010000000000000009
262999,971,16275,126048,-1508,761,128289,318,19202,1302,1,57247,0.0010000000000000009
263999,3099,8936,129228,-19791,10321,118218,476,19214,1950,1,57248,0.0010000000000000009
264999,13344,-4288,123919,-1184,-9931,130902,273,19202,1118,0,57249,0.0010000000000000009
266000,14146,14724,130231,4438,15458,119169,319,19202,1118,1,57250,0.0010010000000000296
266999,9098,6209,130904,-10031,-6970,131390,241,19202,1307,1,57251,0.0009989999999999721
267999,11921,-4468,128891,4368,-907,129882,241,19218,987,0,57252,0.0010000000000000009
268999,5397,2760,129864,1717,-3086,133633,342,19191,1401,0,57253,0.0010000000000000009
269999,8015,1127,127426,4555,1,125137,342,19185,1401,1,57254,0.0010000000000000009
271000,8756,4477,125322,-1626,1272,125427,217,19226,889,0,57255,0.0010009999999999741
272001,19124,5591,128042,4639,3763,125091,305,19226,1249,0,57256,0.0010010000000000296
272999,11922,2404,127560,7906,-1232,127580,351,19201,1249,1,57257,0.0009979999999999989
274001,4056,-6149,127837,-12002,-17162,134473,248,19196,1438,1,57258,0.0010020000000000029
274999,9472,-15543,124410,9151,-3882,126469,248,19211,1016,0,57259,0.0009979999999999989
275999,-2942,9336,127020,2911,-5681,134432,355,19203,1454,1,57260,0.0010000000000000009
276999,7479,-6316,121947,-26871,3471,116418,401,19227,1642,1,57261,0.0010000000000000009
277999,9834,22348,136893,-856,11918,123890,242,19227,991,0,57262,0.0010000000000000009
278999,7444,-19490,125162,18029,-23666,142101,347,19191,991,0,57263,0.0010000000000000009
279999,-10797,-2864,127475,-29479,-3777,119064,472,19192,1421,1,57264,0.0010000000000000009
280999,-4169,-4170,128185,-23147,-1752,132758,472,19223,1933,0,57265,0.0010000000000000009
281999,2793,27258,128652,21345,27940,111881,275,19206,1126,0,57266,0.0010000000000000009
283002,4191,11609,125594,-17157,3474,128036,334,19188,1368,1,57267,0.0010029999999999761
283999,2557,8342,129558,-13910,4641,120535,433,19188,1773,1,57268,0.0009970000000000256
284999,13949,-6143,123277,14313,-6515,127978,348,19220,1773,0,57269,0.0010000000000000009
286000,13472,14882,131360,1211,10949,122823,339,19203,1425,1,57270,0.0010009999999999741
286999,12038,3365,129946,-8435,-2983,128803,339,19206,1388,1,57271,0.0009990000000000276
287999,6176,3248,129922,7807,-275,129605,268,19209,1098,0,57272,0.0010000000000000009
288999,4197,-4062,128763,-9640,-5821,133981,370,19201,1515,0,57273,0.0010000000000000009
289999,9239,2889,127383,7419,1038,124874,382,19218,1565,1,57274,0.0010000000000000009
290999,13930,4933,125320,7714,-505,128499,233,19218,1565,0,57275,0.0010000000000000009
291999,20787,6786,127521,-416,4347,122169,303,19205,954,0,57276,0.0010000000000000009
292999,7827,3672,128895,5399,-55,126152,303,19203,1241,1,57277,0.0010000000000000009
293999,7443,-15451,124626,-4557,-21836,137442,465,19222,1905,1,57278,0.0010000000000000009
294999,-142,698,127338,5011,4068,121943,281,19195,1151,0,57279,0.0010000000000000009
295999,1524,1247,124394,-4603,-12083,139151,323,19199,1323,1,57280,0.0010000000000000009
296999,6518,5768,125802,-17328,12035,110412,291,19199,1323,1,57281,0.0010000000000000009
297999,10132,11039,133791,-415,-1286,132071,320,19220,1192,0,57282,0.0010000000000000009
299002,3741,-23536,123915,14907,-20760,137494,320,19193,1311,0,57283,0.0010029999999999761
299999,-10134,-942,128135,-28083,-9114,121655,351,19183,1438,1,57284,0.0009969999999999701
300999,-2803,3726,127946,-19388,3778,130101,270,19223,1106,0,57285,0.0010000000000000009
301999,2431,35481,128730,13257,31146,108734,301,19202,1233,0,57286,0.0010000000000000009
302999,89,4686,126114,-13551,898,131864,353,19202,1233,1,57287,0.0010000000000000009
303999,2142,1190,126874,-14581,-1125,119753,259,19173,1446,1,57288,0.0010000000000000009
304999,15480,-1226,126273,10782,-2922,127275,259,19208,1061,0,57289,0.0010000000000000009
305999,17014,15857,130969,8346,10699,124745,317,19203,1298,1,57290,0.0010000000000000009
306999,10799,369,128430,-7342,-2401,124977,340,19221,1393,1,57291,0.0010000000000000009
307999,7526,4309,129622,1338,1323,136215,259,19191,1061,0,57292,0.0010000000000000009
308999,9244,-5135,125625,-1733,-600,125252,323,19191,1061,0,57293,0.0010000000000000009
309999,4797,4829,126717,5366,-2564,128677,322,19198,1323,1,57294,0.0010000000000000009
310999,13920,3503,126975,-336,713,126180,322,19227,1319,0,57295,0.0010000000000000009
311999,23345,8821,128444,1643,6051,123757,267,19205,1094,0,57296,0.0010000000000000009
312999,4074,1542,129030,11822,-7154,134203,315,19192,1290,1,57297,0.0010000000000000009
314009,3857,-14189,124289,-17591,-23732,131509,306,19219,1253,1,57298,0.0010100000000000109
315001,3459,-5162,125367,15622,7230,126414,366,19219,1499,0,57299,0.0009919999999999929
315999,2782,7208,125058,-5495,-10842,135669,328,19207,1499,1,57300,0.0009979999999999989
316999,5559,3678,125080,-24506,25724,103702,273,19201,1343,1,57301,0.0010000000000000009
317999,7747,15612,135742,5832,-14272,145465,273,19207,1118,0,57302,0.0010000000000000009
318999,88,-26166,124264,14974,-15826,129253,417,19201,1708,0,57303,0.0010000000000000009
319999,-11244,-6753,126541,-39320,-17052,131327,411,19196,1683,1,57304,0.0010000000000000009
320999,1113,5387,127912,-5999,24076,119593,252,19196,1032,0,57305,0.0010000000000000009
321999,2631,37153,128037,11218,26038,110588,319,19208,1032,0,57306,0.0010000000000000009
323002,4866,8748,125537,-15989,5571,131194,495,19199,1307,1,57307,0.0010030000000000316
324001,899,1498,128560,-9965,-8521,122829,495,19210,2027,1,57308,0.0009989999999999721
325001,13504,-6692,124770,19290,1438,128708,282,19209,1155,0,57309,0.0010000000000000009
326001,12163,15764,132582,-5034,5707,126220,314,19199,1286,1,57310,0.0010000000000000009
326999,11554,935,128573,-3992,4917,121571,210,19199,860,1,57311,0.0009979999999999989
327999,4800,2211,128512,3932,-6296,138872,332,19218,860,0,57312,0.0010000000000000009
328999,11973,-3325,127036,379,717,125343,338,19204,1360,0,57313,0.0010000000000000009
329999,6427,6817,127378,7149,2313,125687,338,19192,1384,1,57314,0.0010000000000000009
330999,19335,3343,125884,-2492,412,129712,222,19224,909,0,57315,0.0010000000000000009
331999,16028,7044,127306,1697,5625,118852,301,19205,1233,0,57316,0.0010000000000000009
332999,5459,776,128851,7355,-5883,134827,350,19205,1433,1,57317,0.0010000000000000009
333999,3008,-17088,124390,-8878,-19611,132142,249,19201,1433,1,57318,0.0010000000000000009
334999,7771,-4757,125495,8460,-3786,131113,343,19203,1020,0,57319,0.0010000000000000009
335999,-3715,6009,126413,3105,-505,127796,343,19202,1405,1,57320,0.0010000000000000009
336999,9371,7154,125871,-34180,8536,113682,388,19229,1589,1,57321,0.0010000000000000009
337999,6829,9067,135299,13028,243,135188,252,19185,1032,0,57322,0.0010000000000000009
338999,-1262,-17256,125716,12187,-20745,135200,328,19194,1343,0,57323,0.0010000000000000009
339999,-10202,-3679,125922,-36732,-5319,122892,427,19194,1343,1,57324,0.0010000000000000009
341000,-821,13538,130110,-14320,11566,124498,295,19221,1749,0,57325,0.0010009999999999741
341999,5230,18041,125492,20433,16267,118302,295,19204,1208,0,57326,0.0009990000000000276
343000,1700,9560,125926,-19825,8909,124632,333,19189,1364,1,57327,0.0010009999999999741
343999,4070,9340,130629,-13763,2752,122171,440,19216,1802,0,57328,0.0009990000000000276
344999,15276,-5338,123608,18729,-5138,128439,346,19208,1417,0,57329,0.0010000000000000009
345999,14368,14686,132823,4637,7826,123921,336,19208,1417,1,57330,0.0010000000000000009
347001,7820,-4049,128364,-11539,-2959,128685,254,19208,1376,1,57331,0.0010020000000000029
347999,7422,531,128056,4489,-1530,130098,254,19208,1040,0,57332,0.0009979999999999989
348999,5428,2033,129858,-314,1202,131441,379,19205,1552,1,57333,0.0010000000000000009
349999,12374,2192,125694,5901,-1854,127267,404,19228,1655,1,57334,0.0010000000000000009
350999,14555,3609,125861,2557,1357,125857,221,19209,905,0,57335,0.0010000000000000009
352000,18338,9584,128967,-892,7440,125596,301,19209,905,0,57336,0.0010009999999999741
352999,7951,-2581,126274,8135,-4070,129359,426,19204,1233,1,57337,0.0009990000000000276
353999,1156,-8448,128003,-7324,-11938,138880,426,19225,1745,0,57338,0.0010000000000000009
354999,7765,-16079,123512,2928,-19063,127880,282,19199,1155,0,57339,0.0010000000000000009
355999,-7872,10537,126433,10325,5902,124385,324,19196,1327,1,57340,0.0010000000000000009
356999,10251,3188,127093,-39932,10453,117977,247,19227,1012,1,57341,0.0010000000000000009
357999,8499,16549,135144,4729,-4200,135861,329,19227,1012,0,57342,0.0009999999999999454
358999,-163,-16942,126588,23503,-17579,132259,348,19187,1347,0,57343,0.0010000000000000009
359999,-12569,-4202,125426,-34471,-6670,123174,348,19172,1425,1,57344,0.0010000000000000009
360999,3367,9116,129088,11005,18228,122493,229,19216,938,0,57345,0.0010000000000000009
362000,1387,23149,128274,7108,11622,120998,315,19198,1290,0,57346,0.0010010000000000296
362999,3082,3780,124473,-24539,10408,121267,371,19183,1520,1,57347,0.0009989999999999721
363999,4479,13697,132581,-2695,-5494,129270,268,19183,1098,0,57348,0.0010000000000000009
365001,16146,-6586,122243,20347,7733,120906,299,19210,1098,0,57349,0.0010020000000000029
365999,12624,18516,133552,-2573,3690,125989,310,19203,1225,1,57350,0.0009979999999999989
367002,8823,-7770,129183,-6200,-6473,130946,310,19225,1270,1,57351,0.0010030000000000316
367999,7477,-1608,127554,2361,250,129060,269,19190,1102,0,57352,0.0009969999999999701
368999,8691,2805,130385,1286,2436,131584,331,19204,1356,1,57353,0.0010000000000000009
369999,9875,4651,126283,5703,-2317,123883,312,19204,1278,1,57354,0.0010000000000000009
371000,16389,856,125284,-2017,1244,126654,280,19226,1278,0,57355,0.0010010000000000296
372002,16412,5257,128796,4489,4167,124626,316,19204,1147,0,57356,0.0010020000000000029
373000,7143,294,126687,9488,-4853,128826,316,19186,1294,1,57357,0.0009979999999999989
373999,8689,-12937,126188,-15583,-21199,137460,260,19223,1065,0,57358,0.0009989999999999721
374999,-1960,-4760,126393,18269,-363,127433,369,19203,1511,0,57359,0.0010000000000000009
375999,2122,2252,124843,-16862,-8497,130774,342,19203,1401,1,57360,0.0010000000000000009
376999,3247,4815,128677,-20449,19500,112838,248,19201,1401,1,57361,0.0010000000000000009
377999,9529,14229,134536,21881,-5728,137122,392,19210,1016,0,57362,0.0010000000000000009
378999,-1818,-23900,122738,-2268,-17542,130940,392,19198,1606,1,57363,0.0010000000000000009
380000,-12680,2031,128920,-40965,-6579,124298,426,19209,1745,1,57364,0.0010010000000000296
381005,6935,6701,128504,6230,13196,125765,256,19206,1049,0,57365,0.0010049999999999781
381999,-1017,25874,128462,6446,20932,114756,323,19197,1323,0,57366,0.0009939999999999949
382999,3799,6093,127310,-22238,6218,127748,532,19197,1323,1,57367,0.0010000000000000009
383999,4986,3040,128372,936,-5738,125769,292,19224,2179,0,57368,0.0010000000000000009
384999,17648,2243,125094,15065,7520,122338,292,19205,1196,0,57369,0.0010000000000000009
386000,10803,14146,133943,476,4571,126311,319,19195,1307,1,57370,0.0010010000000000296
386999,14226,-8606,128142,-6827,-6176,128783,216,19219,885,1,57371,0.0009989999999999721
388000,962,4874,131383,3200,3264,129784,363,19202,1487,0,57372,0.0010009999999999741
388999,9811,-1296,129773,-2779,-3724,134280,340,19202,1487,1,57373,0.0009990000000000276
390002,9874,4208,124777,10386,-176,123016,244,19202,1393,1,57374,0.0010029999999999761
390999,11313,4095,127686,-4404,1108,127380,244,19219,999,0,57375,0.0009970000000000256
392000,22836,1895,127581,-258,2490,122281,312,19205,1278,0,57376,0.0010009999999999741
392999,4113,901,127754,20831,-334,129135,372,19203,1524,1,57377,0.0009990000000000276
393999,17882,-16194,124648,-17160,-19491,135504,255,19206,1044,0,57378,0.0010000000000000009
395000,-12263,-315,125014,13165,-1894,128652,329,19206,1044,0,57379,0.0010009999999999741
395999,7593,-6774,124401,-16395,-11188,133138,347,19205,1347,1,57380,0.0009990000000000276
396999,-77,14873,133533,-19942,18391,112130,347,19220,1421,1,57381,0.0010000000000000009
397999,9647,-1632,130679,19201,-7917,138802,247,19190,1012,0,57382,0.0010000000000000009
398999,-3133,-9324,126106,-1124,-8899,127265,333,19196,1364,1,57383,0.0010000000000000009
399999,-6895,-9704,124943,-39049,-14544,124257,392,19221,1606,1,57384,0.0010000000000000009
400999,8785,28858,131435,6438,29150,114818,309,19221,1606,0,57385,0.0010000000000000009
401999,535,14444,126753,4805,12363,127311,334,19205,1266,0,57386,0.0010000000000000009
402999,3811,6036,129311,-21586,5086,122904,334,19181,1368,1,57387,0.0010000000000000009
403999,4924,-8269,127208,-186,-9103,132644,391,19216,1601,0,57388,0.0010000000000000009
404999,16130,11561,128954,17556,15090,116810,328,19208,1343,0,57389,0.0010000000000000009
405999,7704,9441,131910,-5383,-4205,130980,345,19219,1413,1,57390,0.0010000000000000009
406999,13623,231,130771,-4799,-159,125264,258,19219,1057,1,57391,0.0010000000000000009
407999,3075,2394,128133,5275,-2369,134445,372,19205,1057,0,57392,0.0010000000000000009
408999,12299,2752,129508,7408,1524,124972,420,19202,1524,1,57393,0.0010000000000000009
409999,3604,3763,125661,-1871,-1654,125705,420,19225,1720,1,57394,0.0010000000000000009
410999,21469,77,127519,-1046,1123,128894,249,19208,1020,0,57395,0.0010000000000000009
411999,11706,2910,129082,18404,715,124366,312,19201,1278,0,57396,0.0010000000000000009
412999,5330,-3079,127489,-15193,-10750,130757,402,19201,1646,1,57397,0.0010000000000000009
413999,15068,-18740,123581,-3770,-14378,133905,295,19224,1646,0,57398,0.0010000000000000009
414999,-6915,4411,126576,24168,2908,127450,324,19190,1208,0,57399,0.0010000000000000009
415999,6576,-2004,123656,-39407,-3322,123082,324,19190,1327,1,57400,0.0010000000000000009
416999,4330,11802,133454,-6581,14738,118247,210,19223,860,1,57401,0.0010000000000000009
417999,6802,-4066,130101,28349,-21050,145167,351,19194,1438,0,57402,0.0009999999999999454
418999,-5320,-18653,122730,-30967,-11542,122063,353,19194,1446,1,57403,0.0010000000000000009
419999,-9374,3420,128921,-28826,5241,124694,234,19177,1446,1,57404,0.0010000000000000009
420999,7224,20361,129991,25053,20607,120175,309,19217,958,0,57405,0.0010000000000000009
421999,4237,15039,124674,-13717,10180,118247,309,19198,1266,0,57406,0.0010000000000000009
422999,3017,12586,131316,-20238,6193,125532,386,19189,1581,1,57407,0.0010000000000000009
423999,8927,-11711,124315,9855,-14158,131150,266,19205,1089,0,57408,0.0010000000000000009
424999,13938,11992,130655,10507,12240,119221,306,19204,1253,0,57409,0.0010000000000000009
425999,7497,4862,132669,-10274,-5796,133005,289,19204,1253,1,57410,0.0010000000000000009
426999,12236,947,128898,4489,2404,121959,281,19221,1184,0,57411,0.0010000000000000009
427999,4400,1877,129622,-5751,-715,134244,281,19185,1151,0,57412,0.0010000000000000009
428999,11662,4944,128663,3773,3075,124873,338,19198,1384,1,57413,0.0010000000000000009
429999,9005,2592,123971,7200,-3749,126426,283,19226,1159,1,57414,0.0010000000000000009
430999,16838,5623,128847,-1483,3752,126322,297,19205,1216,0,57415,0.0010000000000000009
432001,11913,529,128240,8114,-1375,125408,320,19205,1216,1,57416,0.0010020000000000029
433000,4657,-4379,128380,-2736,-9334,132632,230,19180,1311,1,57417,0.0009990000000000276
433999,11448,-15112,126674,-11696,-18472,136438,230,19217,942,0,57418,0.0009989999999999721
434999,-3974,-1041,124554,25244,-1872,126037,358,19198,1466,0,57419,0.0010000000000000009
435999,3487,8830,125430,-30568,3367,123349,347,19204,1421,1,57420,0.0010000000000000009
436999,12810,5384,131766,-11887,9838,119021,228,19211,934,1,57421,0.0010000000000000009
438000,4969,-870,130068,31012,-9820,139595,390,19211,934,0,57422,0.0010010000000000296
439001,-2195,-17353,124142,-22742,-15688,127845,442,19200,1597,1,57423,0.0010009999999999741
440002,-15043,2905,128827,-35979,-2193,124093,442,19212,1810,1,57424,0.0010010000000000296
441001,6257,16610,130649,17064,18268,122890,272,19205,1114,0,57425,0.0009989999999999721
441999,1204,13862,125227,-3899,8815,120066,332,19196,1360,1,57426,0.0009979999999999989
443001,5420,13840,129959,-21733,13533,120935,533,19221,2183,1,57427,0.0010020000000000029
443999,12205,-5823,125191,6245,-10847,130542,299,19221,2183,0,57428,0.0009979999999999989
444999,16666,12332,128758,13900,10997,118965,324,19198,1225,1,57429,0.0010000000000000009
445999,6638,6151,132644,-6860,-394,130590,324,19200,1327,1,57430,0.0010000000000000009
446999,12900,-5114,127860,-2723,-6333,125998,235,19215,962,0,57431,0.0010000000000000009
447999,3680,1636,130053,1486,-192,134428,381,19200,1560,0,57432,0.0010000000000000009
448999,9505,5737,129148,-4,3206,122572,345,19205,1413,1,57433,0.0010000000000000009
449999,10535,3240,123090,4694,-2878,125890,228,19205,1413,1,57434,0.0010000000000000009
450999,19135,7950,129105,1794,5599,126067,321,19216,934,0,57435,0.0010000000000000009
451999,13087,534,127641,7218,-5488,127667,321,19203,1315,1,57436,0.0010000000000000009
452999,3511,-5474,127821,3397,-17366,134723,382,19208,1565,1,57437,0.0010000000000000009
453999,10821,-14753,126951,-11415,-7961,130201,272,19197,1114,0,57438,0.0010000000000000009
454999,-8624,2954,125610,14978,-4270,130785,336,19201,1376,0,57439,0.0010000000000000009
455999,10911,-1159,123852,-28341,9710,116253,365,19201,1495,1,57440,0.0010000000000000009
456999,6145,19626,137167,9408,7154,127693,256,19226,1495,0,57441,0.0010000000000000009
457999,10008,-15868,125700,10806,-21505,137430,344,19182,1049,0,57442,0.0010000000000000009
458999,-11213,-6032,126808,-32257,-8481,124278,344,19190,1409,1,57443,0.0010000000000000009
459999,-3484,-3125,128707,-11045,4486,127311,382,19222,1565,0,57444,0.0010000000000000009
460999,4086,26651,128495,16408,26954,114275,295,19205,1208,0,57445,0.0010000000000000009
461999,2250,15039,126835,-21934,4437,127039,329,19205,1347,1,57446,0.0010000000000000009
462999,5199,6953,129074,-9608,842,122179,336,19182,1347,1,57447,0.0010000000000000009
463999,11590,-6972,123246,19043,-5211,128153,341,19220,1376,0,57448,0.0010000000000000009
465000,17745,15780,131655,-1174,11424,121562,341,19203,1397,1,57449,0.0010009999999999741
465999,6191,1075,129532,-5290,-5786,130722,357,19216,1462,1,57450,0.0009990000000000276
466999,18599,-135,128995,7862,1638,128045,275,19199,1126,0,57451,0.0010000000000000009
467999,-3240,5589,129652,-13253,-419,134076,380,19207,1556,0,57452,0.0010000000000000009
468999,13721,171,126673,5581,-380,123965,432,19207,1556,1,57453,0.0010000000000000009
470000,2193,7968,126557,15579,902,126499,238,19234,1769,0,57454,0.0010009999999999741
470999,22847,-2705,125691,-15400,-6559,128494,238,19203,975,0,57455,0.0009990000000000276
471999,14210,2533,127132,14691,2542,122145,315,19202,1290,1,57456,0.0010000000000000009
472999,4710,-143,130421,965,-9806,132555,365,19222,1495,1,57457,0.0010000000000000009
473999,14343,-12035,123096,989,-10628,130653,292,19192,1196,0,57458,0.0010000000000000009
474999,-11746,6979,128456,-4154,-2539,130468,318,19192,1196,1,57459,0.0010000000000000009
475999,10585,-2733,126051,-18394,-2271,122317,208,19191,1302,1,57460,0.0010000000000000009
476999,-664,6320,131557,603,-687,128670,208,19222,852,0,57461,0.0009999999999999454
477999,9381,-10243,129405,10728,-11948,134138,367,19204,1503,0,57462,0.0010000000000000009
478999,-13618,-10970,123853,-28232,-16841,129216,362,19184,1483,1,57463,0.0010000000000000009
479999,2984,16076,128885,-10323,22953,115063,252,19216,1032,0,57464,0.0010000000000000009
480999,-1133,28858,129028,12067,18269,122105,300,19216,1032,0,57465,0.0010000000000000009
481999,7403,5509,123388,-18166,3765,122416,395,19203,1229,1,57466,0.0010000000000000009
482999,-2993,1867,130685,-7155,-3773,127207,395,19185,1618,1,57467,0.0010000000000000009
484001,16172,-8779,124697,6069,-7800,130029,275,19199,1126,0,57468,0.0010020000000000029
484999,10972,16023,130818,5221,12110,118515,319,19201,1307,1,57469,0.0009979999999999989
486000,12020,3312,130158,-7796,-1157,131234,298,19216,1221,1,57470,0.0010010000000000296
486999,10084,2821,126215,2287,2516,125684,293,19216,1221,0,57471,0.0009989999999999721
487999,8940,5065,128993,-4326,2014,131523,332,19190,1200,0,57472,0.0010000000000000009
488999,7160,1174,125659,9785,-723,125743,332,19192,1360,1,57473,0.0010000000000000009
489999,13204,3385,125342,-37,-2751,126145,286,19228,1171,0,57474,0.0010000000000000009
490999,21311,-2350,126614,1349,-3550,131603,316,19199,1294,0,57475,0.0010000000000000009
491999,5826,7627,129768,13225,5276,120870,327,19181,1339,1,57476,0.0010000000000000009
492999,5464,-13435,125434,-13994,-17640,136868,249,19181,1339,1,57477,0.0010000000000000009
493999,6370,-2480,126275,-1748,-1838,125942,374,19210,1020,0,57478,0.0010000000000000009
494999,-6358,8030,126390,17884,-1177,134425,374,19199,1532,1,57479,0.0010000000000000009
495999,10890,-641,124057,-34252,-1506,111951,352,19215,1442,1,57480,0.0010000000000000009
497001,8225,13866,137591,-4292,9646,143826,235,19208,962,0,57481,0.0010020000000000029
498000,2960,-21961,125532,27032,-24825,129678,382,19201,1565,0,57482,0.0009990000000000276
498999,-12061,-246,126767,-30309,-880,122588,464,19201,1900,1,57483,0.0009989999999999721
499999,-4054,10397,131279,-31680,16172,125612,259,19224,1900,0,57484,0.0010000000000000009
501001,5746,25736,126127,22138,20834,114194,324,19211,1061,0,57485,0.0010020000000000584
501999,1154,10392,125922,-9800,8253,126897,324,19199,1327,1,57486,0.0009979999999999434
502999,3919,7121,130211,-22633,-8545,125645,490,19220,2007,1,57487,0.0010000000000000009
503999,13815,-11044,122647,22730,1392,125570,315,19202,1290,0,57488,0.0010000000000000009
504999,14627,15414,132204,-6376,4175,127850,327,19202,1339,1,57489,0.0010000000000000009
506001,9736,115,129040,-6031,3835,125094,242,19204,1339,1,57490,0.0010019999999999474
506999,8917,1911,127591,6487,440,133006,395,19215,991,0,57491,0.0009980000000000544
507999,6129,1804,128656,-2512,2591,127808,395,19205,1618,0,57492,0.0010000000000000009
508999,9867,3890,125354,4554,-2244,125151,348,19205,1425,1,57493,0.0010000000000000009
509999,13566,2541,124471,2453,2032,126052,227,19215,930,0,57494,0.0010000000000000009
510999,19078,4722,128033,-143,-2453,126615,315,19215,1290,0,57495,0.0010000000000000009
512001,8899,-2232,127096,10439,-1356,128715,401,19202,1290,1,57496,0.0010019999999999474
513000,1449,-4951,128046,-11877,-17319,135703,251,19220,1642,1,57497,0.0009990000000000832
514001,7758,-10557,124717,10719,-2075,126732,251,19201,1028,0,57498,0.0010009999999999186
515000,-6804,11407,126297,31,-2386,130025,311,19203,1274,1,57499,0.0009990000000000832
515999,8515,-2502,124810,-32996,4135,117522,334,19224,1368,1,57500,0.0009989999999999721
516999,11285,16971,135546,11969,5915,128230,262,19188,1073,0,57501,0.0010000000000000009
517999,552,-17336,126962,17812,-21242,138861,341,19188,1073,0,57502,0.0010000000000000009
518999,-10671,-3165,126501,-40699,-6134,121364,371,19185,1397,1,57503,0.0010000000000000009
519999,-2037,5900,129129,-16404,8802,127974,371,19222,1520,0,57504,0.0010000000000000009
521001,3465,27631,128600,21193,23879,115478,304,19202,1245,0,57505,0.0010019999999999474
521999,3751,5731,123450,-18307,5352,124918,342,19178,1401,1,57506,0.0009980000000000544
522999,3578,12578,131391,-13135,1715,122562,284,19212,1163,1,57507,0.0010000000000000009
523999,14396,-8477,122760,21292,-4154,127817,345,19212,1163,0,57508,0.0010000000000000009
524999,13682,15951,131484,-712,9051,123908,370,19198,1413,1,57509,0.0010000000000000009
525999,8840,-173,130145,-8507,-1135,129895,370,19226,1515,1,57510,0.0010000000000000009
526999,7256,-1817,127879,6721,-2951,131723,261,19200,1069,0,57511,0.0010000000000000009
528000,7479,-714,128485,-1180,-418,132055,361,19203,1479,1,57512,0.0010010000000000296
528999,10211,6962,127868,7221,581,123808,408,19229,1671,1,57513,0.0009989999999999721
530000,16846,1463,123932,1715,843,126204,241,19229,1671,0,57514,0.0010010000000000296
530999,17844,7717,129048,-1582,3967,123306,315,19199,987,0,57515,0.0009989999999999721
532000,6857,-2895,126577,9251,-4468,130833,315,19201,1290,1,57516,0.0010010000000000296
532999,2674,-9166,126371,-8312,-15379,133995,351,19225,1438,1,57517,0.0009989999999999721
534001,4189,-6404,125835,5835,-5675,130048,313,19193,1282,0,57518,0.0010019999999999474
535001,-3019,5061,125230,4226,-1781,128680,321,19196,1315,1,57519,0.0010000000000000009
535999,8173,1496,125997,-31263,3018,118563,231,19196,1315,1,57520,0.0009980000000000544
536999,10159,13124,134850,8060,7782,126932,412,19216,946,0,57521,0.0010000000000000009
537999,-398,-15888,124650,15743,-18549,137721,412,19204,1687,0,57522,0.0010000000000000009
538999,-13166,-1622,126915,-34582,-6396,122881,373,19193,1528,1,57523,0.0010000000000000009
539999,2545,7680,128376,-18967,5905,127049,243,19212,995,0,57524,0.0010000000000000009
540999,916,22928,127653,18372,20554,117266,295,19201,1208,0,57525,0.0010000000000000009
541999,4173,3521,124726,-13840,3566,120279,413,19201,1208,1,57526,0.0010000000000000009
542999,4808,10604,130525,-15321,5578,128300,282,19194,1692,0,57527,0.0010000000000000009
543999,15177,-3523,123420,17050,-4411,120060,282,19200,1155,0,57528,0.0010000000000000009
544999,13321,18941,132726,3881,14320,127844,320,19208,1311,1,57529,0.0010000000000000009
545999,8084,-5405,129030,-8822,-6217,128583,268,19215,1098,1,57530,0.0010000000000000009
546999,5960,-375,129565,3307,-4784,133339,299,19192,1225,0,57531,0.0010000000000000009
547999,6862,-2407,129122,-1300,820,129090,337,19192,1380,1,57532,0.0010000000000000009
548999,10288,4661,126820,8099,-3679,126340,248,19196,1380,1,57533,0.0010000000000000009
550000,18974,3481,126044,549,6337,123829,302,19230,1016,0,57534,0.0010009999999999186
550999,16179,7715,128539,4682,2737,125701,302,19203,1237,0,57535,0.0009990000000000832
551999,7160,-1781,126606,4857,-6321,129894,329,19187,1347,1,57536,0.0010000000000000009
552999,7214,-15077,124790,-12301,-19003,135771,240,19213,983,0,57537,0.0010000000000000009
554001,-669,-1706,125973,16752,87,128561,362,19213,1483,0,57538,0.0010019999999999474
555001,2226,2231,124494,-20738,-6176,126188,363,19201,1483,1,57539,0.0010000000000000009
556000,4308,5773,128700,-14598,17943,115570,228,19216,1487,1,57540,0.0009989999999999721
556999,9317,10886,133993,24391,-14976,141669,228,19201,934,0,57541,0.0009990000000000832
558000,-1050,-22192,123088,-10075,-11624,125626,397,19199,1626,1,57542,0.0010009999999999186
558999,-13937,681,128467,-37213,-6882,128196,486,19226,1991,1,57543,0.0009990000000000832
559999,6855,9695,127958,11076,20878,119584,261,19226,1069,0,57544,0.0010000000000000009
560999,-743,26970,127928,-1312,15220,118737,333,19205,1069,0,57545,0.0010000000000000009
561999,2747,4661,127290,-21409,6679,125474,450,19193,1364,1,57546,0.0010000000000000009
562999,5791,698,127919,3712,-10612,128146,450,19220,1843,0,57547,0.0010000000000000009
563999,15275,873,125955,15109,9360,122782,318,19206,1302,0,57548,0.0010000000000000009
564999,7937,14455,133009,-7567,2899,125983,326,19211,1335,1,57549,0.0010000000000000009
565999,13368,-3245,128900,-5709,2102,125280,253,19215,1036,1,57550,0.0010000000000000009
566999,5774,4835,130652,8611,-235,134717,390,19215,1036,0,57551,0.0009999999999998899
567999,8835,-4079,128053,375,-4933,130256,356,19206,1597,1,57552,0.0010000000000000009
568999,8273,2938,126558,-2591,-4165,125569,356,19209,1458,1,57553,0.0010000000000000009
569999,16407,3649,128959,5694,4085,126592,226,19210,926,0,57554,0.0010000000000000009
570999,18326,5454,127817,6159,3690,124189,303,19201,1241,0,57555,0.0010000000000000009
572001,3852,-802,127654,824,-5408,131241,419,19218,1716,1,57556,0.0010020000000000584
572999,9702,-17687,124080,-9311,-19779,134345,264,19218,1716,0,57557,0.0009979999999999434
573999,-2137,3623,124778,19345,3076,128339,316,19195,1081,0,57558,0.0010000000000000009
575000,4115,-897,124303,-22583,-7545,127828,316,19202,1294,1,57559,0.0010010000000000296
575999,5196,12463,131942,-16392,20700,112566,312,19230,1278,1,57560,0.0009989999999999721
576999,11586,-1651,131418,24895,-15285,144111,272,19187,1114,0,57561,0.0010000000000000009
577999,-4482,-17626,124663,-5828,-11833,124916,345,19189,1413,1,57562,0.0010000000000000009
578999,-11597,-2986,127238,-41672,-10049,129347,375,19189,1413,1,57563,0.0010000000000000009
579999,7763,20095,129654,6831,24804,117687,307,19223,1536,0,57564,0.0010000000000000009
580999,-251,23275,127596,4131,17179,119162,307,19205,1257,0,57565,0.0010000000000000009
581999,5024,5521,128478,-20003,5611,126730,339,19166,1388,1,57566,0.0010000000000000009
582999,4927,-3007,126859,1448,-8073,125914,288,19213,1180,0,57567,0.0010000000000000009
584001,14284,5203,127532,15064,6539,124628,343,19202,1405,0,57568,0.0010020000000000584
584999,7975,10037,133026,-4340,3484,125795,377,19202,1405,1,57569,0.0009979999999999434
585999,14888,-2986,128836,-7994,191,127616,260,19225,1544,1,57570,0.0010000000000000009
586999,-827,6912,130493,10632,3875,129908,260,19196,1065,0,57571,0.0010000000000000009
588000,14944,-3260,127270,-2615,-4135,131171,338,19203,1384,1,57572,0.0010010000000000296
588999,8646,5288,125467,1084,-767,130148,375,19226,1536,1,57573,0.0009989999999999721
589999,15367,3134,129903,3793,1385,126084,244,19203,999,0,57574,0.0010000000000000009
590999,16570,5026,129527,2735,4890,124600,316,19203,1294,0,57575,0.0010000000000000009
592000,2294,-6479,127164,9233,-9274,134700,363,19198,1294,1,57576,0.0010010000000000296
593001,10551,-18030,123785,-16042,-20291,130973,324,19219,1487,0,57577,0.0010010000000000296
594001,-3909,3280,126141,17231,5120,128887,324,19194,1327,0,57578,0.0010000000000000009
595001,7009,1520,124681,-8480,-1417,120341,322,19193,1319,1,57579,0.0010000000000000009
595999,7897,13607,132470,-27990,17005,117715,223,19224,913,1,57580,0.0009979999999999434
596999,8227,-2614,132137,17873,-25813,148265,415,19224,1700,0,57581,0.0010000000000000009
598000,-3557,-18726,125093,11780,-9750,121183,374,19198,1700,1,57582,0.0010010000000000296
598999,-15193,-6799,126382,-35854,-5693,129940,246,19188,1532,1,57583,0.0009989999999999721
599999,11789,23039,131532,26901,31664,113401,246,19211,1008,0,57584,0.0010000000000000009
600999,-967,20337,125789,-13674,6374,122668,296,19200,1212,0,57585,0.0010000000000000009
601999,5972,10780,128985,-17689,9110,120830,428,19193,1753,1,57586,0.0010000000000000009
602999,6222,-6402,126751,7950,-16116,132560,276,19193,1130,0,57587,0.0010000000000000009
603999,15150,6325,128314,15273,12698,120508,324,19202,1130,0,57588,0.0010000000000000009
604999,7469,6857,133259,-12120,-5661,132583,274,19200,1327,1,57589,0.0010000000000000009
605999,12234,416,130374,60,351,124118,274,19216,1122,1,57590,0.0010000000000000009
606999,3119,2828,128680,-1084,-340,133541,297,19193,1216,0,57591,0.0010000000000000009
607999,13303,4330,128682,3147,2303,124149,332,19190,1360,1,57592,0.0010000000000000009
608999,6247,1682,124710,4060,-5376,128218,240,19219,983,1,57593,0.0010000000000000009
610000,19733,3521,129139,560,5219,125441,311,19219,983,0,57594,0.0010010000000000296
610999,12799,2775,128414,9274,-938,125094,335,19205,1274,1,57595,0.0009989999999999721
611999,5167,-2581,127987,-3335,-9450,132190,335,19189,1372,1,57596,0.0010000000000000009
613000,11839,-15039,127040,-13844,-18926,137106,247,19212,1012,0,57597,0.0010010000000000296
613999,-3926,-5136,124150,28353,-3251,126817,358,19201,1466,0,57598,0.0009989999999999721
615011,1809,8363,126445,-32846,5478,119969,375,19226,1536,1,57599,0.0010120000000000129
615999,11829,5194,130472,-13672,8206,121389,236,19226,1536,1,57600,0.0009879999999999889
616999,5625,3575,132023,33286,-7335,137510,367,19199,967,0,57601,0.0010000000000000009
617999,-2466,-19589,123034,-24999,-18475,129760,367,19198,1503,1,57602,0.0010000000000000009
618999,-14397,2729,128054,-37141,3985,120955,492,19225,2015,1,57603,0.0010000000000000009
619999,8138,18948,131530,22096,17824,123817,264,19204,1081,0,57604,0.0010000000000000009
621001,606,9907,124350,-2558,5189,121608,333,19196,1364,0,57605,0.0010020000000000584
621999,5265,12128,129167,-26596,14003,118868,466,19196,1364,1,57606,0.0009979999999999434
622999,10168,-2649,126630,4294,-10297,132446,332,19217,1909,0,57607,0.0010000000000000009
623999,16791,10925,127564,19114,11448,117231,332,19205,1360,0,57608,0.0010000000000000009
624999,6305,5686,133023,-10212,-3634,132145,325,19207,1331,1,57609,0.0010000000000000009
625999,12416,-4145,128677,-4476,-4713,127931,250,19216,1024,0,57610,0.0010000000000000009
627001,4037,2433,129697,4906,1058,130032,397,19201,1626,0,57611,0.0010019999999999474
628001,9902,4567,130109,-712,1784,128864,363,19201,1626,1,57612,0.0010000000000000009
628999,9229,1510,123831,3442,-4834,124879,248,19200,1487,1,57613,0.0009980000000000544
629999,17141,7056,128777,1563,7127,125429,248,19209,1016,0,57614,0.0010000000000000009
630999,12783,1883,128520,7104,-479,126462,311,19203,1274,1,57615,0.0010000000000000009
631999,4442,-2299,127666,-716,-4966,127567,421,19216,1724,1,57616,0.0010000000000000009
632999,13366,-18265,126211,-11576,-21568,138895,279,19197,1143,0,57617,0.0010000000000000009
633999,-8254,561,125112,23562,-2275,127737,326,19197,1335,0,57618,0.0010000000000000009
634999,9031,-641,123142,-28142,-3936,117784,322,19202,1335,1,57619,0.0010000000000000009
636002,7945,17381,135343,-13626,20484,114696,322,19228,1319,0,57620,0.0010029999999999761
636999,10473,-5716,127928,30953,-12433,142103,272,19195,1114,0,57621,0.0009970000000000256
637999,-7298,-14748,124642,-17473,-14697,121494,339,19183,1388,1,57622,0.0010000000000000009
638999,-8988,-293,129237,-40101,-5611,127559,311,19220,1274,0,57623,0.0010000000000000009
639999,5565,20162,129619,18005,19804,115581,295,19220,1208,0,57624,0.0010000000000000009
640999,2430,16279,127098,-2272,3315,126927,343,19205,1208,1,57625,0.0010000000000000009
641999,4551,7565,129950,-21444,2968,123165,243,19172,1405,1,57626,0.0010000000000000009
642999,11755,-6845,123559,5157,-4988,127740,243,19218,995,0,57627,0.0010000000000000009
644000,16374,15913,130899,14288,14093,120214,339,19206,1388,1,57628,0.0010010000000000296
644999,4621,4544,130969,-5368,-7661,131550,360,19222,1474,1,57629,0.0009989999999999721
645999,17839,-4344,128302,10896,1984,127103,275,19222,1126,0,57630,0.0010000000000000009
646999,-5350,4965,130751,-13160,-2997,136334,341,19197,1126,0,57631,0.0010000000000000009
647999,15991,-1331,126924,3825,1066,122271,381,19200,1397,1,57632,0.0010000000000000009
648999,2781,12574,128121,18133,3770,126547,381,19228,1560,1,57633,0.0010000000000000009
649999,19682,-877,126588,-15855,-8761,129052,246,19202,1008,0,57634,0.0010000000000000009
651001,17927,-2208,126102,14175,316,122931,313,19197,1282,1,57635,0.0010019999999999474
651999,2206,2486,131501,2391,-11040,134205,336,19197,1376,1,57636,0.0009980000000000544
652999,18395,-12043,123718,3237,-10964,129873,338,19223,1376,0,57637,0.0010000000000000009
653999,-12718,5785,128198,-10136,-1901,130294,323,19205,1384,1,57638,0.0010000000000000009
654999,11059,-1492,127594,-17527,1734,121887,323,19200,1323,1,57639,0.0010000000000000009
655999,-1672,6866,130729,5004,80,128699,220,19219,901,0,57640,0.0010000000000000009
656999,11697,-9513,129723,7203,-11123,133789,382,19194,1565,0,57641,0.0010000000000000009
657999,-12889,-12614,124320,-27366,-18606,129819,376,19195,1540,1,57642,0.0010000000000000009
659001,2417,10544,127604,-5814,26376,112878,283,19195,1540,0,57643,0.0010019999999999474
659999,-3029,32393,130397,7841,16423,123866,313,19203,1159,0,57644,0.0009980000000000544
660999,7386,2807,123844,-18670,1280,123606,313,19203,1282,1,57645,0.0010000000000000009
662001,-2292,1970,129642,-6862,-3687,127461,446,19204,1827,1,57646,0.0010019999999999474
662999,15279,-7684,125355,7017,-3898,128558,280,19201,1147,0,57647,0.0009980000000000544
663999,11675,15343,130425,4095,11921,118651,325,19200,1331,1,57648,0.0010000000000000009
664999,12315,3384,130187,-7260,-2687,131513,240,19200,1331,1,57649,0.0010000000000000009
665999,13058,2483,126761,3046,2651,126147,305,19217,983,0,57650,0.0010000000000000009
667000,6788,6563,128904,-3205,2990,130499,305,19190,1249,0,57651,0.0010009999999999186
668001,5992,3151,126419,9686,2667,123853,330,19185,1352,1,57652,0.0010010000000000296
668999,10676,3318,125162,-5666,-6076,128240,210,19224,860,0,57653,0.0009980000000000544
670000,22067,-4390,126037,6263,-3818,130297,311,19202,1274,0,57654,0.0010009999999999186
670999,6382,9019,131145,14684,5735,120269,340,19202,1274,1,57655,0.0009990000000000832
672000,8921,-14478,125535,-19072,-19767,138473,244,19197,1393,1,57656,0.0010009999999999186
672999,8385,-5921,125890,4130,-2808,127028,244,19208,999,0,57657,0.0009990000000000832
673999,-7816,6840,126488,19602,-1814,129853,369,19199,1511,1,57658,0.0010000000000000009
674999,10667,719,122578,-42669,-154,121190,385,19222,1577,1,57659,0.0010000000000000009
675999,7427,13563,137139,1383,10089,120786,237,19203,971,0,57660,0.0010000000000000009
676999,5000,-17258,126479,24678,-23882,146920,375,19203,971,0,57661,0.0010000000000000009
677999,-8044,-4730,124770,-32216,-3693,116386,464,19197,1536,1,57662,0.0010000000000000009
678999,-8585,11470,132134,-27374,5016,127322,464,19222,1900,0,57663,0.0010000000000000009
679999,10752,19036,125356,21743,18536,120390,283,19203,1159,0,57664,0.0010000000000000009
680999,-362,14250,125753,-9711,10062,118208,331,19193,1356,1,57665,0.0010000000000000009
682000,5947,7632,131309,-21282,4051,127065,424,19221,1737,1,57666,0.0010009999999999186
682999,12017,-11432,122672,12809,-14276,127255,356,19221,1458,0,57667,0.0009990000000000832
684000,13169,15478,132747,9512,11239,128533,333,19206,1458,1,57668,0.0010009999999999186
684999,7511,1019,129252,-12391,-3326,125991,255,19207,1364,1,57669,0.0009989999999999721
685999,9265,2642,127243,4143,355,130490,255,19210,1044,0,57670,0.0010000000000000009
687000,6257,3855,129062,-4913,2104,129136,377,19201,1544,0,57671,0.0010010000000000296
687999,11461,3929,125330,4775,707,123383,368,19215,1507,1,57672,0.0009989999999999721
689001,12597,2834,124078,8471,341,128016,224,19215,917,0,57673,0.0010020000000000584
689999,21051,5425,129278,-2197,89,125596,291,19206,917,0,57674,0.0009979999999999434
690999,7762,-3545,127071,8346,-2965,130434,446,19206,1192,1,57675,0.0010000000000000009
691999,1586,-6049,128539,-4554,-16809,135765,446,19224,1827,1,57676,0.0010000000000000009
692999,7695,-15372,123566,14053,-7487,128824,261,19194,1069,0,57677,0.0010000000000000009
693999,-8881,11683,126445,-6099,3282,125405,318,19199,1302,1,57678,0.0010000000000000009
694999,13332,2339,124879,-31103,2961,120383,308,19199,1261,1,57679,0.0010000000000000009
695999,10259,15336,135265,21905,6832,128497,290,19226,1261,0,57680,0.0010000000000000009
696999,2586,-12148,128049,6475,-23921,139642,348,19186,1188,0,57681,0.0010000000000000009
697999,-11292,-8356,124991,-40131,-6115,122414,348,19180,1425,1,57682,0.0010000000000000009
699007,-3284,6399,129458,-7753,9415,126201,267,19226,1094,0,57683,0.0010080000000000089
700001,5722,22828,128213,14638,22349,116863,296,19201,1212,0,57684,0.0009940000000000504
700999,3671,9308,124090,-18008,8865,122796,350,19172,1433,1,57685,0.0009979999999999434
701999,2651,13577,132153,-8094,-909,126186,269,19172,1433,1,57686,0.0010000000000000009
702999,12650,-12119,121926,17449,-4132,126582,337,19205,1102,0,57687,0.0010000000000000009
704001,14584,19028,131646,-482,12437,122276,337,19203,1380,1,57688,0.0010020000000000584
705000,7450,-372,130093,-7182,-5121,132870,339,19219,1388,1,57689,0.0009989999999999721
705999,9212,-2436,126811,4178,747,126742,283,19190,1159,0,57690,0.0009989999999999721
706999,6530,1396,129092,261,-1043,134316,327,19199,1339,0,57691,0.0010000000000000009
707999,10486,3085,126514,6696,-170,123762,343,19199,1339,1,57692,0.0010000000000000009
708999,15176,4255,123655,-1950,3674,124522,256,19224,1405,0,57693,0.0010000000000000009
710000,17673,8767,129566,1240,4031,125949,256,19203,1049,0,57694,0.0010010000000000296
710999,9634,-2066,126433,10354,-6340,129560,315,19194,1290,1,57695,0.0009989999999999721
711999,1194,-11752,126538,-10108,-18956,135699,318,19214,1302,1,57696,0.0010000000000000009
713002,5713,-7195,126404,13506,-4406,128928,371,19206,1520,0,57697,0.0010029999999999761
713999,-3737,3786,123316,-7594,-3489,129468,327,19206,1520,1,57698,0.0009970000000000256
714999,8889,8278,127630,-28270,13130,114152,226,19202,1339,1,57699,0.0010000000000000009
715999,8126,13362,134373,16687,1247,133118,226,19217,926,0,57700,0.0010000000000000009
716999,-12,-20629,123957,7929,-21254,134894,410,19197,1679,0,57701,0.0010000000000000009
717999,-14789,-3576,127995,-38975,-9343,125577,397,19196,1626,1,57702,0.0010000000000000009
718999,5265,6659,128167,-7361,9922,125404,243,19212,995,0,57703,0.0010000000000000009
719999,-294,27827,127917,17138,24655,115726,312,19212,995,0,57704,0.0010000000000000009
720999,4917,6574,125552,-23312,5075,127001,469,19201,1278,1,57705,0.0010000000000000009
721999,2661,8334,128790,-8603,55,122047,469,19204,1921,0,57706,0.0010000000000000009
723000,12375,-3251,124518,21112,-120,127251,292,19202,1196,0,57707,0.0010010000000000296
724000,17053,15648,131853,-3025,8196,122968,324,19202,1327,1,57708,0.0010000000000000009
724999,9073,-3786,129053,-8491,-4088,130833,216,19221,885,1,57709,0.0009989999999999721
725999,9369,1164,129107,13306,2387,128414,326,19221,1335,0,57710,0.0010000000000000009
726999,3430,-1272,127559,-4226,-3521,133008,334,19191,1335,1,57711,0.0010000000000000009
727999,15334,4009,126235,-8538,-521,125964,212,19188,1368,1,57712,0.0010000000000000009
728999,10165,6239,127663,12751,2543,125762,212,19222,868,0,57713,0.0010000000000000009
729999,17849,4839,128977,1274,363,125602,304,19204,1245,0,57714,0.0010000000000000009
730999,3799,-8829,124365,1565,-7918,126740,347,19205,1421,1,57715,0.0010000000000000009
731999,13667,-1374,127835,-3614,-5928,139588,244,19205,999,0,57716,0.0010000000000000009
732999,1810,-9473,121331,18666,-10835,124283,363,19205,999,0,57717,0.0010000000000000009
733999,2718,14730,126842,-18824,9484,119430,405,19206,1487,1,57718,0.0010000000000000009
734999,1330,981,131169,-22209,-1787,135002,405,19227,1659,1,57719,0.0010000000000000009
736002,2219,-7802,129261,19840,-18457,133502,236,19195,967,0,57720,0.0010029999999999761
737000,-5062,-16515,126618,-4455,-11257,130673,325,19199,1331,0,57721,0.0009980000000000544
737999,-7020,-746,125416,-33727,11739,116359,422,19199,1728,1,57722,0.0009989999999999721
738999,8976,31994,127321,3026,28738,117114,279,19222,1728,0,57723,0.0010000000000000009
739999,1484,17407,127110,5376,3197,126195,330,19205,1143,0,57724,0.0010000000000000009
741000,6468,723,124604,-9767,2784,120990,330,19191,1352,1,57725,0.0010010000000000296
741999,237,543,129811,5599,-9352,134881,417,19223,1708,0,57726,0.0009989999999999721
743000,16005,-1062,127173,7251,5139,119895,361,19207,1479,0,57727,0.0010010000000000296
743999,8956,11788,132337,-5157,-11,128987,340,19215,1393,1,57728,0.0009989999999999721
744999,12168,-339,130287,1381,2869,127271,264,19215,1393,1,57729,0.0010000000000000009
745999,5195,6923,128419,3006,3394,126604,374,19209,1081,0,57730,0.0010000000000000009
746999,9370,2015,129280,-3595,-3113,132648,374,19201,1532,1,57731,0.0010000000000000009
747999,7340,3159,127295,3953,-2152,124687,385,19221,1577,1,57732,0.0010000000000000009
748999,19124,-334,126716,5427,-2327,130751,225,19208,922,0,57733,0.0010000000000000009
749999,15121,2808,129092,6773,5745,121923,300,19201,1229,0,57734,0.0010000000000000009
751000,6317,-30,126943,-2101,-8825,131090,423,19201,1229,1,57735,0.0010010000000000296
752001,7280,-16002,124548,-9433,-16581,135918,274,19224,1732,0,57736,0.0010009999999999186
752999,5368,3443,127649,14142,5966,123822,274,19197,1122,0,57737,0.0009980000000000544
753999,-2126,6202,125942,-10161,-7033,131848,320,19203,1311,1,57738,0.0010000000000000009
754999,4464,416,127756,-26230,9773,114444,294,19221,1204,1,57739,0.0010000000000000009
755999,9639,9316,136629,19560,-12703,142439,318,19184,1302,0,57740,0.0010000000000000009
756999,-1270,-24959,124504,6703,-17571,130977,354,19184,1302,1,57741,0.0010000000000000009
758000,-12654,7755,128392,-39990,88,121310,231,19178,1450,1,57742,0.0010010000000000296
758999,3434,8559,128593,-7371,15289,124859,231,19222,946,0,57743,0.0009989999999999721
759999,2296,30408,127970,14718,23793,112341,307,19203,1257,0,57744,0.0010000000000000009
760999,-615,3931,126224,-17432,3320,129856,386,19181,1581,1,57745,0.0010000000000000009
761999,7339,1459,129513,-10423,-7214,124973,272,19204,1114,0,57746,0.0010000000000000009
762999,14462,-2404,125551,19642,2372,125251,320,19204,1114,0,57747,0.0010000000000000009
763999,12029,13055,133191,2620,4077,126502,308,19204,1311,1,57748,0.0010000000000000009
764999,12078,-3701,129019,-8167,229,124896,308,19221,1261,1,57749,0.0010000000000000009
766001,5807,1519,129175,2119,-1384,133259,276,19189,1130,0,57750,0.0010019999999999474
766999,10597,-472,127696,2142,26,129996,334,19203,1368,1,57751,0.0009980000000000544
767999,9365,8770,126724,4427,2049,123590,325,19228,1331,1,57752,0.0010000000000000009
768999,15754,180,127160,1571,-48,128065,261,19228,1331,0,57753,0.0010000000000000009
769999,16602,3362,127603,-60,1841,122061,311,19208,1069,0,57754,0.0010000000000000009
770999,6136,-5959,126707,10052,-7828,133746,311,19188,1274,1,57755,0.0010000000000000009
771999,6106,-10320,126802,-10192,-14093,132583,264,19219,1081,0,57756,0.0010000000000000009
773009,6253,-5996,124186,4430,-7742,131414,383,19209,1569,0,57757,0.0010099999999999554
773999,-6578,11860,128704,5831,7883,122795,332,19205,1360,1,57758,0.0009900000000000464
774999,10164,-260,126512,-36698,262,120890,221,19205,905,1,57759,0.0010000000000000009
776000,7999,9281,135183,13616,4523,129600,399,19218,905,0,57760,0.0010009999999999186
776999,-510,-19549,125365,18839,-21698,138195,411,19197,1634,1,57761,0.0009990000000000832
777999,-17402,-533,125173,-42059,-4614,121207,411,19204,1683,1,57762,0.0010000000000000009
778999,4178,13165,132481,-20295,13125,121813,249,19208,1020,0,57763,0.0010000000000000009
779999,1476,18748,127275,25325,16913,124868,322,19198,1319,0,57764,0.0010000000000000009
780999,2364,6718,125705,-18145,7340,117986,501,19198,2052,1,57765,0.0010000000000000009
781999,9757,8076,131333,-13687,3707,130177,276,19220,2052,0,57766,0.0010000000000000009
782999,18516,-1647,123317,21274,-2746,119388,322,19199,1130,0,57767,0.0010000000000000009
783999,9921,13246,133031,6409,-237,129468,322,19196,1319,1,57768,0.0010000000000000009
784999,10832,-3547,130381,-15429,-5698,129871,217,19216,889,1,57769,0.0010000000000000009
785999,4283,-2506,128847,6400,-1783,132736,348,19201,1425,0,57770,0.0010000000000000009
786999,8173,2365,130103,2131,1200,128489,336,19190,1376,1,57771,0.0010000000000000009
787999,10622,3812,126144,5759,-3749,125650,219,19190,1376,1,57772,0.0010000000000000009
788999,16950,3876,127127,3176,8409,121790,309,19223,897,0,57773,0.0010000000000000009
790000,17219,5031,129077,5063,-6175,128632,309,19204,1266,0,57774,0.0010009999999999186
790999,4332,-4311,126503,-1575,-7848,129769,362,19201,1483,1,57775,0.0009990000000000832
791999,12050,-14578,126045,-6853,-16449,135514,252,19201,1032,0,57776,0.0010000000000000009
793000,-7401,621,125746,11550,1910,127982,346,19204,1417,0,57777,0.0010009999999999186
793999,3741,297,124492,-24410,-2452,122750,384,19204,1417,1,57778,0.0009990000000000832
794999,6062,7844,131933,-10810,13992,120092,242,19229,1573,1,57779,0.0010000000000000009
795999,12543,-1392,130149,26915,-18276,139763,242,19183,991,0,57780,0.0010000000000000009
796999,-2320,-14388,124002,-20736,-5705,122189,328,19192,1343,1,57781,0.0010000000000000009
797999,-12037,-610,127382,-34966,-4104,127626,385,19221,1577,1,57782,0.0010000000000000009
798999,5005,17066,130603,18403,24228,118070,296,19206,1212,0,57783,0.0010000000000000009
799999,-915,17001,127430,-8645,2431,126353,335,19206,1212,0,57784,0.0010000000000000009
800999,2316,7223,128489,-20788,9380,119856,379,19186,1372,1,57785,0.0010000000000000009
801999,10042,-1659,126198,6158,-9276,129384,379,19215,1552,0,57786,0.0010000000000000009
802999,16943,9157,127852,17234,12894,118805,338,19208,1384,0,57787,0.0010000000000000009
803999,10415,9839,131932,-8670,-1238,128903,345,19214,1413,1,57788,0.0009999999999998899
804999,11565,-1908,130305,-3359,-1655,127481,257,19204,1053,0,57789,0.0010000000000000009
805999,3453,359,129428,768,-3415,134479,378,19204,1053,0,57790,0.0010000000000000009
806999,8195,439,129661,2168,-440,127811,402,19197,1548,1,57791,0.0010000000000000009
807999,7202,1670,125477,375,-4326,125892,402,19226,1646,1,57792,0.0010000000000000009
809000,18654,5153,128357,4084,4595,125334,233,19208,954,0,57793,0.0010010000000000296
809999,14868,3656,128471,8657,1124,124701,310,19199,1270,1,57794,0.0009989999999999721
810999,5226,-1887,127585,-4930,-7842,130786,437,19223,1790,1,57795,0.0010000000000000009
811999,12081,-18846,123578,-5066,-14615,133298,283,19223,1790,0,57796,0.0010000000000000009
813000,-6626,8467,126503,12971,1232,129022,320,19197,1159,0,57797,0.0010010000000000296
813999,7547,-7993,122220,-25063,-9381,126264,320,19195,1311,1,57798,0.0009989999999999721
814999,6108,18472,136872,-7897,20657,114868,263,19218,1077,1,57799,0.0010000000000000009
815999,9229,-13951,127093,23056,-24876,146313,344,19188,1409,0,57800,0.0010000000000000009
816999,-6419,-7770,125768,-21390,-3712,118964,357,19176,1462,1,57801,0.0010000000000000009
817999,-5580,-1757,128145,-31961,-7631,132235,231,19176,946,1,57802,0.0010000000000000009
818999,3369,23724,128848,18757,27208,114654,315,19219,946,0,57803,0.0010000000000000009
819999,4359,16353,127322,-12117,8887,122134,370,19202,1290,0,57804,0.0010000000000000009
820999,3804,4337,130016,-14941,2621,125908,370,19178,1515,1,57805,0.0010000000000000009
821999,9730,-7765,124282,8996,-10093,128133,271,19206,1110,0,57806,0.0010000000000000009
823001,12797,14803,131671,8694,12216,120966,305,19203,1249,1,57807,0.0010020000000000584
823999,9203,5685,130124,-9062,-853,128575,313,19203,1282,1,57808,0.0009979999999999434
824999,11950,4730,130403,3368,4093,123649,271,19221,1282,0,57809,0.0010000000000000009
825999,3137,-1517,128700,-2131,-4710,133171,331,19193,1110,0,57810,0.0010000000000000009
826999,11474,909,128303,2047,-740,125052,331,19199,1356,1,57811,0.0010000000000000009
827999,10133,1470,125920,3878,-4426,128353,345,19217,1413,1,57812,0.0010000000000000009
828999,17902,5981,128317,2498,4478,123233,307,19206,1257,0,57813,0.0010000000000000009
829999,12048,2940,128023,5544,1590,128253,325,19206,1331,1,57814,0.0010000000000000009
830999,4423,-6522,127096,-1180,-17467,134233,264,19190,1331,1,57815,0.0010000000000000009
831999,11416,-15401,123840,-6898,-3968,127996,369,19222,1081,0,57816,0.0010000000000000009
832999,-4944,6234,125988,15904,-3457,131743,369,19202,1511,0,57817,0.0010000000000000009
833999,9598,-2954,123118,-21862,6698,115369,342,19208,1401,1,57818,0.0010000000000000009
834999,7782,20224,137202,-11543,5772,129048,231,19211,946,0,57819,0.0010000000000000009
835999,7577,-17289,126070,10469,-22961,139146,378,19199,1548,0,57820,0.0010000000000000009
836999,-9164,-6246,126974,-30134,-9025,123782,416,19199,1548,1,57821,0.0010000000000000009
837999,-4716,-4498,127386,-14274,6211,126884,246,19208,1704,0,57822,0.0010000000000000009
838999,3181,30820,129542,14289,29141,110873,246,19210,1008,0,57823,0.0010000000000000009
839999,4002,13912,126516,-17805,5202,128108,323,19196,1323,1,57824,0.0010000000000000009
841000,4999,5264,129981,-9024,-2571,124388,527,19220,2158,1,57825,0.0010010000000000296
842001,10709,-9306,123874,14432,-7443,129357,289,19202,1184,0,57826,0.0010010000000000296
842999,15998,14966,131443,3140,13657,121055,320,19202,1184,1,57827,0.0009979999999999434
843999,5432,3433,129169,-9256,-2615,128614,219,19194,1311,1,57828,0.0010000000000000009
844999,16808,5017,129814,6118,2986,126508,219,19219,897,0,57829,0.0010000000000000009
845999,1133,-1864,127171,-5059,-6977,136414,359,19207,1470,0,57830,0.0010000000000000009
846999,7597,4011,128189,2702,4641,121566,343,19199,1405,1,57831,0.0010000000000000009
847999,11996,2977,126028,-12,-1620,130678,225,19218,922,0,57832,0.0010000000000000009
849002,18247,7490,128294,11299,4249,123438,304,19218,922,0,57833,0.0010029999999999761
849999,7155,-6185,124419,2853,-10849,127889,367,19198,1245,1,57834,0.0009970000000000256
850999,10486,-5485,127559,-11289,-8650,130622,367,19195,1503,1,57835,0.0010000000000000009
851999,7996,-8020,124861,19774,-9056,134211,256,19199,1049,0,57836,0.0010000000000000009
853000,-1311,9992,125671,-12378,6283,121001,330,19204,1352,1,57837,0.0010010000000000296
854000,5632,6488,127919,-29110,3702,122318,352,19225,1442,1,57838,0.0010000000000000009
854999,3131,315,132527,18773,-10379,136289,250,19225,1442,0,57839,0.0009989999999999721
855999,4533,-25045,125387,-2441,-24899,137414,336,19190,1024,0,57840,0.0010000000000000009
856999,-8547,-1920,128333,-32274,-574,120573,336,19199,1376,1,57841,0.0010000000000000009
857999,1432,20606,128795,1160,22232,118345,389,19224,1593,0,57842,0.0010000000000000009
858999,3886,27582,127646,7953,17164,118495,305,19205,1249,0,57843,0.0010000000000000009
859999,382,4308,125902,-22659,-1291,127048,339,19182,1388,1,57844,0.0010000000000000009
860999,300,1488,129796,-3197,1583,124086,380,19182,1388,1,57845,0.0010000000000000009
862000,12370,-4308,126386,8312,-7430,130569,346,19220,1556,0,57846,0.0010010000000000296
862999,11246,13924,132505,-2179,10434,120607,346,19205,1417,1,57847,0.0009989999999999721
864001,13121,-1744,127446,-3878,-4282,131213,345,19220,1413,1,57848,0.0010019999999999474
865001,12306,7957,127529,6764,5918,126094,267,19204,1094,0,57849,0.0010000000000000009
865999,7085,3920,128027,-8133,1409,127494,395,19202,1618,0,57850,0.0009980000000000544
866999,9064,3772,126688,5116,1098,125930,415,19202,1700,1,57851,0.0010000000000000009
867999,12727,-546,124673,7920,-7300,131979,231,19225,1700,0,57852,0.0010000000000000009
868999,18114,2703,127592,2537,1252,124386,309,19206,946,0,57853,0.0010000000000000009
869999,9083,2688,129415,30,-1354,125436,309,19198,1266,1,57854,0.0010000000000000009
871001,1159,-10861,126722,224,-13087,134015,393,19222,1610,1,57855,0.0010019999999999474
872001,13146,-9142,125207,-9669,-12932,134036,287,19191,1175,0,57856,0.0010000000000000009
872999,-11012,4356,126024,22973,1315,125291,324,19191,1327,1,57857,0.0009980000000000544
873999,8642,10244,124480,-30430,5987,120220,240,19190,1327,1,57858,0.0010000000000000009
874999,11338,4277,132409,-15899,3680,132433,341,19224,983,0,57859,0.0010000000000000009
875999,4061,-6985,129955,29946,-12206,138172,341,19193,1397,0,57860,0.0010000000000000009
876999,-5165,-13167,122832,-15932,-14953,122353,359,19175,1470,1,57861,0.0010000000000000009
877999,-12421,9799,129615,-42284,14745,121057,259,19211,1061,0,57862,0.0010000000000000009
878999,12870,23700,129280,17500,19588,120355,311,19211,1274,0,57863,0.0010000000000000009
879999,-637,8891,123049,4169,5624,124267,381,19196,1274,1,57864,0.0010000000000000009
881000,5105,12842,131315,-25476,1230,123655,264,19195,1560,1,57865,0.0010010000000000296
881999,12323,-10859,124012,1333,-4985,127866,264,19201,1081,0,57866,0.0009989999999999721
882999,15268,17056,130274,6831,10261,122380,307,19205,1257,1,57867,0.0010000000000000009
884013,4932,3356,131416,-13750,-4470,133060,288,19217,1180,1,57868,0.0010139999999999594
885000,9023,-6266,126129,4176,-1691,128605,284,19188,1163,0,57869,0.0009870000000000712
885999,6930,5387,129397,1151,4296,130105,331,19188,1163,0,57870,0.0009989999999999721
886999,12515,7362,127561,8450,1978,123935,315,19193,1356,1,57871,0.0010000000000000009
887999,11007,2595,122758,-960,-305,124696,315,19225,1290,0,57872,0.0010000000000000009
889002,21455,5218,129478,-3409,291,128371,292,19204,1196,0,57873,0.0010029999999999761
890001,6962,-5693,127259,15745,-3506,129985,327,19187,1339,1,57874,0.0009989999999999721
891001,1448,-4862,127885,-13495,-14155,134110,264,19219,1081,1,57875,0.0010000000000000009
891999,7388,-14689,124744,7599,-8924,130959,367,19219,1081,0,57876,0.0009980000000000544
892999,-7832,10772,125584,1674,2937,125497,338,19206,1503,1,57877,0.0010000000000000009
893999,14019,1027,124526,-33289,1785,120845,338,19201,1384,1,57878,0.0010000000000000009
894999,8534,15373,135015,16956,8910,126314,235,19214,962,0,57879,0.0010000000000000009
895999,4265,-13120,127270,12089,-23468,140121,397,19196,1626,0,57880,0.0010000000000000009
896999,-12373,-6264,125566,-41107,-4533,122087,437,19205,1790,1,57881,0.0010000000000000009
898000,-3035,7925,129912,-9320,6712,126673,269,19205,1790,0,57882,0.0010009999999999186
898999,4452,21517,127630,17917,21224,117660,330,19209,1102,0,57883,0.0009990000000000832
899999,4027,7597,124268,-18539,4262,124468,330,19196,1352,1,57884,0.0010000000000000009
900999,2128,14700,131980,-8093,5783,121843,520,19225,2130,1,57885,0.0010000000000000009
901999,13582,-11527,121617,19303,-7592,128272,295,19201,1208,0,57886,0.0010000000000000009
902999,14831,21190,132767,-4417,15298,120717,327,19193,1339,1,57887,0.0010000000000000009
903999,8573,-535,130011,-5950,-5697,134090,217,19193,1339,1,57888,0.0010000000000000009
904999,8174,-3909,125970,7929,-1074,127597,354,19216,889,0,57889,0.0010000000000000009
905999,7012,3681,129047,-6013,-139,132088,354,19198,1450,0,57890,0.0010000000000000009
906999,9699,2353,125949,7098,957,124384,337,19201,1380,1,57891,0.0010000000000000009
907999,17226,5376,124546,4759,1608,125410,229,19220,938,0,57892,0.0010000000000000009
908999,16903,4429,128742,-2292,2631,126775,313,19198,1282,0,57893,0.0010000000000000009
909999,10181,-885,126707,6694,-4577,129190,372,19198,1524,1,57894,0.0010000000000000009
911001,685,-11839,125850,-5078,-17136,133430,248,19206,1524,1,57895,0.0010019999999999474
912001,5108,-464,127501,10125,-738,127474,323,19202,1016,0,57896,0.0010000000000000009
912999,-2108,-4241,121848,-6036,-12429,135331,323,19206,1323,1,57897,0.0009980000000000544
913999,6919,10101,129213,-25852,15293,110587,360,19224,1474,1,57898,0.0010000000000000009
915000,8261,8818,132675,11887,-1670,135332,261,19185,1069,0,57899,0.0010009999999999186
915999,-1962,-16713,124381,8482,-15519,131451,341,19185,1397,0,57900,0.0009990000000000832
916999,-12633,-3023,128534,-36526,-11257,128251,391,19196,1397,1,57901,0.0010000000000000009
917999,4761,7049,126734,-8629,8686,125039,302,19227,1601,0,57902,0.0010000000000000009
918999,-68,30067,128097,18972,26639,113208,302,19205,1237,0,57903,0.0010000000000000009
919999,6713,4347,125790,-21887,2812,129280,335,19181,1372,1,57904,0.0010000000000000009
920999,1007,5728,127922,-11399,830,129182,393,19218,1610,0,57905,0.0010000000000000009
922018,12862,-3021,126257,18061,-3067,123765,332,19201,1360,0,57906,0.0010189999999999921
922999,15727,14429,131562,-2001,9150,127011,346,19201,1360,1,57907,0.0009809999999998986
923999,8724,-868,129196,-7430,-1829,127198,254,19217,1417,1,57908,0.0010000000000000009
924999,8001,1804,128755,8325,980,130588,254,19207,1040,0,57909,0.0010000000000000009
925999,9568,-2796,126721,-2972,-1386,127634,363,19204,1487,1,57910,0.0010000000000000009
926999,10692,4750,126483,5296,-226,127465,422,19226,1728,1,57911,0.0010000000000000009
927999,13955,5284,128220,-2776,763,127483,240,19204,983,0,57912,0.0010000000000000009
928999,16902,6034,128722,4695,2967,125152,310,19204,983,0,57913,0.0010000000000000009
929999,416,-5351,125678,1192,-11039,129484,391,19199,1270,1,57914,0.0010000000000000009
930999,12127,-14343,123993,-16781,-12207,132414,391,19223,1601,1,57915,0.0010000000000000009
931999,-293,-499,125514,25567,-198,131744,287,19196,1175,0,57916,0.0010000000000000009
932999,8522,2024,122723,-24467,2723,117770,325,19195,1331,1,57917,0.0010000000000000009
933999,1669,16451,132717,-18444,11662,123561,212,19222,868,1,57918,0.0010000000000000009
935002,7557,-7590,130735,31432,-22508,142752,357,19222,868,0,57919,0.0010030000000000872
935999,-7509,-18179,125799,-21291,-15048,128930,352,19195,1462,0,57920,0.0009969999999999146
936999,-7961,-10352,125695,-38271,-309,124767,352,19181,1442,1,57921,0.0010000000000000009
937999,9567,33003,129499,19385,33364,112314,233,19217,954,0,57922,0.0010000000000000009
938999,2439,20543,125445,-7429,9868,123415,306,19198,1253,0,57923,0.0010000000000000009
939999,5489,6934,126989,-16413,3644,122722,389,19188,1593,1,57924,0.0010000000000000009
940999,2207,-3151,127810,6701,-12201,133199,272,19188,1593,0,57925,0.0010000000000000009
941999,13783,733,127561,14260,4809,123373,306,19200,1114,0,57926,0.0010000000000000009
943000,9170,12009,132855,-9657,1639,127045,306,19204,1253,1,57927,0.0010010000000000296
943999,10245,742,130906,-169,2964,126472,296,19214,1212,1,57928,0.0009989999999999721
944999,5266,2176,126729,4061,-368,131428,292,19192,1196,0,57929,0.0010000000000000009
945999,9228,3173,128921,-1112,1753,126168,341,19189,1397,1,57930,0.0010000000000000009
946999,7850,2854,125802,1699,-2743,126734,320,19189,1397,1,57931,0.0010000000000000009
947999,20999,3639,127023,2950,2229,126652,303,19228,1311,0,57932,0.0010000000000000009
948999,14826,2822,128304,8078,3190,125233,303,19202,1241,0,57933,0.0010000000000000009
949999,6794,-1533,127288,322,-7381,130968,320,19179,1311,1,57934,0.0010000000000000009
950999,1857,-15359,125672,-12125,-17012,134913,247,19216,1012,0,57935,0.0010000000000000009
951999,7771,-5510,124779,15857,-4844,129747,389,19204,1593,0,57936,0.0010000000000000009
952999,-6031,11614,126387,-9649,6728,121928,351,19204,1593,1,57937,0.0010000000000000009
954000,11795,1733,126914,-29788,1310,121986,231,19204,1438,1,57938,0.0010010000000000296
954999,7508,8390,134778,23212,2469,132678,231,19211,946,0,57939,0.0009989999999999721
955999,-1143,-19808,125765,5044,-23505,136369,391,19200,1601,1,57940,0.0010000000000000009
956999,-13645,606,126058,-39119,644,121128,443,19218,1814,1,57941,0.0010000000000000009
957999,4519,12223,130918,-10581,10339,125264,247,19212,1012,0,57942,0.0010000000000000009
958999,3114,18281,125978,18526,19037,118938,321,19212,1315,0,57943,0.0010000000000000009
960001,2463,12172,126515,-19985,11698,121170,517,19195,1315,1,57944,0.0010020000000000584
960999,6365,6898,129892,-8596,-1788,125447,303,19218,2117,0,57945,0.0009979999999999434
961999,15854,-2557,124179,18597,-853,125639,303,19199,1241,0,57946,0.0010000000000000009
962999,10900,11410,133923,1569,4256,125760,324,19199,1327,1,57947,0.0010000000000000009
963999,10713,-4803,130132,-7642,-3753,131964,252,19209,1032,1,57948,0.0010000000000000009
965000,5658,-1715,128680,5953,-964,128829,392,19209,1606,0,57949,0.0010010000000000296
965999,8053,5391,129728,-3590,3272,130743,345,19209,1606,1,57950,0.0009989999999999721
966999,10940,2832,124726,7444,-1960,125938,224,19200,1413,1,57951,0.0010000000000000009
968000,14485,5460,127432,1328,4324,122821,224,19217,917,0,57952,0.0010010000000000296
968999,17275,462,127432,-4457,-610,127857,319,19203,1307,0,57953,0.0009989999999999721
969999,4674,-501,127733,12387,-1483,130222,387,19217,1585,1,57954,0.0010000000000000009
970999,8719,-14219,125917,-9397,-18482,136191,250,19217,1024,0,57955,0.0010000000000000009
971999,976,-3009,125612,9524,-5309,126601,317,19197,1024,0,57956,0.0010000000000000009
972999,188,1030,124617,-1865,-2893,124395,351,19202,1298,1,57957,0.0010000000000000009
973999,6931,6363,129568,-30648,15276,116744,351,19226,1438,1,57958,0.0010000000000000009
974999,9732,7272,132647,16347,-15641,141830,254,19191,1040,0,57959,0.0010000000000000009
975999,-3774,-18703,125207,12493,-10006,124082,339,19194,1388,1,57960,0.0010000000000000009
976999,-13850,-1523,126541,-43856,-5992,128507,382,19222,1565,1,57961,0.0010000000000000009
978000,4689,12122,130689,21521,25333,118723,299,19222,1565,0,57962,0.0010010000000000296
978999,2249,22185,127477,-5992,4671,123917,333,19204,1225,0,57963,0.0009989999999999721
979999,2461,5487,126180,-21177,11648,118453,333,19177,1364,1,57964,0.0010000000000000009
980999,9387,5147,129129,4580,-8869,129759,319,19218,1307,0,57965,0.0010000000000000009
981999,15382,1461,126062,16105,10985,120441,339,19209,1388,0,57966,0.0010000000000000009
982999,9374,13049,133563,-8597,-1961,130312,360,19224,1474,1,57967,0.0010000000000000009
983999,8913,-6918,129949,-4776,-5177,128934,265,19224,1474,1,57968,0.0010000000000000009
984999,5212,1652,129591,-309,-582,131931,372,19199,1085,0,57969,0.0010000000000000009
985999,9758,2033,129460,5741,532,127852,372,19203,1524,1,57970,0.0010000000000000009
986999,9499,3387,124975,766,-3666,124679,426,19228,1745,1,57971,0.0010000000000000009
987999,19863,3670,127810,3724,5033,124995,236,19208,967,0,57972,0.0010000000000000009
988999,14455,4489,128609,7734,-234,125968,314,19198,1286,0,57973,0.0010000000000000009
989999,5263,-1331,126603,-1888,-10268,130677,355,19198,1286,1,57974,0.0010000000000000009
990999,10574,-18267,124027,-7793,-13001,131700,303,19221,1454,0,57975,0.0010000000000000009
991999,-5836,5510,126632,10577,-683,130962,303,19193,1241,0,57976,0.0010000000000000009
992999,7270,-8112,122989,-18705,-6905,125099,321,19188,1315,1,57977,0.0010000000000000009
993999,4588,16771,135047,-10456,20232,115699,226,19218,926,1,57978,0.0010000000000000009
994999,11090,-7875,128656,20379,-23807,144860,387,19199,1585,0,57979,0.0010000000000000009
996001,-5356,-10951,125475,-16875,-2267,119018,367,19199,1585,1,57980,0.0010019999999999474
996999,-7813,-3052,127847,-31570,-11433,133793,244,19197,1503,1,57981,0.0009980000000000544
997999,4736,18056,129219,16808,26625,114163,244,19217,999,0,57982,0.0010000000000000009
998999,1768,22124,128644,-10903,9610,122322,300,19205,1229,0,57983,0.0010000000000000009
999999,2940,6004,129160,-16038,4395,124662,401,19193,1642,1,57984,0.0010000000000000009
1000999,7772,-5717,125121,5419,-8189,128117,282,19203,1155,0,57985,0.0010000000000000009
1001999,15364,10952,130368,10112,10176,122973,316,19203,1294,0,57986,0.0009999999999998899
1002999,7015,6606,130780,-3852,-738,127437,283,19200,1294,1,57987,0.001000000000000112
1003999,14144,2001,130623,-1838,2837,124040,293,19218,1159,0,57988,0.0009999999999998899
1004999,2252,148,129350,-2670,-3674,136117,293,19195,1200,0,57989,0.001000000000000112
1005999,13344,-6,127925,4217,-1404,126991,336,19197,1376,1,57990,0.0009999999999998899
1006999,6473,3141,126611,4394,-3438,126926,272,19224,1114,1,57991,0.001000000000000112
1007999,19877,3517,128184,-1021,3421,126278,296,19224,1212,0,57992,0.0009999999999998899
1008999,13857,3497,128012,8767,1695,124225,324,19205,1212,1,57993,0.001000000000000112
1009999,2916,-2243,128936,1017,-6799,131622,238,19185,1327,1,57994,0.0009999999999998899
1010999,14014,-24144,121753,-11611,-22703,134584,238,19214,975,0,57995,0.001000000000000112
1011999,-6056,12270,127676,16044,7360,126835,369,19202,1511,0,57996,0.0009999999999998899
1012999,6944,-8502,121478,-17824,-11422,130209,354,19219,1450,1,57997,0.001000000000000112
1013999,6238,22805,135947,-19441,26945,107624,231,19219,946,0,57998,0.0009999999999998899
1014999,10998,-13762,127940,24657,-22959,149907,407,19206,946,0,57999,0.001000000000000112
1015999,-6688,-12438,125190,-6235,-10315,118540,471,19199,1667,1,58000,0.0009999999999998899
1016999,-6848,-4627,127522,-41148,-10881,130993,471,19223,1929,1,58001,0.001000000000000112
1017999,3128,26765,131459,11284,28581,109295,259,19207,1061,0,58002,0.0009999999999998899
1019000,4380,18486,126664,-1236,14122,129684,333,19199,1364,0,58003,0.0010010000000000296
1019999,1004,6483,130420,-17637,-1008,124350,474,19223,1941,1,58004,0.0009989999999999721
1020999,11663,-9150,124313,-288,-4282,126384,307,19223,1941,0,58005,0.001000000000000112
1021999,13214,13537,130960,16503,11559,122894,327,19204,1257,1,58006,0.0009999999999998899
1022999,8122,4703,130333,-4560,-3979,128003,327,19199,1339,1,58007,0.001000000000000112
1023999,15726,2372,129976,-6189,2603,128432,237,19211,971,0,58008,0.0009999999999998899
1025000,262,143,128995,-4578,-6742,137085,386,19196,1581,0,58009,0.0010010000000000296
1026000,12809,1248,127500,8408,5706,117548,349,19202,1429,1,58010,0.001000000000000112
1026999,5220,6664,127159,-5533,-1723,132806,227,19202,1429,1,58011,0.0009989999999999721
1027999,23872,1279,127710,6131,4427,122348,309,19216,930,0,58012,0.0009999999999998899
1028999,8295,4969,129566,13260,-6492,131444,309,19202,1266,1,58013,0.001000000000000112
1029999,3141,-16202,125674,-18448,-19922,131324,404,19210,1655,1,58014,0.0009999999999998899
1030999,13038,-4822,125817,10756,824,126221,261,19187,1069,0,58015,0.001000000000000112
1032000,-3825,3504,125718,7067,-9669,138822,311,19200,1274,0,58016,0.0010010000000000296
1032999,9261,7330,124762,-31335,20832,102941,334,19200,1274,1,58017,0.0009989999999999721
1033999,2528,16684,136259,-673,-8686,141200,282,19216,1368,0,58018,0.0009999999999998899
1034999,7330,-25055,125447,23450,-20294,133577,282,19185,1155,0,58019,0.001000000000000112
1035999,-13393,-10074,125727,-34431,-20306,129900,351,19194,1438,1,58020,0.0009999999999998899
1036999,-2095,-723,128729,-18005,20375,119625,391,19224,1601,0,58021,0.001000000000000112
1037999,1553,38655,129275,19229,27591,112019,309,19199,1266,0,58022,0.0009999999999998899
1038999,4963,9115,125927,-17511,3723,130161,337,19199,1266,1,58023,0.001000000000000112
1039999,1999,2265,128274,-16153,-3285,121031,320,19176,1380,1,58024,0.0009999999999998899
1040999,12368,-6422,125355,14714,-4425,130648,320,19216,1311,0,58025,0.001000000000000112
1041999,13623,12638,131345,4511,8473,122726,368,19201,1507,1,58026,0.0009999999999998899
1042999,11830,615,128976,-10294,-2933,126673,384,19224,1573,1,58027,0.001000000000000112
1044000,10483,7012,130505,1406,1924,131560,262,19204,1073,0,58028,0.0010010000000000296
1044999,7480,-378,127446,-150,464,127417,348,19204,1425,0,58029,0.0009989999999999721
1045999,5541,5181,127250,5213,2313,126110,384,19206,1425,1,58030,0.0009999999999998899
1046999,14864,2770,125983,-2136,-4572,130520,239,19229,1573,0,58031,0.001000000000000112
1048000,18776,2833,126469,8631,3142,122028,239,19205,979,0,58032,0.0010010000000000296
1049001,8191,6519,131452,9855,-376,127484,315,19198,1290,1,58033,0.0010009999999998076
1050027,7902,-15971,125040,-15975,-19689,135226,360,19219,1474,1,58034,0.0010260000000001934
1051004,5840,-6322,127213,-303,-6678,131526,310,19219,1270,0,58035,0.0009770000000000056
1052001,-4467,1775,125621,21520,-202,127616,325,19203,1270,1,58036,0.0009969999999999146
1052999,4370,10544,123166,-39231,5043,118462,218,19196,1331,1,58037,0.0009980000000000544
1053999,13657,4872,133820,-4808,5698,123721,218,19220,893,0,58038,0.0009999999999998899
1054999,4998,-7528,129037,28561,-16227,141329,394,19199,1614,0,58039,0.001000000000000112
1056002,-2759,-15718,123120,-24767,-12398,123101,365,19187,1495,1,58040,0.0010029999999998651
1056999,-13768,11431,132035,-35878,5691,124126,243,19187,995,0,58041,0.0009970000000001367
1057999,12455,16074,127159,22808,15681,122867,303,19213,995,0,58042,0.0009999999999998899
1058999,-5126,16742,125167,-4359,11448,118127,414,19203,1241,1,58043,0.001000000000000112
1059999,7074,8690,129990,-29442,7376,123978,414,19199,1696,1,58044,0.0009999999999998899
1061000,12153,-4309,124618,12076,-8562,127098,272,19195,1114,0,58045,0.0010010000000000296
1061999,15601,10944,130125,15604,7899,123483,315,19202,1290,1,58046,0.0009989999999999721
1062999,6874,3180,131151,-13466,-1477,129593,283,19218,1159,1,58047,0.001000000000000112
1064001,11551,154,127501,2162,-3095,130212,291,19218,1159,0,58048,0.0010019999999999474
1065001,3553,2913,129282,-1493,2212,129096,338,19194,1192,0,58049,0.0009999999999998899
1065999,11486,3782,127210,-1538,-1145,126367,338,19191,1384,1,58050,0.0009980000000000544
1066999,11069,2629,123801,11624,-3119,124458,258,19222,1057,0,58051,0.001000000000000112
1067999,19903,8662,129114,-1545,77,126608,332,19206,1360,0,58052,0.0009999999999998899
1069000,8885,-2061,127488,3608,-2435,128216,327,19184,1339,1,58053,0.0010010000000000296
1069999,3093,-3538,128621,1436,-14507,135102,252,19184,1339,1,58054,0.0009989999999999721
1070999,9859,-17965,124539,-10560,-13623,133899,384,19212,1032,0,58055,0.001000000000000112
1071999,-11267,7709,125860,-4727,5451,122847,384,19202,1573,1,58056,0.0009999999999998899
1072999,15276,2803,124359,-32039,2794,120576,367,19214,1503,1,58057,0.001000000000000112
1074004,8982,13676,133899,19743,10532,126399,236,19205,967,0,58058,0.0010049999999999226
1075001,7826,-8648,128945,9602,-23454,139627,377,19198,1544,0,58059,0.0009969999999999146
1076001,-11190,-11495,124335,-41077,-6853,122667,472,19198,1544,1,58060,0.001000000000000112
1076999,-5719,6870,130439,-5604,7766,125579,251,19224,1933,0,58061,0.0009980000000000544
1077999,6366,21674,128228,16691,20732,117906,251,19208,1028,0,58062,0.0009999999999998899
1078999,2277,9258,124449,-21639,4100,125482,327,19192,1339,1,58063,0.001000000000000112
1079999,3884,12296,131478,-5554,6564,122545,483,19226,1978,1,58064,0.0009999999999998899
1080999,13053,-8612,122316,18985,-7274,127790,318,19201,1302,0,58065,0.001000000000000112
1081999,15225,21248,131191,-6495,16718,118622,324,19201,1302,1,58066,0.0009999999999998899
1082999,7493,1096,130663,-4445,-7217,135137,262,19203,1327,1,58067,0.001000000000000112
1083999,8042,-6525,126270,7417,-3107,129153,262,19210,1073,0,58068,0.0009999999999998899
1085000,5825,4509,130395,-8654,-651,132511,405,19206,1659,0,58069,0.0010010000000000296
1086001,8821,1748,127105,10520,1676,124659,355,19203,1454,1,58070,0.0010010000000000296
1086999,14146,6310,123897,4496,2060,124703,246,19213,1008,0,58071,0.0009980000000000544
1087999,18778,4308,128373,-5350,2496,127201,317,19213,1008,0,58072,0.0009999999999998899
1088999,10307,2048,128470,9069,-2843,127272,406,19204,1298,1,58073,0.001000000000000112
1089999,2915,-12441,125845,-3224,-19316,135736,406,19217,1663,1,58074,0.0009999999999998899
1090999,5569,-5309,127564,8897,-2142,128229,256,19194,1049,0,58075,0.001000000000000112
1091999,-4777,883,123550,-7073,-9869,133336,309,19209,1266,1,58076,0.0009999999999998899
1092999,9592,4352,125391,-25106,14418,112249,325,19229,1331,1,58077,0.001000000000000112
1093999,6987,17800,134912,13961,1021,132762,265,19229,1085,0,58078,0.0009999999999998899
1094999,3512,-19230,124220,7426,-18643,133661,337,19189,1085,0,58079,0.001000000000000112
1096005,-12584,-2553,127970,-34169,-10012,126654,337,19190,1380,1,58080,0.0010059999999998404
1097001,795,2373,126859,-6128,9236,125631,337,19221,1380,0,58081,0.0009959999999999969
1097999,1172,28376,126803,13140,24936,114263,297,19204,1216,0,58082,0.0009980000000000544
1098999,4870,6274,126368,-24279,3111,128231,337,19174,1380,1,58083,0.001000000000000112
1099999,1242,6117,128452,-6451,106,122645,246,19174,1008,1,58084,0.0009999999999998899
1100999,14950,-5534,124437,18834,-2885,127290,343,19216,1008,0,58085,0.001000000000000112
1102000,14769,18929,131745,-3523,10025,122448,372,19205,1405,1,58086,0.0010009999999998076
1102999,7688,-1892,128517,-7270,-3527,128283,372,19223,1524,1,58087,0.0009989999999999721
1103999,10874,1104,128438,8935,2032,129176,281,19194,1151,0,58088,0.001000000000000112
1104999,4235,776,127303,-5215,-4642,134964,354,19202,1450,0,58089,0.0009999999999998899
1105999,9168,5634,126587,4084,5989,119276,393,19202,1610,1,58090,0.001000000000000112
1106999,11704,6714,127306,-2119,-47,130297,244,19225,1610,0,58091,0.0009999999999998899
1107999,22391,1688,127332,5807,1644,124533,317,19201,999,0,58092,0.001000000000000112
1108999,3665,-3019,126084,13642,-6682,129076,317,19195,1298,1,58093,0.0009999999999998899
1109999,11072,-16244,124555,-17713,-20042,134153,354,19219,1450,1,58094,0.001000000000000112
1110999,1226,-1505,124058,19257,-3108,129566,324,19197,1327,0,58095,0.0009999999999998899
1111999,2648,4545,122507,-4506,-2506,118034,319,19197,1307,1,58096,0.001000000000000112
1112999,3879,16063,130411,-32174,15560,123662,215,19197,1307,1,58097,0.0009999999999998899
1114001,6308,-3526,130098,13281,-9658,142610,385,19222,881,0,58098,0.0010020000000001694
1115001,-1343,-20410,125266,11269,-17526,129169,385,19196,1577,0,58099,0.0009999999999998899
1115999,-8913,-12462,124579,-38072,4837,122021,375,19190,1536,1,58100,0.0009980000000000544
1116999,7416,30865,130356,-4401,30062,116180,277,19209,1135,0,58101,0.0009999999999998899
1117999,1021,20439,125846,13011,10071,122664,303,19199,1241,0,58102,0.001000000000000112
1118999,7198,7613,126656,-22609,2814,124219,426,19199,1241,1,58103,0.0009999999999998899
1119999,-671,-1088,128238,7113,-9696,130888,269,19198,1745,0,58104,0.001000000000000112
1121005,12863,361,126360,11732,5091,120292,269,19199,1102,0,58105,0.0010060000000000624
1121999,8116,10909,132768,-9799,-2530,130834,322,19200,1319,1,58106,0.0009939999999999394
1122999,10650,231,130595,1229,2791,126760,259,19218,1061,1,58107,0.0009999999999998899
1123999,6640,2925,126955,4121,3957,130266,297,19195,1216,0,58108,0.001000000000000112
1124999,8108,6355,129601,-1576,2713,125341,328,19195,1216,1,58109,0.0009999999999998899
1126001,7483,2672,124594,467,-4036,126233,225,19191,1343,1,58110,0.0010020000000001694
1127000,20768,2324,126299,5038,-956,128401,225,19224,922,0,58111,0.0009989999999999721
1128001,15800,3979,128502,9066,3160,123626,309,19203,1266,0,58112,0.0010010000000000296
1128999,8549,-1767,127908,-3184,-9266,133103,337,19194,1380,1,58113,0.0009979999999998324
1129999,724,-13539,125882,-12297,-16404,134967,244,19216,999,0,58114,0.001000000000000112
1130999,7703,-4204,125274,21261,-2131,127973,359,19216,999,0,58115,0.0009999999999998899
1131999,-6070,7501,124591,-17811,3526,124504,373,19203,1470,1,58116,0.001000000000000112
1132999,12374,4310,126962,-25240,5716,119146,373,19219,1528,1,58117,0.0009999999999998899
1134000,8226,9210,135057,28257,-2054,136641,233,19203,954,0,58118,0.0010010000000000296
1134999,-1532,-19008,125723,-659,-20970,132575,387,19199,1585,1,58119,0.0009989999999999721
1135999,-15346,-1701,126664,-43117,-1607,124330,483,19219,1978,1,58120,0.001000000000000112
1136999,2310,10056,129712,-4413,11397,124504,277,19219,1135,0,58121,0.0009999999999998899
1137999,3750,21916,126043,15768,20446,117113,332,19205,1135,0,58122,0.001000000000000112
1138999,3598,10545,125987,-18936,10168,122914,440,19194,1360,1,58123,0.0009999999999998899
1140001,7746,7225,129929,-6059,-6829,125976,440,19219,1802,0,58124,0.0010020000000001694
1141001,13888,-5905,124232,19073,1158,125505,345,19205,1413,0,58125,0.0009999999999998899
1142001,11699,14094,133710,-2599,5732,125435,329,19210,1347,1,58126,0.001000000000000112
1143001,7680,-3391,129721,-7108,-1581,130918,252,19210,1032,1,58127,0.0009999999999998899
1144001,5250,-650,128071,3969,-337,129309,378,19216,1032,0,58128,0.001000000000000112
1145001,8231,2694,128506,-2198,2251,129365,359,19201,1548,1,58129,0.0009999999999998899
1145999,11109,5298,125294,8721,-1101,124791,359,19207,1470,1,58130,0.0009980000000000544
1147000,17930,4465,127007,1318,2323,123803,227,19209,930,0,58131,0.0010010000000000296
1147999,18011,1287,128036,-1674,-1226,128439,298,19202,1221,0,58132,0.0009989999999999721
1149001,5499,-1614,127806,12778,-2168,128722,433,19202,1773,1,58133,0.0010019999999999474
1149999,5525,-11604,126305,-13789,-18630,137030,256,19229,1773,0,58134,0.0009980000000000544
1150999,735,-5729,124669,14423,-4212,127583,315,19194,1049,0,58135,0.0009999999999998899
1151999,-179,6485,125018,-10462,-799,126974,315,19201,1290,1,58136,0.001000000000000112
1152999,8452,704,127352,-25862,5825,119489,317,19224,1298,1,58137,0.0009999999999998899
1154002,8088,14643,135427,21790,6145,129517,284,19184,1163,0,58138,0.0010030000000000872
1154999,-2634,-22500,123831,3811,-22906,137349,350,19189,1433,1,58139,0.0009969999999999146
1155999,-16268,169,126922,-41528,-4855,123129,319,19189,1433,1,58140,0.001000000000000112
1156999,7052,8881,129498,-3579,9301,127456,304,19216,1307,0,58141,0.0009999999999998899
1158000,480,24106,127178,13637,22899,120299,304,19203,1245,0,58142,0.0010010000000000296
1158999,4750,8404,127054,-19986,8153,121141,346,19173,1417,1,58143,0.0009989999999999721
1159999,8563,3774,129167,-6567,-2466,131569,252,19208,1032,0,58144,0.001000000000000112
1160999,12988,-3584,124007,22497,-3033,118880,347,19209,1421,0,58145,0.0009999999999998899
1161999,11776,15979,134861,-4830,11199,130458,352,19209,1421,1,58146,0.001000000000000112
1162999,9585,-6463,128885,-10930,-2825,128201,276,19223,1442,1,58147,0.0009999999999998899
1163999,8261,3962,130111,6895,-218,132347,276,19196,1130,0,58148,0.001000000000000112
1165000,1760,706,129627,7746,-5229,129954,328,19204,1343,1,58149,0.0010010000000000296
1165999,13864,-1592,123564,-7981,-3330,122196,368,19224,1507,1,58150,0.0009989999999999721
1166999,15471,9073,128802,16099,13078,123615,254,19206,1040,0,58151,0.0009999999999998899
1168000,20067,5823,128507,2392,-6426,129705,319,19206,1040,0,58152,0.0010010000000000296
1168999,4503,-9213,123360,-7983,-9026,124949,339,19193,1307,1,58153,0.0009989999999999721
1169999,12049,-4465,130297,6653,-8686,136002,339,19220,1388,0,58154,0.001000000000000112
1170999,-3628,-13293,120603,-486,-18674,136097,349,19204,1429,0,58155,0.0009999999999998899
1171999,5852,5830,126658,-23653,21820,106547,321,19201,1315,1,58156,0.001000000000000112
1172999,4627,17522,136825,-216,-6752,140694,224,19221,917,1,58157,0.0009999999999998899
1173999,10165,-15848,125305,19410,-12291,125063,423,19221,917,0,58158,0.001000000000000112
1174999,-11685,-2960,130135,-33825,-15773,134819,387,19198,1732,1,58159,0.0009999999999998899
1175999,-2485,-9970,125550,-17990,4299,120836,387,19200,1585,1,58160,0.001000000000000112
1176999,3415,35491,129585,19339,32205,111901,248,19212,1016,0,58161,0.0009999999999998899
1177999,3059,12282,130147,-19908,-748,133454,305,19196,1249,0,58162,0.001000000000000112
1178999,5361,-1788,124715,-9991,-556,117394,450,19207,1843,1,58163,0.0009999999999998899
1179999,3972,236,128680,12288,-712,132808,275,19207,1843,0,58164,0.001000000000000112
1180999,16247,5670,129259,1452,4354,121050,323,19197,1126,0,58165,0.0009999999999998899
1181999,7797,7243,130515,-3405,2908,125130,323,19199,1323,1,58166,0.001000000000000112
1182999,16945,1621,131815,1724,450,132848,249,19215,1020,1,58167,0.0009999999999998899
1183999,925,3837,127006,701,-375,126171,319,19195,1307,0,58168,0.001000000000000112
1184999,10931,2290,128446,-513,640,127744,334,19184,1368,1,58169,0.0009999999999998899
1185999,8533,-89,126195,3911,-5319,127404,208,19184,852,1,58170,0.001000000000000112
1186999,21959,1704,126916,2431,2111,127505,312,19224,852,0,58171,0.0009999999999998899
1188000,10177,4298,131291,9696,1222,128049,342,19202,1278,0,58172,0.0010010000000000296
1188999,1025,-5578,126733,-5383,-11071,127714,342,19200,1401,1,58173,0.0009989999999999721
1190000,15583,-20921,121079,-10443,-15670,133667,242,19208,991,0,58174,0.0010010000000000296
1190999,-7005,14485,129318,18088,7706,127748,369,19205,1511,0,58175,0.0009989999999999721
1192001,12958,-7742,121581,-21789,-8133,124683,394,19205,1614,1,58176,0.0010019999999999474
1192999,811,19782,136563,-16858,22012,115563,236,19226,1614,1,58177,0.0009980000000000544
1193999,10652,-13696,128735,27482,-28069,149266,334,19194,967,0,58178,0.001000000000000112
1194999,-8806,-16621,125092,-15468,-11327,121930,334,19193,1368,1,58179,0.0009999999999998899
1195999,-10098,-2839,128175,-39088,-7169,131266,443,19221,1814,1,58180,0.001000000000000112
1196999,5823,24018,128899,17161,29438,113121,271,19210,1110,0,58181,0.0009999999999998899
1198001,5217,26086,127473,-8302,18166,117743,327,19190,1339,0,58182,0.0010019999999999474
1198999,1308,6943,129794,-13659,3356,126324,411,19190,1339,1,58183,0.0009980000000000544
1199999,11993,-12159,122969,1638,-14437,129738,353,19226,1683,0,58184,0.001000000000000112
1201000,12127,9580,131801,14789,6861,124340,353,19201,1446,0,58185,0.0010009999999998076
1201999,11057,4638,130653,-6642,-57,127922,331,19209,1356,1,58186,0.0009990000000001942
1202999,12245,3399,131004,297,3015,124478,261,19206,1069,0,58187,0.0009999999999998899
1203999,4892,144,128840,-1680,-3509,136323,386,19205,1581,0,58188,0.001000000000000112
1204999,10389,5674,128009,1877,4314,123398,378,19205,1581,1,58189,0.0009999999999998899
1205999,6091,2191,125671,1860,-4003,127845,231,19213,1548,1,58190,0.001000000000000112
1206999,20347,3298,128498,2030,734,124572,231,19205,946,0,58191,0.0009999999999998899
1207999,11329,-2621,126877,5871,-3108,128576,297,19197,1216,1,58192,0.001000000000000112
1208999,3525,-1176,129548,4590,-4208,135804,442,19223,1810,1,58193,0.0009999999999998899
1209999,12242,-16794,123973,-16738,-5194,128079,264,19194,1081,0,58194,0.001000000000000112
1210999,-2800,5994,126689,20324,2371,127366,321,19194,1081,0,58195,0.0009999999999998899
1211999,2719,4452,125334,-16613,550,120419,321,19200,1315,1,58196,0.001000000000000112
1212999,10044,4998,130593,-22898,6576,123933,321,19224,1315,0,58197,0.0009999999999998899
1214002,5456,-6945,130108,18409,-20829,142239,317,19192,1298,0,58198,0.0010030000000000872
1214999,-1700,-15297,124494,-30972,-8135,121279,342,19184,1401,1,58199,0.0009969999999999146
1216000,-13118,5793,128858,-22653,9934,124418,257,19219,1053,0,58200,0.0010010000000000296
1216999,4518,19631,130968,19848,16227,122548,309,19219,1053,0,58201,0.0009989999999999721
1217999,1906,10129,123983,-13252,8266,120103,353,19201,1266,1,58202,0.001000000000000112
1218999,2797,17085,130776,-19404,7186,122929,353,19177,1446,1,58203,0.0009999999999998899
1219999,11083,-6416,124825,16309,-7123,126785,276,19205,1130,0,58204,0.001000000000000112
1221000,15855,10789,129028,6256,7498,123301,336,19200,1376,1,58205,0.0010009999999998076
1222001,7449,4384,132534,-12386,-3767,132326,332,19220,1360,1,58206,0.0010010000000000296
1222999,12620,435,129038,4873,-311,126665,281,19220,1360,0,58207,0.0009980000000000544
1223999,3274,-1017,129221,-1794,-154,132885,327,19192,1151,0,58208,0.0009999999999998899
1225000,11291,5411,128715,2811,-1626,126772,327,19197,1339,1,58209,0.0010010000000000296
1225999,11685,-649,123467,6026,170,125355,338,19228,1384,0,58210,0.0009989999999999721
1227002,17040,11126,129545,2930,7473,122712,261,19202,1069,0,58211,0.0010030000000000872
1227999,13842,-2746,126351,4895,-5735,127176,306,19191,1253,1,58212,0.0009969999999999146
1228999,2657,-3694,127780,-9143,-12612,134404,284,19191,1163,1,58213,0.001000000000000112
1229999,9098,-16047,125468,3789,-10419,132485,369,19220,1163,0,58214,0.0009999999999998899
1231001,-5075,4825,125245,8624,1016,126754,323,19202,1511,1,58215,0.0010020000000001694
1231999,5479,2986,124568,-27886,1285,121344,323,19206,1323,1,58216,0.0009979999999998324
1232999,12707,10503,133454,-4811,8374,121232,222,19220,909,0,58217,0.001000000000000112
1233999,9148,-12189,126562,24801,-19208,141636,376,19196,1540,0,58218,0.0009999999999998899
1234999,-6498,-7218,126288,-26515,-5220,120947,398,19196,1630,1,58219,0.001000000000000112
1235999,-8873,1341,127745,-31614,-340,127011,242,19204,1630,0,58220,0.0009999999999998899
1236999,2591,23621,130325,20498,23558,118933,313,19212,991,0,58221,0.001000000000000112
1237999,977,8280,124623,-9300,1386,126788,313,19200,1282,1,58222,0.0009999999999998899
1238999,3463,11781,129594,-23081,10249,118117,479,19215,1962,1,58223,0.001000000000000112
1239999,14286,-3159,125041,13557,-5642,128467,276,19202,1130,0,58224,0.0009999999999998899
1240999,16720,11891,128861,12781,9495,121329,322,19202,1319,1,58225,0.001000000000000112
1241999,8553,4647,130647,-9897,-3584,129549,225,19197,1319,1,58226,0.0009999999999998899
1242999,9943,1172,129882,-2428,-1757,129393,345,19219,922,0,58227,0.001000000000000112
1243999,3434,-1724,128281,247,-2275,132666,345,19194,1413,0,58228,0.0009999999999998899
1245000,6470,4869,129053,4868,-380,127143,339,19187,1388,1,58229,0.0010010000000000296
1245999,13118,-715,123574,-1867,-3931,127753,215,19224,881,0,58230,0.0009989999999999721
1246999,19661,10522,128780,8227,8031,121206,310,19204,1270,0,58231,0.001000000000000112
1248000,11721,119,127394,7954,-2419,128063,356,19204,1270,1,58232,0.0010010000000000296
1248999,5518,-7634,126668,-9898,-13533,132289,250,19200,1458,1,58233,0.0009989999999999721
1249999,5938,-7841,127484,4265,-4826,127850,250,19206,1024,0,58234,0.0009999999999998899
1251000,-4722,3619,125596,6056,-6300,135357,355,19202,1454,1,58235,0.0010010000000000296
1251999,6472,-908,123985,-25727,1032,117362,397,19225,1626,1,58236,0.0009989999999999721
1252999,10382,19579,137613,-6179,13117,142297,238,19188,975,0,58237,0.001000000000000112
1253999,6256,-23193,123645,23140,-25417,125592,329,19188,975,0,58238,0.0009999999999998899
1254999,-10404,1486,128678,-25736,-2280,130029,411,19201,1347,1,58239,0.001000000000000112
1255999,-3103,-1952,127697,-28506,20205,119395,411,19223,1683,0,58240,0.0009999999999998899
1257000,1317,34899,128959,19407,19760,117168,294,19207,1204,0,58241,0.0010010000000000296
1257999,708,4930,124823,-15090,1414,130133,329,19188,1347,1,58242,0.0009989999999999721
1259000,3551,4280,128363,-17422,-6135,122752,407,19221,1667,1,58243,0.0010010000000000296
1259999,14182,-5748,123625,11951,5527,125636,347,19221,1667,0,58244,0.0009989999999999721
1261000,15867,20044,131654,9029,9500,121680,342,19204,1421,1,58245,0.0010010000000000296
1261999,13052,-51,127529,-3139,-605,127989,342,19221,1401,1,58246,0.0009989999999999721
1263000,8057,4025,129902,3662,-3140,135974,262,19206,1073,0,58247,0.0010010000000000296
1263999,7827,-4516,127313,1194,-413,128002,378,19197,1548,0,58248,0.0009989999999999721
1264999,4217,5132,128216,3039,-1767,126836,396,19220,1622,1,58249,0.001000000000000112
1265999,14468,1756,124932,-1103,629,126936,227,19220,1622,0,58250,0.0009999999999998899
1267000,19773,7456,127959,4721,4229,123109,303,19210,930,0,58251,0.0010010000000000296
1267999,8940,1738,128323,7959,-2176,131501,303,19203,1241,1,58252,0.0009989999999999721
1269001,4467,-9611,126447,-11622,-17088,132292,408,19224,1671,1,58253,0.0010020000000001694
1269999,6735,-8094,124814,17120,-2632,129937,279,19195,1143,0,58254,0.0009979999999998324
1270999,-5871,6520,125999,-9019,-2925,128920,320,19199,1311,1,58255,0.001000000000000112
1271999,10934,-781,123513,-27653,8256,115586,259,19199,1311,1,58256,0.0009999999999998899
1272999,8029,15916,137171,18621,197,134926,325,19222,1061,0,58257,0.001000000000000112
1273999,3544,-21109,124579,6426,-21992,134159,325,19188,1331,0,58258,0.0009999999999998899
1274999,-13682,-1928,126570,-38911,-3871,123257,353,19177,1446,1,58259,0.001000000000000112
1275999,311,6457,128088,-6635,13991,125261,229,19216,938,0,58260,0.0009999999999998899
1276999,2831,27603,126557,13300,21496,114834,304,19199,1245,0,58261,0.001000000000000112
1277999,3849,7503,124722,-19963,6312,127005,371,19199,1520,1,58262,0.0009999999999998899
1279000,4208,7102,130598,-5481,-4513,124398,260,19182,1520,1,58263,0.0010010000000000296
1280000,13511,-7616,122688,20852,-3189,127475,310,19209,1065,0,58264,0.001000000000000112
1280999,12540,19397,132820,-9763,12848,121253,310,19204,1270,1,58265,0.0009989999999999721
1281999,10590,-459,128395,-7250,-2237,129521,295,19219,1208,1,58266,0.0009999999999998899
1282999,4123,2814,128802,13485,-766,132327,277,19189,1135,0,58267,0.001000000000000112
1283999,5342,-2989,127586,-9520,-3151,130655,329,19189,1347,0,58268,0.0009999999999998899
1284999,10200,3814,127015,2969,2504,123806,340,19196,1347,1,58269,0.001000000000000112
1285999,17708,6279,125355,13085,4287,127124,292,19222,1393,0,58270,0.0009999999999998899
1286999,18136,6632,127937,-3823,1104,123776,292,19202,1196,0,58271,0.001000000000000112
1287999,8558,-5161,126637,2466,-9267,131132,325,19184,1331,1,58272,0.0009999999999998899
1288999,5226,-12075,125696,2040,-14076,131483,244,19220,999,1,58273,0.001000000000000112
1289999,1315,612,125818,8563,-1972,131600,379,19220,1552,0,58274,0.0009999999999998899
1290999,-462,-845,123150,-13709,-5222,128267,334,19201,1552,1,58275,0.001000000000000112
1292000,4612,15117,130148,-20941,16115,113229,226,19208,1368,1,58276,0.0010010000000000296
1293000,9875,-1340,130191,15862,-11656,140459,226,19214,926,0,58277,0.0009999999999998899
1293999,110,-14530,126205,4182,-12417,127248,399,19202,1634,0,58278,0.0009989999999999721
1294999,-10421,-9934,125991,-33251,-16094,132804,424,19211,1737,1,58279,0.001000000000000112
1295999,4268,17838,126882,-4942,23591,115202,249,19208,1020,0,58280,0.0009999999999998899
1296999,44,29584,128932,7893,21976,119156,323,19208,1020,0,58281,0.001000000000000112
1297999,4485,2029,125922,-19243,470,128699,519,19195,1323,1,58282,0.0009999999999998899
1298999,608,269,127558,-6639,-3846,122793,519,19222,2126,0,58283,0.001000000000000112
1299999,14546,648,127883,15470,-214,123305,282,19197,1155,0,58284,0.0009999999999998899
1300999,13730,13859,130384,-399,8226,124997,324,19198,1327,1,58285,0.001000000000000112
1301999,8981,-576,129739,-7753,-446,128348,228,19216,934,1,58286,0.0009999999999998899
1302999,6316,2857,128324,4354,1316,132352,359,19216,934,0,58287,0.001000000000000112
1303999,9245,1321,127291,-258,483,124762,335,19203,1470,1,58288,0.0009999999999998899
1304999,6441,6004,127174,5098,-5077,129233,335,19203,1372,1,58289,0.001000000000000112
1305999,18320,1362,126346,-4834,961,125470,221,19223,905,0,58290,0.0009999999999998899
1307001,18075,4818,128723,7303,1125,126860,315,19201,1290,0,58291,0.0010019999999999474
1307999,4334,-1714,128105,13150,-9724,130701,372,19200,1524,1,58292,0.0009980000000000544
1309000,8141,-17022,122720,-12811,-16260,133702,256,19200,1524,0,58293,0.0010010000000000296
1310001,533,2993,127240,21991,9609,127041,338,19208,1049,0,58294,0.0010010000000000296
1310999,3209,6284,123843,-25921,-6643,125246,338,19203,1384,1,58295,0.0009980000000000544
1311999,3471,7975,129019,-13079,17497,116253,365,19226,1495,1,58296,0.0009999999999998899
1313000,9239,1336,133519,26722,-26919,148435,247,19186,1012,0,58297,0.0010010000000000296
1313999,-2734,-26311,123532,-15223,-11308,123379,338,19195,1384,0,58298,0.0009989999999999721
1314999,-10787,901,127364,-36366,2716,125372,383,19195,1384,1,58299,0.001000000000000112
1316002,5168,22440,129466,10552,25360,117412,310,19220,1569,0,58300,0.0010029999999998651
1316999,1516,22105,124980,-2738,13632,120226,310,19203,1270,0,58301,0.0009970000000001367
1317999,4448,6898,128081,-13802,2597,126988,327,19184,1339,1,58302,0.0009999999999998899
1318999,3376,-3748,126892,2147,-11354,127900,353,19217,1446,0,58303,0.001000000000000112
1320002,14652,1613,126802,14716,10186,120390,332,19201,1360,0,58304,0.0010029999999998651
1321001,9583,11979,133355,-9203,-2926,131324,348,19201,1425,1,58305,0.0009989999999999721
1321999,9072,-1245,128883,512,5845,124074,251,19215,1425,1,58306,0.0009980000000000544
1322999,5391,3041,128128,-25,-1083,134270,367,19209,1028,0,58307,0.001000000000000112
1323999,8412,4149,128537,1072,3837,123273,367,19204,1503,1,58308,0.0009999999999998899
1324999,9872,2267,124752,2895,-6529,127820,408,19228,1671,1,58309,0.001000000000000112
1325999,20262,1921,127713,3379,1836,126776,237,19202,971,0,58310,0.0009999999999998899
1326999,16586,3049,127834,6499,1181,125091,315,19202,1290,0,58311,0.001000000000000112
1327999,6842,-208,127379,1809,-4373,131275,418,19202,1290,1,58312,0.0009999999999998899
1329002,489,-9113,126736,-14859,-15244,133280,282,19229,1712,0,58313,0.0010030000000000872
1330001,7467,-7183,123788,20712,-5260,130407,282,19191,1155,0,58314,0.0009989999999999721
1330999,-4541,7089,126545,-13263,896,125212,320,19195,1311,1,58315,0.0009980000000000544
1331999,12793,340,127254,-24785,3445,120013,225,19225,922,1,58316,0.0009999999999998899
1332999,6857,9353,134949,25950,-91,133890,346,19225,1417,0,58317,0.001000000000000112
1333999,-2332,-15681,126442,-597,-17931,133201,350,19196,1417,1,58318,0.0009999999999998899
1334999,-15351,-2006,125983,-41976,-4995,126154,247,19180,1433,1,58319,0.001000000000000112
1335999,2642,12975,129422,-4271,15795,122061,247,19213,1012,0,58320,0.0009999999999998899
1336999,3822,21201,126424,15127,16387,119122,317,19201,1298,0,58321,0.001000000000000112
1337999,4421,7634,125678,-17683,10567,121403,378,19183,1548,1,58322,0.0009999999999998899
1338999,8933,5807,130913,-5502,-6503,127352,275,19201,1126,0,58323,0.001000000000000112
1339999,13429,-5668,123577,17648,1432,125926,309,19201,1126,0,58324,0.0009999999999998899
1340999,11240,17227,134873,-3222,8569,123822,296,19205,1266,1,58325,0.0009999999999998899
1341999,6373,-5256,129804,-5406,-1844,132277,296,19221,1212,1,58326,0.001000000000000112
1342999,5697,-966,127503,4081,-1695,128246,265,19193,1085,0,58327,0.0009999999999998899
1343999,8971,1925,128919,-3220,1733,130489,329,19195,1347,1,58328,0.001000000000000112
1344999,13009,4003,125335,8474,-2412,126345,298,19228,1221,1,58329,0.0009999999999998899
1345999,17447,4782,127870,3632,4195,122442,297,19228,1221,0,58330,0.001000000000000112
1346999,15376,3418,129131,-2526,926,128735,319,19204,1216,0,58331,0.0009999999999998899
1347999,7138,-4459,126108,9234,-4978,128825,319,19187,1307,1,58332,0.001000000000000112
1348999,4463,-9892,126606,-9731,-14341,135745,227,19219,930,0,58333,0.0009999999999998899
1349999,965,-4859,124593,13183,-6806,126844,358,19206,1466,0,58334,0.001000000000000112
1350999,2396,581,124394,-10624,-3824,122491,344,19211,1409,1,58335,0.0009999999999998899
1351999,7050,6042,130505,-22962,14573,119816,236,19211,1409,1,58336,0.001000000000000112
1352999,7835,6378,132347,20153,-17099,139410,386,19208,967,0,58337,0.0009999999999998899
