t_us,ax,ay,az,ax1,ay1,az1,shunt_raw,bus_raw,curr_raw,pg_rpm,seq,dt
0,11584,3881,127836,-909,-716,126200,80,19474,328,0,48300,
1000,14087,3395,127226,11715,3684,123795,56,19480,229,0,48301,0.001
2000,13127,3011,127771,178,-4880,126953,97,19477,397,1,48302,0.001
3000,9305,-2764,127487,-2319,-4305,127724,75,19477,397,1,48303,0.001
4000,3943,-4263,127711,3504,-9298,134559,61,19478,307,1,48304,0.001
5001,7369,897,128369,-3197,4674,123986,61,19480,250,0,48305,0.0010009999999999993
6000,5016,10673,131699,-6354,5143,126568,83,19474,340,0,48306,0.0009990000000000008
7002,11664,2509,129913,12831,-557,129882,69,19481,283,0,48307,0.0010019999999999994
8000,5147,-1302,129779,527,-4917,128471,59,19473,242,1,48308,0.0009980000000000006
9000,16116,-5833,130155,-20406,-8676,129630,95,19473,242,1,48309,0.0009999999999999992
10000,4407,3042,133958,15363,1092,130684,70,19480,389,1,48310,0.0010000000000000009
11000,2795,-4528,129585,1420,-9879,136492,70,19481,287,1,48311,0.0009999999999999992
12000,-4135,756,130342,-32349,-606,127372,74,19465,303,0,48312,0.0010000000000000009
13001,3301,10240,132462,954,7839,125043,82,19473,336,0,48313,0.0010009999999999984
14000,2567,5129,128490,9088,236,131605,60,19482,246,0,48314,0.0009989999999999999
15000,10337,173,130704,-16945,-1694,123678,86,19482,352,1,48315,0.0010000000000000009
16002,2891,-3189,131562,-3335,-7392,135444,75,19474,352,1,48316,0.0010019999999999994
17000,5827,-3275,127959,6415,-1592,128698,68,19474,307,1,48317,0.0009979999999999989
18000,-4465,9881,133421,-13913,4993,127075,68,19478,279,1,48318,0.0010000000000000009
19000,2061,-1946,128617,-18471,-3742,131234,100,19466,410,0,48319,0.0010000000000000009
20002,-4190,7973,129364,-3082,4677,124187,81,19482,332,0,48320,0.0010019999999999994
21005,8979,4236,129762,-6836,2571,129415,60,19482,246,0,48321,0.0010030000000000004
22000,3879,4734,126118,-1225,233,122532,129,19474,246,1,48322,0.0009949999999999994
23002,1633,2733,125663,-4452,-666,126792,78,19474,528,1,48323,0.0010019999999999994
24000,4033,3604,126096,-7888,-352,125753,78,19477,319,1,48324,0.0009980000000000024
25003,4186,7215,128240,-3099,5048,127886,72,19472,295,0,48325,0.001002999999999997
26000,4180,1473,126934,-3292,-1061,124388,82,19474,336,0,48326,0.0009970000000000014
27000,2992,5763,126090,-6387,3872,122926,64,19481,262,0,48327,0.0010000000000000009
28000,10396,1188,125503,571,-1850,127913,76,19481,262,0,48328,0.0009999999999999974
29000,5226,7079,124311,4337,7171,118088,119,19459,311,1,48329,0.0010000000000000009
30000,5449,3740,123567,-10609,2319,125283,119,19471,487,1,48330,0.0010000000000000009
31000,7117,8783,125781,1299,1116,124863,67,19477,274,1,48331,0.0010000000000000009
32001,9202,-2925,122513,4298,-3587,127848,91,19469,373,0,48332,0.0010010000000000019
33001,8866,7194,126019,-1279,3752,121337,81,19477,332,0,48333,0.000999999999999994
34000,10790,1939,124282,4582,-1045,125881,56,19477,332,0,48334,0.0009989999999999999
35000,12984,5526,125779,6938,3562,121749,58,19479,229,1,48335,0.0010000000000000009
36000,11166,612,124131,-3362,-2695,125655,58,19475,238,1,48336,0.0010000000000000009
37000,7284,3999,126365,453,3713,124389,82,19480,336,1,48337,0.0010000000000000009
38000,7599,-1231,124626,7322,-5346,130498,66,19473,270,0,48338,0.0010000000000000009
39000,8032,6179,127966,-2432,6784,123344,97,19474,397,0,48339,0.0010000000000000009
40000,13672,1419,126348,4573,-4076,129058,68,19474,397,0,48340,0.0010000000000000009
41000,11385,5033,127261,6253,5685,120630,71,19479,279,1,48341,0.000999999999999994
42000,12849,-885,127891,-636,-11369,132051,71,19472,291,1,48342,0.0010000000000000009
43000,10124,-2997,128287,1673,-1694,125893,68,19475,279,1,48343,0.0010000000000000009
44000,2728,-1374,129209,-1024,-6798,134479,68,19478,279,1,48344,0.0010000000000000009
45000,7196,2163,129619,-4585,5123,124461,79,19473,324,0,48345,0.0010000000000000009
46000,5102,6716,131230,-2359,-638,129539,79,19473,324,0,48346,0.0010000000000000009
47000,12562,-1040,128912,12470,2511,126024,55,19479,324,0,48347,0.0010000000000000009
48002,4912,5807,129798,-2557,-571,127734,55,19478,225,1,48348,0.001001999999999996
49000,19588,-9917,128875,-19528,-8299,130268,102,19474,418,1,48349,0.0009979999999999989
50000,4815,8462,135760,21935,4562,129013,74,19476,303,1,48350,0.0010000000000000009
51000,510,-7734,130240,-7504,-15151,139074,66,19475,270,1,48351,0.0010000000000000009
52001,-4187,-2828,130245,-33471,-2655,126161,104,19475,270,0,48352,0.0010010000000000019
53000,494,8322,133736,10778,4630,130456,71,19471,426,0,48353,0.0009989999999999999
54000,6014,7926,127325,-1547,6802,124133,71,19483,291,0,48354,0.0010000000000000009
55002,9014,10113,131760,-19454,6371,121112,65,19472,266,1,48355,0.001001999999999996
56001,7336,-5623,131154,7980,-13311,140097,64,19477,262,1,48356,0.0009989999999999999
57002,4381,-12064,124302,2791,-7160,127507,73,19478,299,1,48357,0.0010010000000000019
58000,-4677,12398,134956,-22459,7836,127385,75,19478,307,0,48358,0.0009979999999999989
59000,5437,-3575,128398,-10075,-5057,131889,102,19465,307,0,48359,0.0010000000000000009
60000,-3199,10232,128874,1574,6568,123937,62,19472,418,0,48360,0.0010000000000000009
61000,7873,1847,128969,-12986,-1154,130801,62,19478,254,0,48361,0.0010000000000000009
62000,5812,5680,124569,-4789,2218,116765,97,19461,397,1,48362,0.0010000000000000009
63000,3029,3760,126488,5350,-298,130724,78,19472,319,1,48363,0.0010000000000000009
64000,2725,1985,126090,-5649,-2712,127223,68,19472,279,1,48364,0.0010000000000000009
65002,2768,4768,127522,-14839,3735,124788,83,19474,279,0,48365,0.001001999999999989
66002,4665,8086,128875,-2123,4568,126228,77,19471,340,0,48366,0.0010000000000000009
67000,3395,2901,124607,5136,806,122238,77,19478,315,0,48367,0.0009979999999999989
68000,9948,1275,125821,-5870,-1798,127093,56,19471,229,0,48368,0.0010000000000000009
69000,6213,5794,124188,-1727,4774,120644,142,19467,582,1,48369,0.0010000000000000009
70000,4887,5739,124045,837,3263,124144,79,19467,324,1,48370,0.0010000000000000009
71000,9368,9980,126994,-6303,6636,125890,70,19476,324,0,48371,0.0010000000000000009
72000,6897,-2433,124076,3434,-6163,129589,81,19467,287,0,48372,0.0010000000000000009
73000,8325,-473,124524,7531,-2330,123267,81,19473,332,0,48373,0.0010000000000000009
74000,9819,3568,124814,-7591,899,120543,62,19479,254,1,48374,0.0010000000000000009
75000,14792,11148,126744,8666,9319,122654,78,19474,319,1,48375,0.0010000000000000009
76000,9907,-5,123315,6783,-2717,125814,86,19476,352,1,48376,0.0010000000000000009
77000,7449,2967,126989,-10931,-1973,128242,69,19476,352,1,48377,0.0010000000000000009
78000,8756,-4593,124985,7496,-2732,128124,90,19480,283,0,48378,0.0010000000000000009
79000,6692,7279,127656,8468,3083,124996,90,19466,369,0,48379,0.0010000000000000009
80000,13899,-27,126514,-4259,-1564,126538,77,19476,315,0,48380,0.0010000000000000009
81002,12434,7534,127801,9096,3542,123416,58,19473,238,1,48381,0.001001999999999989
82002,12695,-1721,127412,3115,-6765,129118,87,19476,356,1,48382,0.0010000000000000009
83000,7882,916,128917,-3071,-2452,126517,73,19476,356,1,48383,0.0009979999999999989
84000,4585,-7739,127905,693,-10968,135931,67,19481,299,1,48384,0.0010000000000000009
85000,7039,3725,129242,-3201,7910,121591,67,19473,274,0,48385,0.0010000000000000009
86000,7938,6103,129979,1515,1089,130194,77,19474,315,0,48386,0.0010000000000000009
87000,13076,7270,129740,8726,4341,124865,65,19481,266,0,48387,0.0010000000000000009
88000,6729,-1674,129202,-13321,-9566,129744,70,19465,287,1,48388,0.0010000000000000009
89001,14068,-8088,130004,1940,-5560,129769,70,19465,287,1,48389,0.0010010000000000019
90002,2326,977,133039,12115,-5641,136164,66,19476,287,1,48390,0.0010010000000000019
91000,582,-8802,128445,-16763,-6886,130980,66,19479,270,0,48391,0.0009979999999999989
92000,-1983,7518,131355,-22615,6870,123943,87,19469,356,0,48392,0.0010000000000000009
93000,4501,9610,131190,11569,6178,129677,82,19475,336,0,48393,0.0010000000000000009
94000,5731,5608,128824,-7444,236,125330,56,19476,229,0,48394,0.0010000000000000009
95000,8250,-598,131455,-11602,-4760,129486,95,19476,229,1,48395,0.0010000000000000009
96000,5613,-7538,129491,2181,-10615,134820,75,19479,389,1,48396,0.0010000000000000009
97001,1514,2825,130084,-396,4663,126263,75,19480,307,1,48397,0.001000999999999988
98000,-3449,4098,131951,-19769,-3898,133235,65,19473,266,0,48398,0.0009989999999999999
99000,362,2621,128380,-11278,4438,123513,120,19469,491,0,48399,0.0010000000000000009
100003,-2696,8374,129006,-3719,2712,129018,72,19477,295,0,48400,0.0010030000000000039
101002,11329,5025,129272,-4766,1990,125018,69,19477,283,0,48401,0.0009989999999999999
102000,1405,269,125197,-949,-4330,125367,102,19467,283,1,48402,0.0009979999999999989
103000,4195,4427,127079,-8745,2212,127409,73,19474,418,1,48403,0.0010000000000000009
104000,2718,3812,126033,-5200,800,125278,73,19476,299,0,48404,0.0010000000000000009
105000,4185,7062,128593,-6090,3412,128480,79,19473,324,0,48405,0.0010000000000000009
106002,2458,1259,125328,-3174,-318,123797,87,19473,356,0,48406,0.0010020000000000029
107000,5874,8336,126689,-6429,5294,122891,59,19473,242,0,48407,0.0009979999999999989
108000,9849,-546,124600,6321,-2293,127744,92,19481,242,1,48408,0.0010000000000000009
109000,4783,7851,124534,-4437,4956,119131,81,19455,377,1,48409,0.0010000000000000009
110000,6786,2081,124168,-7764,686,126312,81,19470,332,1,48410,0.0010000000000000009
111001,7425,9300,125396,3639,4250,122855,66,19470,270,0,48411,0.001000999999999988
112000,7496,-1762,123041,1361,-3722,128469,94,19471,385,0,48412,0.0009989999999999999
113000,9962,7802,126574,-2349,4928,120816,76,19471,311,0,48413,0.0010000000000000009
114000,11932,-185,123998,4357,-2035,126628,61,19476,311,1,48414,0.0010000000000000009
115000,11992,5738,125439,8647,3593,121903,65,19475,250,1,48415,0.0010000000000000009
116000,9234,-45,124289,-4328,-2897,124849,65,19475,266,1,48416,0.0010000000000000009
117000,9636,4993,126649,-597,3121,124611,76,19477,311,1,48417,0.0010000000000000009
118004,7612,-2983,124536,9541,-5242,127671,70,19466,287,0,48418,0.0010040000000000049
119001,8300,8340,128252,-3621,6516,124789,88,19473,360,0,48419,0.0009969999999999979
120000,15197,-436,125621,1775,-3317,125537,59,19473,360,0,48420,0.0009989999999999999
121000,11029,7804,127890,8585,5620,123737,88,19477,242,1,48421,0.0010000000000000009
122000,12405,-5504,127042,-1494,-11275,131226,88,19471,360,1,48422,0.0010000000000000009
123000,7432,-309,129601,308,-2105,128065,74,19473,303,1,48423,0.0010000000000000009
124000,3899,-3335,128761,2380,-4169,132581,64,19476,262,1,48424,0.0010000000000000009
125000,6138,6411,129787,-5749,6532,122623,87,19473,356,0,48425,0.0010000000000000009
126000,6662,2905,129844,-4712,-3411,131801,75,19473,356,0,48426,0.0010000000000000009
127000,13712,3336,129679,17327,2509,125111,55,19479,307,0,48427,0.0010000000000000009
128000,4677,4252,130465,-21216,-8105,130450,55,19474,225,1,48428,0.0010000000000000009
129000,19899,-8514,130197,-209,-2137,127384,106,19472,434,1,48429,0.0010000000000000009
130000,-1912,7136,135079,24400,-5127,138752,73,19478,299,1,48430,0.0010000000000000009
131000,1671,-12707,128011,-27716,-12330,131607,72,19471,295,0,48431,0.0010000000000000009
132000,-6285,4206,131995,-21839,5416,123765,93,19471,295,0,48432,0.0010000000000000009
133000,4945,7551,132989,23965,3915,134032,63,19475,381,0,48433,0.0010000000000000009
134000,5224,7074,126846,-19870,6457,117609,63,19480,258,0,48434,0.0009999999999999731
135000,8898,7396,133665,-10920,-176,131130,80,19471,328,1,48435,0.0010000000000000009
136000,6501,-10372,129210,12690,-18711,139080,75,19476,307,1,48436,0.0010000000000000009
137009,1768,-2986,127250,-10188,7789,120507,70,19473,287,1,48437,0.0010090000000000099
138001,-5410,9685,134754,-25147,-3698,136473,89,19473,287,0,48438,0.0009919999999999929
139000,4925,84,127492,698,6182,121465,86,19462,365,0,48439,0.0009989999999999999
140000,-4016,9471,129087,-4769,671,132632,86,19473,352,0,48440,0.0010000000000000009
141000,9818,3181,128762,-13910,4348,120483,58,19474,238,1,48441,0.0010000000000000009
142000,4298,2586,124647,2325,-4066,124984,124,19468,508,1,48442,0.0010000000000000009
143000,4227,3103,127806,646,2479,130845,81,19474,332,1,48443,0.0010000000000000009
144003,2076,2383,125296,-12419,-2675,124860,70,19474,332,0,48444,0.0010030000000000039
145000,3550,7784,128308,-10999,8202,126459,78,19472,287,0,48445,0.0009969999999999979
146000,4757,5744,126690,3639,-1544,125140,78,19473,319,0,48446,0.0010000000000000009
147002,5837,3347,124696,273,3681,122690,69,19482,283,0,48447,0.0010020000000000029
148002,9023,-806,124558,-3914,-4403,127995,66,19468,270,1,48448,0.0010000000000000009
149002,4892,8873,124220,-2475,8372,118029,132,19469,541,1,48449,0.0010000000000000009
150002,5658,5732,124119,536,3720,125311,71,19469,291,1,48450,0.0010000000000000009
151002,11604,6172,125870,-9671,1569,124404,82,19476,291,0,48451,0.0010000000000000009
152000,5567,-2199,123904,11868,-5128,129419,80,19468,336,0,48452,0.0009979999999999989
153000,9174,387,124266,3156,-1182,124064,80,19474,328,0,48453,0.0010000000000000009
154000,10924,4115,124944,-8830,3198,121430,56,19480,229,1,48454,0.0010000000000000009
155000,14070,9654,126358,14000,7381,122301,64,19476,262,1,48455,0.0010000000000000009
156000,7304,371,123038,2692,-2678,125729,86,19476,352,1,48456,0.0010000000000000009
157001,7535,3872,127551,-10063,-348,126019,66,19475,352,1,48457,0.0010010000000000019
158001,9834,-3633,125171,9651,-3831,129465,100,19476,270,0,48458,0.0010000000000000009
159002,6122,7801,127972,7055,5177,124540,100,19473,410,0,48459,0.0010010000000000019
160000,14709,-977,125984,-5449,-3329,128042,70,19477,287,0,48460,0.0009979999999999989
161000,11198,7796,128221,5542,5116,120757,64,19470,262,1,48461,0.0010000000000000009
162000,11521,-5366,126848,5482,-8738,131328,64,19470,262,1,48462,0.0010000000000000009
163000,6936,1482,129357,-1871,-1254,124863,71,19476,262,1,48463,0.0010000000000000009
164000,5464,-6424,128312,-1291,-9873,132694,74,19477,291,0,48464,0.0009999999999999731
165000,5197,4666,129366,-2624,3948,123047,74,19471,303,0,48465,0.0010000000000000009
166000,10179,6545,129386,1736,3646,129744,77,19473,315,0,48466,0.0010000000000000009
167000,9997,5514,128962,10861,3551,124004,57,19483,233,0,48467,0.0010000000000000009
168000,13139,-2393,128872,-16088,-5556,130642,88,19467,360,1,48468,0.0010000000000000009
169000,9045,-5784,132518,4649,-2080,132898,71,19467,360,1,48469,0.0010000000000000009
170000,5529,-5353,130802,13085,-14132,136639,64,19475,291,1,48470,0.0010000000000000009
171000,-4483,-3835,130561,-17412,2138,127010,64,19478,262,0,48471,0.0010000000000000009
172000,2376,12015,132772,-21438,6821,124978,106,19471,434,0,48472,0.0010000000000000009
173000,1146,8796,130243,10307,4437,129104,76,19477,311,0,48473,0.0010000000000000009
174000,10167,4959,130677,-14268,-2824,125491,61,19472,250,1,48474,0.0010000000000000009
175000,4250,-3818,131135,-2493,-9630,133512,77,19472,250,1,48475,0.0010000000000000009
176000,8270,-7403,127724,5325,-2180,129939,75,19476,315,1,48476,0.0010000000000000009
177000,-2848,7447,132873,-11532,2346,129448,75,19478,307,1,48477,0.0010000000000000009
178000,915,-1060,129252,-18092,-1000,130023,72,19469,295,0,48478,0.0010000000000000009
179000,-3864,7899,129552,-5862,5850,124125,113,19468,463,0,48479,0.0010000000000000009
180000,3591,5435,128612,-6155,3615,127709,65,19475,266,0,48480,0.0010000000000000009
181000,9053,3876,128013,1157,-4337,126010,85,19475,266,1,48481,0.0010000000000000009
182000,1037,-1729,125275,-5973,685,125205,75,19458,348,1,48482,0.0010000000000000009
183002,5154,4966,127907,-7078,-250,127910,75,19470,307,1,48483,0.0010020000000000029
184000,1798,5936,126668,-3734,7458,123956,70,19476,287,0,48484,0.0009979999999999989
185000,3747,3736,127214,-5617,-3120,130709,81,19474,332,0,48485,0.0010000000000000009
186001,1897,3768,125199,-6148,6432,119729,81,19479,332,0,48486,0.0010010000000000019
187000,9044,5179,126711,-30,-1594,128368,58,19479,332,0,48487,0.0009989999999999999
188000,8703,1627,124252,6058,4907,120798,121,19479,238,1,48488,0.0010000000000000009
189000,3781,4310,124186,-11517,-3298,125657,121,19457,496,1,48489,0.0010000000000000009
190000,5783,6933,125451,601,8814,122073,80,19477,328,1,48490,0.0010000000000000009
191000,7736,3485,123562,2743,-4246,128420,68,19468,279,0,48491,0.0010000000000000009
192000,7364,2889,124386,-890,5232,122198,83,19470,340,0,48492,0.0010000000000000009
193005,10620,6767,125418,1433,-1527,124502,68,19470,279,0,48493,0.0010049999999999781
194000,12545,-1014,124339,7670,1364,124373,69,19477,279,1,48494,0.0009949999999999959
195000,11754,4354,125702,3401,-1001,123799,80,19476,283,1,48495,0.0010000000000000009
196003,6799,18,125128,-3849,1141,124484,80,19471,328,1,48496,0.0010030000000000039
197001,9548,6026,126600,4872,778,126092,68,19478,279,1,48497,0.0009979999999999989
198000,7521,-2446,125012,3622,-2513,129403,81,19468,332,0,48498,0.0009989999999999999
199001,9677,8201,127955,-2413,3683,123628,81,19468,332,0,48499,0.0010010000000000019
200000,13231,-1914,125614,6841,-1664,126421,57,19478,332,0,48500,0.0009989999999999999
201000,12213,8703,128840,4106,3507,122615,98,19476,233,1,48501,0.0010000000000000009
202000,11677,-9173,125731,748,-12601,132432,98,19476,401,1,48502,0.0010000000000000009
203003,4997,3710,129898,-290,-347,126342,76,19479,311,1,48503,0.0010030000000000039
204002,5642,-3917,128701,1297,-5075,132990,64,19475,262,0,48504,0.0009989999999999999
205000,3584,9750,130553,-5451,6815,122577,81,19475,332,0,48505,0.0009979999999999989
206003,12136,-3164,128195,-1270,-6700,132974,66,19473,332,0,48506,0.0010030000000000039
207001,7297,6122,129734,17664,4871,123601,64,19483,270,0,48507,0.0009979999999999989
208001,11036,-1206,129597,-17632,-6549,130864,64,19469,262,1,48508,0.0010000000000000009
209000,13201,-2954,132402,-6201,-2484,126561,92,19474,377,1,48509,0.0009989999999999999
210000,-1266,2523,132881,25003,-3014,137049,68,19481,279,1,48510,0.0010000000000000009
211000,1993,-12292,127406,-23317,-14629,124689,76,19466,311,0,48511,0.0010000000000000009
212000,-3208,7700,133340,-25074,3875,128496,80,19466,311,0,48512,0.0010000000000000009
213001,4288,6461,130564,22843,3868,130030,58,19477,328,0,48513,0.0010010000000000019
214000,9120,9086,128962,-16781,6152,117482,58,19481,238,1,48514,0.0009989999999999999
215000,4447,4804,134061,-13067,1647,140009,98,19479,401,1,48515,0.0010000000000000009
216000,6815,-14127,125773,11412,-11812,130829,79,19476,324,1,48516,0.0010000000000000009
217000,-4830,7294,131298,-6653,9650,124339,65,19476,266,1,48517,0.0010000000000000009
218000,-223,1966,132383,-25015,-6678,135173,105,19476,266,0,48518,0.0010000000000000009
219000,-315,5074,127829,-1289,9820,120501,78,19466,430,0,48519,0.0010000000000000009
220001,939,5716,129549,-13634,-1316,132854,78,19481,319,0,48520,0.0010010000000000019
221000,9522,6140,128337,-7501,3477,117244,63,19473,258,1,48521,0.0009989999999999999
222000,1530,-1179,124449,8173,-4960,131317,116,19476,475,1,48522,0.0010000000000000009
223000,4816,4439,129088,-8160,542,126901,75,19476,307,1,48523,0.0010000000000000009
224000,865,239,124640,-14403,2418,123980,74,19476,307,0,48524,0.0009999999999999731
225000,6605,12397,129775,-1331,6815,127679,84,19474,303,0,48525,0.0010000000000000009
226000,1991,-954,123543,5358,-1679,123443,84,19473,344,0,48526,0.0010000000000000009
227000,8590,7261,126179,-9329,2594,123884,62,19481,254,0,48527,0.0010000000000000009
228000,9544,-2581,123741,2864,1591,123927,82,19457,336,1,48528,0.0010000000000000009
229002,4017,10038,124798,-1768,3577,122134,91,19477,373,1,48529,0.0010020000000000029
230000,8600,2499,124520,-2060,4262,125136,66,19477,373,1,48530,0.0009979999999999989
231000,5245,6787,125637,625,-2669,126826,97,19472,270,0,48531,0.0010000000000000009
232000,7634,-2235,122449,2842,-1622,125958,97,19469,397,0,48532,0.0010000000000000009
233000,9495,8006,126042,-1749,4051,120822,80,19479,328,0,48533,0.0010000000000000009
234000,14987,4786,125166,10514,1689,124891,57,19476,233,1,48534,0.0010000000000000009
235000,9876,4753,125029,3207,1516,121472,57,19474,233,1,48535,0.0010000000000000009
236000,8873,-720,125759,-8801,-1849,127341,80,19474,328,1,48536,0.0010000000000000009
237000,8464,2145,126551,13140,-2583,128159,68,19479,328,1,48537,0.0010000000000000009
238000,6580,-847,125307,146,816,127217,97,19474,279,0,48538,0.0010000000000000009
239000,9493,6105,128215,-6062,2058,124683,97,19475,397,0,48539,0.0010000000000000009
240000,14044,2356,126564,9702,1494,125495,63,19478,258,0,48540,0.0010000000000000009
241002,12751,5396,128564,4495,-799,124481,76,19469,311,1,48541,0.0010020000000000029
242000,8368,-4171,127256,-2415,-7469,127917,72,19469,295,1,48542,0.0009979999999999989
243000,5327,-3123,128267,4618,-7731,132041,64,19475,295,1,48543,0.0010000000000000009
244001,7899,-1441,128571,-648,-1147,129785,87,19477,262,0,48544,0.0010010000000000019
245001,3519,9068,130405,-9724,6752,123077,87,19475,356,0,48545,0.0010000000000000009
246000,11907,6229,129977,8510,3227,127816,77,19478,315,0,48546,0.0009989999999999999
247000,6133,-2055,128490,8877,-5178,131410,54,19477,221,0,48547,0.0010000000000000009
248011,15416,-3592,130089,-22346,-6652,126133,113,19477,463,1,48548,0.0010109999999999841
249000,6682,71,133745,9622,-681,130878,75,19475,463,1,48549,0.0009890000000000176
250000,4348,-1886,130601,10161,-6906,136167,68,19476,307,1,48550,0.0010000000000000009
251008,-3627,-3138,130326,-27426,-5361,129942,68,19473,279,0,48551,0.0010080000000000089
252000,2268,9930,132752,-12357,7318,123414,101,19477,414,0,48552,0.0009919999999999929
253000,2368,9132,129382,13388,4550,130548,69,19481,283,0,48553,0.0010000000000000009
254001,10472,2170,131225,-13575,-685,123786,70,19468,287,1,48554,0.0010009999999999741
255000,2749,-4554,131223,-6938,-8927,134288,67,19468,287,1,48555,0.0009990000000000276
256011,5954,-8042,126723,4137,-8505,124366,69,19472,274,1,48556,0.0010109999999999841
257002,-4346,12586,133571,-7892,9478,131818,69,19478,283,1,48557,0.0009910000000000196
258000,2724,-1758,128797,-17772,-4577,125615,83,19463,340,0,48558,0.0009979999999999989
259000,-4143,9178,129365,-6389,6827,128386,89,19473,365,0,48559,0.0010000000000000009
260001,7424,2715,129222,-7061,92,126007,59,19477,242,0,48560,0.0010009999999999741
261000,7450,5590,127419,-260,2037,124840,106,19477,242,1,48561,0.0009990000000000276
262003,-414,-630,125622,-1584,2857,126339,78,19461,434,1,48562,0.0010029999999999761
263000,4315,4329,127102,-13264,-1942,127018,78,19472,319,1,48563,0.0009970000000000256
264000,1966,6141,127398,-3173,8403,125727,69,19474,283,0,48564,0.0010000000000000009
265000,5152,3177,126807,-3958,-2638,126915,78,19473,319,0,48565,0.0010000000000000009
266000,2129,4235,125451,-4911,6400,120114,75,19478,307,0,48566,0.0010000000000000009
267000,10407,3596,126727,4709,-5735,130994,61,19478,307,0,48567,0.0010000000000000009
268001,7229,2611,124013,962,8048,117241,151,19468,250,1,48568,0.0010009999999999741
269000,3863,6077,124053,-10513,-553,126638,151,19471,618,1,48569,0.0009989999999999721
270000,6458,9323,126085,3218,7526,121568,75,19478,307,1,48570,0.0010000000000000009
271000,8075,-962,122557,2324,-7533,130690,76,19467,311,0,48571,0.0010000000000000009
272000,7989,4093,125264,-959,6447,120445,83,19473,340,0,48572,0.0010000000000000009
273000,11295,4819,125005,3415,-3641,126169,59,19473,340,0,48573,0.0010000000000000009
274000,13338,3176,125349,8590,5352,121586,71,19477,242,1,48574,0.0010000000000000009
275000,11256,2754,125234,-2416,-4384,125457,71,19481,291,1,48575,0.0010000000000000009
276000,6628,1777,125636,-1976,4067,123642,85,19470,348,1,48576,0.0010000000000000009
277000,7999,3208,125601,8071,-4034,129413,65,19476,266,1,48577,0.0010000000000000009
278000,8077,1519,126338,-1997,4669,124089,97,19472,397,0,48578,0.0010000000000000009
279001,10938,5702,127821,814,-3269,128700,76,19472,397,0,48579,0.0010010000000000296
280000,13583,-485,126530,7856,3892,121771,60,19481,311,0,48580,0.0009989999999999721
281000,11938,6240,128934,1617,-5397,127792,60,19474,246,1,48581,0.0010000000000000009
282000,12075,-7986,126105,64,-6062,128463,79,19476,324,1,48582,0.0010000000000000009
283000,3905,1993,129064,1494,-4540,131298,75,19477,307,1,48583,0.0010000000000000009
284000,8100,-1320,129348,-4085,1206,128819,67,19471,274,0,48584,0.0010000000000000009
285000,1931,9953,130858,-5102,4316,124687,77,19471,315,0,48585,0.0010000000000000009
286000,13439,-2506,128433,8524,-2271,130783,61,19474,315,0,48586,0.0010000000000000009
287000,4192,3779,128699,11382,1819,125440,79,19479,250,0,48587,0.0010000000000000009
288000,16949,-4838,128740,-28373,-9858,131012,79,19466,324,1,48588,0.0010000000000000009
289000,10450,2460,134245,14689,4715,126245,73,19473,299,1,48589,0.0010000000000000009
290000,-44,-1836,130909,12959,-11377,140555,66,19475,270,1,48590,0.0010000000000000009
291000,-1142,-8707,128184,-38803,-7495,128373,92,19475,377,0,48591,0.0010000000000000009
292000,-168,9639,133905,-4091,5322,125575,77,19471,377,0,48592,0.0010000000000000009
293000,4058,5808,127936,18700,2811,133098,58,19478,315,0,48593,0.0010000000000000009
294002,10461,10465,130668,-27226,7371,115638,58,19474,238,1,48594,0.0010020000000000029
295000,4473,767,133308,238,-4932,137568,85,19477,348,1,48595,0.0009979999999999989
296000,6965,-14925,124164,12214,-14808,134019,78,19475,319,1,48596,0.0010000000000000009
297000,-6153,12628,134588,-16982,11441,121693,69,19475,283,1,48597,0.0010000000000000009
298000,3403,-3617,130257,-19602,-8310,137724,119,19472,283,0,48598,0.0010000000000000009
299000,-3360,9069,128954,4675,8646,120034,70,19469,487,0,48599,0.0010000000000000009
300000,4851,2822,129840,-12541,-1046,133217,70,19482,287,0,48600,0.0010000000000000009
301000,7773,8242,127229,-7344,4719,117875,76,19463,311,1,48601,0.0010000000000000009
302001,-610,-1747,124806,7129,-5127,129087,94,19473,385,1,48602,0.0010009999999999741
303000,5223,5943,127868,-10487,2524,127152,72,19476,295,1,48603,0.0009990000000000276
304002,1985,4279,126735,-12495,2214,126642,84,19476,295,0,48604,0.0010020000000000029
305000,6252,6810,128714,2146,4517,127663,82,19473,344,0,48605,0.0009979999999999989
306000,1403,-434,123491,1305,-2693,120205,82,19476,336,0,48606,0.0010000000000000009
307001,11241,6282,126809,-11253,4043,127948,57,19477,233,0,48607,0.0010009999999999741
308000,6703,2794,124025,7316,806,118964,105,19453,430,1,48608,0.0009990000000000276
309000,4970,5787,123831,-4517,-968,126553,83,19474,340,1,48609,0.0010000000000000009
310000,5385,7310,126031,-4909,6612,122292,67,19474,340,1,48610,0.0010000000000000009
311000,7793,1133,123543,2007,-6559,129794,90,19471,274,0,48611,0.0010000000000000009
312000,8060,2014,123992,4859,3281,122041,90,19469,369,0,48612,0.0010000000000000009
313000,11409,6150,126174,-2907,573,124011,70,19477,287,0,48613,0.0010000000000000009
314007,13704,3455,124873,11724,3916,122283,64,19477,262,1,48614,0.0010069999999999801
315000,11441,3187,124717,-7738,-2710,124678,75,19474,307,1,48615,0.0009930000000000216
316000,7201,1814,126730,862,2150,125605,74,19474,307,1,48616,0.0010000000000000009
317000,6613,-1315,124978,10152,-5873,130080,76,19476,303,0,48617,0.0010000000000000009
318000,8791,3336,126535,-8615,4990,124144,76,19467,311,0,48618,0.0010000000000000009
319000,12372,5605,128041,7377,447,126208,82,19473,336,0,48619,0.0010000000000000009
320001,13209,3021,126458,7367,1590,123922,58,19481,238,0,48620,0.0010009999999999741
321000,12540,-291,126902,-3247,-6616,127109,96,19476,393,1,48621,0.0009990000000000276
322000,9985,-157,128266,2373,-2806,128195,73,19476,393,1,48622,0.0010000000000000009
323001,2787,-3645,127979,674,-5945,132735,63,19477,299,1,48623,0.0010009999999999741
324003,7394,3188,129813,-5408,2944,125720,63,19478,258,0,48624,0.0010020000000000029
325002,4681,2880,130067,-2082,1515,126960,84,19473,344,0,48625,0.0009989999999999721
326000,10763,5935,129819,14447,-612,130000,71,19478,291,0,48626,0.0009980000000000544
327001,6783,-2602,129226,-6614,-2507,127049,58,19474,238,1,48627,0.0010009999999999741
328000,17711,2655,131740,-15450,-2317,126707,97,19474,397,1,48628,0.0009989999999999721
329000,2210,-611,132997,17360,-4021,135235,71,19474,397,1,48629,0.0010000000000000009
330001,2924,-5700,129869,-5996,-11342,133961,71,19477,291,1,48630,0.0010010000000000296
331000,-5099,-5980,130346,-28093,-6326,132144,71,19467,291,0,48631,0.0009989999999999721
332000,4032,13137,132303,4952,13013,121171,83,19473,340,0,48632,0.0010000000000000009
333000,3969,8478,128910,-973,2423,130342,61,19480,250,0,48633,0.0010000000000000009
334000,11356,3979,131905,-11190,1853,123898,86,19480,352,1,48634,0.0010000000000000009
335000,2443,-8377,129470,220,-15464,138306,75,19473,352,1,48635,0.0010000000000000009
336000,3699,-2769,128442,-742,2211,125425,65,19478,307,1,48636,0.0010000000000000009
337000,-2968,10311,134175,-12480,2146,130144,65,19478,266,1,48637,0.0010000000000000009
338001,1023,-2638,128284,-12322,-2348,130633,96,19464,393,0,48638,0.0010010000000000296
339000,-4219,9428,129680,-9660,4973,124341,84,19473,344,0,48639,0.0009989999999999721
340001,9061,5865,130010,-7567,4604,126981,61,19473,250,0,48640,0.0010010000000000296
341000,4765,2892,125547,5313,-2108,123945,129,19474,250,1,48641,0.0009989999999999721
342000,1500,1333,126362,-7293,-1122,127573,75,19472,528,1,48642,0.0010000000000000009
343000,4191,2212,126084,-11031,-1630,127122,75,19476,307,1,48643,0.0010000000000000009
344000,3628,9218,128744,741,8196,125113,70,19472,287,0,48644,0.0010000000000000009
345000,4320,1040,126204,-4046,-2128,128278,82,19472,336,0,48645,0.0010000000000000009
346000,2835,5646,126100,-7253,5033,120318,64,19480,262,0,48646,0.0010000000000000009
347000,11787,1380,125365,538,-2487,128841,74,19480,262,0,48647,0.0010000000000000009
348000,6223,7265,124602,5636,6909,119192,128,19460,303,1,48648,0.0010000000000000009
349000,4911,3505,124053,-10271,462,124900,128,19469,524,1,48649,0.0010000000000000009
350000,5939,7009,125490,549,4382,123709,74,19472,303,1,48650,0.0010000000000000009
351000,9140,-2101,122608,3067,-5668,127946,91,19467,373,0,48651,0.0010000000000000009
352001,9511,7233,126274,849,5016,119884,84,19474,344,0,48652,0.0010010000000000296
353002,11821,4353,124379,355,761,125402,58,19474,344,0,48653,0.0010009999999999741
354000,12145,4219,125549,10296,2622,122476,64,19476,238,1,48654,0.0009979999999999989
355000,11368,-787,124345,-430,-3263,126418,64,19477,262,1,48655,0.0010000000000000009
356002,8918,3393,125971,-3259,6305,122724,78,19480,319,1,48656,0.0010020000000000029
357000,5156,2871,125713,9725,-6597,132051,63,19471,258,0,48657,0.0009979999999999989
358000,10184,1638,126735,-2298,7355,120913,94,19473,385,0,48658,0.0010000000000000009
359000,10896,3321,126960,748,-6776,132258,67,19473,385,0,48659,0.0010000000000000009
360001,13669,2300,126777,3384,7431,118606,70,19482,274,0,48660,0.0010009999999999741
361000,9968,5154,129441,1717,-9828,131550,70,19470,287,1,48661,0.0009990000000000276
362000,11203,-8288,126964,2340,-4143,127288,66,19476,270,1,48662,0.0010000000000000009
363000,3790,-1441,127687,-171,-5845,131785,69,19479,283,1,48663,0.0010000000000000009
364000,8284,1350,129304,-6663,4819,126889,78,19473,319,0,48664,0.0010000000000000009
365000,5203,9058,130575,1226,4529,124098,80,19473,319,0,48665,0.0010000000000000009
366000,14046,4144,129627,12990,-21,130197,55,19478,328,0,48666,0.0010000000000000009
367000,4823,-2285,128715,-13001,-5141,127688,55,19479,225,1,48667,0.0010000000000000009
368000,17162,-8244,129130,-7127,-8507,130334,99,19475,405,1,48668,0.0010000000000000009
369000,1807,1481,133507,23003,227,134957,74,19479,303,1,48669,0.0010000000000000009
370023,2467,-7057,127893,-18005,-9559,130753,66,19473,270,1,48670,0.0010229999999999961
371000,-2673,5510,131392,-30771,5421,126440,106,19473,270,0,48671,0.0009770000000000056
372000,5936,7607,131751,21459,3575,130262,73,19469,434,0,48672,0.0010000000000000009
373000,1952,4667,127440,-9478,1342,125930,73,19480,299,0,48673,0.0010000000000000009
374000,12223,4015,133115,-19459,-188,126036,63,19470,258,1,48674,0.0010000000000000009
375000,4447,-6407,130259,12987,-11986,137576,63,19477,258,1,48675,0.0010000000000000009
376000,3179,-3465,127224,-1423,948,127017,76,19477,311,1,48676,0.0010000000000000009
377000,-4947,9904,134468,-25850,2174,128977,77,19477,315,0,48677,0.0010000000000000009
378000,4028,-601,128143,-5987,-632,128308,105,19466,315,0,48678,0.0010000000000000009
379000,-5541,7738,129580,89,1753,128038,61,19471,430,0,48679,0.0010000000000000009
380002,11402,4728,130198,-15329,3493,125027,61,19481,250,0,48680,0.0010020000000000029
381000,1968,2071,125248,3915,-5069,125523,93,19460,381,1,48681,0.0009979999999999989
382000,1621,4008,126038,-2486,3460,125940,78,19475,319,1,48682,0.0010000000000000009
383000,3769,3754,126258,-13202,-1453,126643,68,19475,279,1,48683,0.0010000000000000009
384000,3352,8901,128568,-4276,8025,125092,83,19474,279,0,48684,0.0010000000000000009
385001,3322,966,125949,583,-3713,127618,77,19474,340,0,48685,0.0010009999999999741
386000,5316,5886,126102,-9219,5674,120663,77,19478,315,0,48686,0.0009990000000000276
387000,10323,2723,125638,4014,-2125,128042,57,19475,233,0,48687,0.0009999999999999454
388000,4574,6563,124105,1035,6005,119557,136,19463,557,1,48688,0.0010000000000000009
389002,6476,1437,123479,-11979,-1214,126395,78,19470,319,1,48689,0.0010020000000000029
390000,6538,11833,126457,3920,8550,121302,72,19470,319,0,48690,0.0009979999999999989
391000,8387,-3715,122213,4205,-7171,130097,81,19470,295,0,48691,0.0010000000000000009
392001,10043,6062,126123,-3942,4477,120462,81,19472,332,0,48692,0.0010010000000000296
393000,11903,1521,124704,3082,-1873,126190,62,19479,254,1,48693,0.0009989999999999721
394006,12191,5204,125173,12562,3801,122150,77,19477,315,1,48694,0.0010060000000000069
395000,9746,1020,124583,-7911,-2564,124513,86,19472,352,1,48695,0.0009939999999999949
396000,8418,5337,127232,-1179,3809,124693,68,19472,352,1,48696,0.0010000000000000009
397000,6104,-3352,123658,13374,-5929,130097,90,19475,279,0,48697,0.0010000000000000009
398000,10300,6345,127678,-8896,4100,124651,90,19468,369,0,48698,0.0010000000000000009
399003,14125,2709,127031,4858,151,125411,78,19483,319,0,48699,0.0010030000000000316
400000,11606,4850,127333,9877,2133,125665,60,19476,246,1,48700,0.0009969999999999701
401002,11434,-4162,126786,-3836,-7412,126813,88,19478,360,1,48701,0.0010020000000000029
402000,10168,-75,128921,154,-2725,131912,71,19478,360,1,48702,0.0009979999999999989
403000,4146,-3637,127836,3201,-2022,130485,64,19477,291,1,48703,0.0010000000000000009
404001,4641,5543,130218,-5709,1255,125476,64,19475,262,0,48704,0.0010010000000000296
405001,10062,1225,129264,-2940,3597,125767,78,19476,319,0,48705,0.0010000000000000009
406000,10404,6120,129146,14889,-3091,132520,64,19483,262,0,48706,0.0009989999999999721
407000,9495,-3494,128913,-17608,-403,123799,71,19465,291,1,48707,0.0010000000000000009
408000,12376,2175,132216,6821,-2316,130453,76,19465,291,1,48708,0.0010000000000000009
409000,-199,-5226,130716,10605,-8924,137954,71,19473,311,1,48709,0.0010000000000000009
410000,-551,-8006,128818,-21378,-8053,130586,71,19477,291,0,48710,0.0010000000000000009
411000,-1007,-2338,130248,-13819,2838,128092,87,19468,356,0,48711,0.0010000000000000009
412000,4326,15357,131679,7742,12001,124178,83,19478,340,0,48712,0.0010000000000000009
413000,8112,7653,129963,-12438,2200,125665,59,19474,242,0,48713,0.0010000000000000009
414000,8692,2250,132429,-3109,-7128,131975,100,19474,242,1,48714,0.0010000000000000009
415000,4603,-15126,126748,756,-16233,136084,75,19478,410,1,48715,0.0010000000000000009
416001,-726,7765,132085,-9685,10535,122148,75,19477,307,1,48716,0.0010009999999999741
417000,-610,4124,131921,-11053,-5749,135618,64,19478,262,0,48717,0.0009990000000000276
418001,-2304,3178,128487,-7731,4303,123949,119,19466,487,0,48718,0.0010009999999999741
419000,-1177,7397,129614,-12670,2520,128473,75,19478,307,0,48719,0.0009990000000000276
420002,9043,7102,129606,-1300,3083,123466,71,19478,291,0,48720,0.0010020000000000029
421000,2219,-342,124992,5301,-4373,126855,107,19466,291,1,48721,0.0009979999999999989
422000,3579,3293,127101,-16562,289,127973,72,19472,438,1,48722,0.0010000000000000009
423003,2978,3079,125764,-6398,2545,125216,72,19475,295,0,48723,0.0010029999999999761
424000,4041,9401,128587,-148,3669,128066,77,19475,315,0,48724,0.0009970000000000256
425000,3951,1239,125043,-5228,-137,122883,83,19474,340,0,48725,0.0010000000000000009
426000,5500,7648,126669,-7536,4578,122902,58,19474,238,0,48726,0.0010000000000000009
427001,11499,-653,124134,7243,-2568,128006,93,19478,238,1,48727,0.0010009999999999741
428000,4898,8438,124710,-4502,5150,119025,80,19457,381,1,48728,0.0009990000000000276
429001,6569,3558,124744,-7048,2872,125317,80,19473,328,1,48729,0.0010009999999999741
430000,6356,5131,124195,2423,-1087,125648,69,19473,283,0,48730,0.0009990000000000276
431001,9149,-1445,122983,1240,-2352,127711,87,19470,356,0,48731,0.0010009999999999741
432000,9652,8743,126873,455,6029,120353,73,19470,299,0,48732,0.0009990000000000276
433000,13548,1742,123754,4489,-436,125376,60,19478,299,1,48733,0.0010000000000000009
434000,10138,5627,125438,7928,2901,121968,65,19472,246,1,48734,0.0010000000000000009
435000,9812,-1802,123645,-6326,-4448,126713,65,19473,266,1,48735,0.0010000000000000009
436000,8241,7390,126964,4314,5627,122526,77,19478,315,1,48736,0.0010000000000000009
437002,8269,-3333,124234,5633,-6881,132394,72,19467,295,0,48737,0.0010020000000000029
438000,7805,7855,128507,-2782,7254,121127,83,19470,340,0,48738,0.0009979999999999989
439000,13964,-2595,125771,4395,-6251,132015,60,19470,340,0,48739,0.0010000000000000009
440000,13720,7738,127751,4789,6469,119390,84,19481,246,1,48740,0.0010000000000000009
441000,8959,-2044,127943,571,-7469,129673,84,19476,344,1,48741,0.0010000000000000009
442000,7369,-3991,128223,684,-5127,128639,81,19472,332,1,48742,0.0010000000000000009
443000,2934,-228,129168,1470,-3425,130317,67,19476,274,0,48743,0.0010000000000000009
444000,9281,3445,129026,-6216,1773,129136,88,19473,360,0,48744,0.0010000000000000009
445000,7705,8276,130264,-1813,5372,128139,75,19473,360,0,48745,0.0010000000000000009
446000,11310,1605,130203,15273,-656,130871,56,19478,307,0,48746,0.0010000000000000009
447000,7410,-984,129842,-6518,-3545,127138,56,19473,229,1,48747,0.0009999999999999454
448000,16132,-7791,131163,-18167,-10322,131574,113,19477,463,1,48748,0.0010000000000000009
449001,-1164,7251,133957,24491,-3340,135252,76,19475,311,1,48749,0.0010010000000000296
450000,2484,-8008,128229,-10254,-7278,129358,72,19466,295,0,48750,0.0009989999999999721
451000,-4279,6613,133442,-36058,3481,126896,88,19466,295,0,48751,0.0010000000000000009
452000,5820,4991,131816,18698,1127,132493,65,19470,360,0,48752,0.0010000000000000009
453002,4227,5134,128034,-2511,3901,119341,65,19479,266,1,48753,0.0010020000000000029
454000,9036,6436,134265,-4439,-2692,133385,77,19472,315,1,48754,0.0009979999999999989
455002,6705,-10083,127898,11740,-14033,135767,70,19482,287,1,48755,0.0010020000000000029
456000,608,2098,128671,-14558,10200,121495,66,19476,270,1,48756,0.0009979999999999989
457000,-3625,6406,133231,-21672,-5956,135173,89,19476,270,0,48757,0.0010000000000000009
458000,4550,783,127758,3403,7266,122229,82,19464,365,0,48758,0.0010000000000000009
459000,-2971,4740,128704,-9701,-2364,133123,82,19473,336,0,48759,0.0010000000000000009
460000,10857,6855,129383,-10331,6480,119226,60,19473,246,1,48760,0.0010000000000000009
461000,2442,-36,124133,6656,-6092,128998,122,19468,500,1,48761,0.0010000000000000009
462000,2663,6327,127947,-8265,4238,125998,80,19473,328,1,48762,0.0010000000000000009
463000,2186,789,124678,-13284,-2144,125845,69,19473,328,0,48763,0.0010000000000000009
464002,5471,12501,129395,-1333,7386,126773,82,19475,283,0,48764,0.0010020000000000029
465002,974,-1632,124649,3166,-4790,125945,82,19472,336,0,48765,0.0010000000000000009
466000,7805,8337,126830,-10572,7394,120725,69,19478,283,0,48766,0.0009979999999999989
467000,9080,-2324,124068,5075,-4740,128705,67,19464,274,1,48767,0.0010000000000000009
468000,3872,10404,124770,-2565,8192,118328,120,19472,491,1,48768,0.0010000000000000009
469000,7994,1089,123318,-5458,1723,125799,69,19472,283,1,48769,0.0010000000000000009
470000,6744,10038,126089,1221,2731,124024,83,19477,283,0,48770,0.0010000000000000009
471002,6931,-4132,122217,3747,-4946,128298,83,19466,340,0,48771,0.0010020000000000029
472000,10070,6463,126311,-2165,4721,120800,83,19476,340,0,48772,0.0009979999999999989
473002,12793,2671,124699,7025,-840,126260,57,19478,233,1,48773,0.0010020000000000029
474000,10690,6411,125115,6380,5131,119659,66,19477,270,1,48774,0.0009979999999999989
475001,9632,723,124783,-7857,-2441,126950,78,19477,319,1,48775,0.0010009999999999741
476002,7756,3722,126594,9854,23,125942,63,19478,319,1,48776,0.0010010000000000296
477000,7140,-3059,123974,972,-3512,129023,107,19479,258,0,48777,0.0009979999999999989
478000,9052,6888,128366,-5852,4872,124207,107,19473,438,0,48778,0.0010000000000000009
479000,12673,3585,126782,11816,1215,126477,71,19481,291,0,48779,0.0010000000000000009
480000,12106,3289,127255,940,-313,124041,63,19468,258,1,48780,0.0010000000000000009
481000,9150,-2732,127432,-1379,-5507,127118,62,19473,254,1,48781,0.0010000000000000009
482000,8769,-1959,128322,5795,-6539,131286,68,19473,254,1,48782,0.0010000000000000009
483000,6303,-1738,128601,-2914,-2551,130424,75,19477,279,0,48783,0.0010000000000000009
484000,3239,4389,130557,-6266,969,126391,75,19470,307,0,48784,0.0010000000000000009
485000,12669,3734,129338,2857,2765,125414,79,19476,324,0,48785,0.0010000000000000009
486000,6717,1036,127957,15303,-2572,132529,55,19477,225,0,48786,0.0010000000000000009
487000,13378,-1213,129160,-18745,-2098,124221,90,19469,369,1,48787,0.0010000000000000009
488002,11157,-373,132280,-706,-2691,129027,75,19469,369,1,48788,0.0010020000000000029
489000,2679,-2103,131713,20041,-4707,137161,66,19478,307,1,48789,0.0009979999999999989
490000,-648,-9430,129115,-19639,-13051,132934,66,19474,270,0,48790,0.0010000000000000009
491001,-1585,3625,132519,-20267,1652,128549,107,19472,438,0,48791,0.0010009999999999741
492001,4873,15663,131843,10818,12631,129928,74,19479,303,0,48792,0.0010000000000000009
493000,8445,6255,130822,-11729,3455,121172,60,19471,246,1,48793,0.0009990000000000276
494000,5231,736,132263,-6177,-2665,140036,71,19471,246,1,48794,0.0010000000000000009
495000,4017,-18183,124200,1476,-21956,127130,75,19476,291,1,48795,0.0010000000000000009
496000,-2563,15086,134083,-8120,8510,126711,75,19475,307,1,48796,0.0010000000000000009
497000,842,-2992,129850,-13153,-5514,133555,71,19469,291,0,48797,0.0010000000000000009
498000,-3066,8032,129079,-9359,6870,122591,112,19470,459,0,48798,0.0010000000000000009
499001,4060,2955,129371,-10462,2034,129703,65,19481,266,0,48799,0.0010009999999999741
500000,9412,8470,127913,-4090,-15,121512,86,19481,266,1,48800,0.0009990000000000276
501002,-179,-3154,124577,-1989,-2031,127881,77,19463,352,1,48801,0.0010019999999999474
502002,4986,4369,128470,-16255,-1497,127620,77,19473,315,1,48802,0.0010000000000000009
503016,1435,3133,126122,989,7525,125195,67,19477,274,0,48803,0.0010140000000000704
504000,5164,7695,128421,-3068,-579,129506,83,19473,340,0,48804,0.0009839999999999849
505000,1609,826,124414,-6711,4638,119291,79,19475,324,0,48805,0.0010000000000000009
506000,9786,7880,126929,-511,-764,128035,57,19475,324,0,48806,0.0010000000000000009
507000,9371,-1940,123292,7787,3345,121861,125,19474,233,1,48807,0.0010000000000000009
508000,4756,8075,124626,-11819,510,123598,125,19459,512,1,48808,0.0010000000000000009
509000,4793,6431,125713,1389,8054,123026,80,19472,328,1,48809,0.0010000000000000009
510000,6933,2877,123648,1549,-6855,129385,70,19466,287,0,48810,0.0010000000000000009
511000,7947,474,124213,58,3431,123716,83,19470,340,0,48811,0.0010000000000000009
512002,11301,7890,125762,2409,1143,122541,67,19470,274,0,48812,0.0010019999999999474
513000,12888,2567,124330,8653,4133,122386,70,19478,274,1,48813,0.0009980000000000544
514000,12139,4223,125508,-451,-1620,124022,80,19478,287,1,48814,0.0010000000000000009
515002,7385,-627,125419,-107,935,125710,80,19473,328,1,48815,0.0010019999999999474
516000,7660,3046,125803,5380,-3343,128294,71,19478,291,1,48816,0.0009980000000000544
517000,7278,487,125942,-141,3360,125294,85,19468,348,0,48817,0.0010000000000000009
518000,10025,6068,128079,10,25,127551,77,19468,315,0,48818,0.0010000000000000009
519000,15224,-1500,125245,8361,35,124097,57,19477,315,0,48819,0.0010000000000000009
520002,11895,8666,129193,3097,1582,123286,95,19475,233,1,48820,0.0010019999999999474
521000,12028,-8155,126072,215,-9997,130660,95,19476,389,1,48821,0.0009980000000000544
522000,3181,2053,129181,2778,-2344,128116,76,19477,311,1,48822,0.0010000000000000009
523002,7399,-3052,129365,-2630,-3345,133336,63,19475,258,0,48823,0.0010019999999999474
524000,3048,9805,130695,-6086,7635,122003,80,19475,328,0,48824,0.0009980000000000544
525000,9212,-3010,128064,2054,-6650,132293,65,19472,328,0,48825,0.0010000000000000009
526000,10541,3776,128867,16340,2627,124539,64,19481,266,0,48826,0.0010000000000000009
527002,10295,-3518,128342,-17161,-8283,132477,64,19467,262,1,48827,0.0010019999999999474
528002,15167,874,132277,-4787,2725,123787,87,19477,356,1,48828,0.0010000000000000009
529000,-2872,3206,132618,23176,-4003,138629,69,19477,283,1,48829,0.0009980000000000544
530001,3112,-14160,127014,-23099,-15832,134350,79,19471,324,0,48830,0.0010009999999999186
531002,-4868,4640,133099,-23685,1255,124331,83,19471,324,0,48831,0.0010010000000000296
532001,6721,6757,130501,21097,4598,133020,57,19471,340,0,48832,0.0009989999999999721
533000,8359,11713,129176,-15530,8512,117604,57,19476,233,1,48833,0.0009990000000000832
534000,6475,5916,133749,-12551,2119,129665,98,19479,401,1,48834,0.0010000000000000009
535000,6040,-15597,125133,10113,-19401,140039,75,19475,307,1,48835,0.0010000000000000009
536000,-4564,5927,131472,-6654,5945,120926,66,19475,270,1,48836,0.0009999999999998899
537000,10,509,132874,-24192,-4709,136815,112,19475,270,0,48837,0.0010000000000000009
538000,168,4575,128217,-973,3928,122406,77,19467,459,0,48838,0.0010000000000000009
539002,119,7033,129860,-4414,2999,133566,77,19481,315,0,48839,0.0010020000000000584
540000,8587,6570,127333,-13247,3950,114337,65,19467,266,1,48840,0.0009979999999999434
541000,1062,2633,125191,-1578,-1044,132593,110,19474,451,1,48841,0.0010000000000000009
542002,4247,2296,128841,3213,-196,126923,72,19474,295,1,48842,0.0010020000000000584
543002,1774,1298,125122,-12487,-10,126331,75,19474,295,0,48843,0.0010000000000000009
544000,4991,8465,129317,-10324,7704,125464,85,19470,307,0,48844,0.0009979999999999434
545000,2591,2168,124752,4081,-1095,123211,85,19472,348,0,48845,0.0010000000000000009
546002,9514,5037,125744,-4356,1464,125322,59,19479,242,0,48846,0.0010020000000000584
547000,6042,-813,123904,-1118,1568,123288,85,19457,348,1,48847,0.0009979999999999434
548000,4506,8257,123781,-1490,4902,121445,86,19474,352,1,48848,0.0010000000000000009
549000,5951,7382,124233,596,6276,123753,65,19474,352,1,48849,0.0010000000000000009
550000,10156,4943,125635,-9937,-3630,126803,96,19474,266,0,48850,0.0010000000000000009
551000,9555,-1394,124458,13536,-1672,127439,96,19472,393,0,48851,0.0010000000000000009
552003,6148,2065,125140,3793,-2662,125092,78,19477,319,0,48852,0.0010030000000000872
553002,14009,1412,123599,-6479,4671,119968,58,19471,238,1,48853,0.0009989999999999721
554000,8597,11252,126884,4559,5367,122773,57,19476,233,1,48854,0.0009979999999999434
555000,11609,802,124664,3919,1514,125273,79,19476,324,1,48855,0.0010000000000000009
556000,8109,3170,126471,803,-5276,128453,67,19481,324,1,48856,0.0010000000000000009
557000,7987,-4487,125981,-796,-3585,129593,96,19473,274,0,48857,0.0010000000000000009
558000,7962,3744,127250,9404,2070,123127,96,19474,393,0,48858,0.0010000000000000009
559000,14872,4146,127079,-2487,2903,126239,62,19479,254,0,48859,0.0010000000000000009
560002,14225,7474,128606,2016,685,123421,80,19467,328,1,48860,0.0010020000000000584
561000,7420,-2344,127130,3800,-7298,129847,75,19467,307,1,48861,0.0009979999999999434
562000,4451,-6989,127510,2862,-11052,131546,65,19474,307,1,48862,0.0010000000000000009
563000,5276,1602,129843,-4568,4163,125463,88,19477,266,0,48863,0.0010000000000000009
564000,8812,4534,129676,-5228,1811,131616,88,19474,360,0,48864,0.0010000000000000009
565000,7548,10752,130964,16653,8337,123264,77,19480,315,0,48865,0.0010000000000000009
566000,9541,2062,130777,-10167,-5616,129541,54,19477,221,0,48866,0.0010000000000000009
567000,12318,-8468,129443,-12605,-10837,128579,119,19477,487,1,48867,0.0010000000000000009
568000,5455,-1327,133534,19041,-4453,134623,82,19473,487,1,48868,0.0010000000000000009
569000,1378,-7717,128316,-3463,-9853,135852,69,19478,336,1,48869,0.0010000000000000009
570000,-2477,11809,132556,-35237,10731,120630,69,19471,283,0,48870,0.0010000000000000009
571000,2557,7213,132333,6959,1326,132224,101,19473,414,0,48871,0.0010000000000000009
572000,2287,577,127253,10115,-2939,128690,68,19478,279,0,48872,0.0010000000000000009
573000,9389,-2154,131098,-22673,-4872,126891,71,19469,291,1,48873,0.0010000000000000009
574000,5426,-607,131492,-1749,-2926,131030,70,19469,291,1,48874,0.0010000000000000009
575000,5323,1705,129213,11932,557,129759,72,19469,287,1,48875,0.0010000000000000009
576001,-6194,5656,132186,-20787,1907,129522,72,19477,295,1,48876,0.0010010000000000296
577000,693,1397,128524,-19646,-1569,128714,82,19461,336,0,48877,0.0009989999999999721
578000,-2864,4004,129279,3370,1870,127687,86,19472,352,0,48878,0.0010000000000000009
579000,8946,6797,129956,-7563,4337,126041,59,19475,242,0,48879,0.0010000000000000009
580000,6538,2176,126699,-4002,-1633,124929,108,19475,242,1,48880,0.0010000000000000009
581000,1694,3153,126296,-3184,88,126333,80,19465,442,1,48881,0.0010000000000000009
582000,2602,2631,126330,-5336,-526,126975,80,19476,328,1,48882,0.0010000000000000009
583000,2458,8072,128080,-7395,5535,125091,67,19472,274,0,48883,0.0010000000000000009
584002,3428,396,126466,-4775,-1597,129095,80,19470,328,0,48884,0.0010020000000000584
585002,5643,5599,126571,-4476,3582,124938,72,19478,295,0,48885,0.0010000000000000009
586002,9389,2480,126019,1385,424,125718,61,19478,295,0,48886,0.0010000000000000009
587000,7381,6701,124032,3745,4560,119928,150,19469,250,1,48887,0.0009979999999999434
588000,2719,2013,123072,-10929,-417,124768,150,19470,614,1,48888,0.0010000000000000009
589000,9379,10022,126144,1234,7836,124816,73,19475,299,1,48889,0.0010000000000000009
590002,7339,-1038,123004,4453,-1913,127635,77,19470,315,0,48890,0.0010020000000000584
591000,9284,6992,126088,-1815,2506,121411,84,19476,344,0,48891,0.0009979999999999434
592000,10319,-502,124545,1511,-3321,127228,62,19476,344,0,48892,0.0010000000000000009
593000,14134,5196,125554,9722,3813,121988,69,19480,254,1,48893,0.0010000000000000009
594002,10072,1570,124481,-6990,-1721,124345,69,19475,283,1,48894,0.0010019999999999474
595000,8384,6480,126173,-193,6684,122143,84,19477,344,1,48895,0.0009980000000000544
596000,7293,908,125106,12224,-5938,130957,64,19475,262,1,48896,0.0010000000000000009
597001,9456,1170,126263,-7166,1245,125527,103,19472,422,0,48897,0.0010010000000000296
598001,10635,1994,127545,6236,-2619,127450,74,19472,422,0,48898,0.0010000000000000009
599000,12934,4211,127199,5202,4380,121880,62,19479,303,0,48899,0.0009989999999999721
600000,12822,2953,127574,577,-4769,127699,62,19468,254,1,48900,0.0010000000000000009
601000,10015,-896,127771,548,-4397,128070,77,19475,315,1,48901,0.0010000000000000009
602000,4806,-3466,127807,456,-9461,133950,71,19477,291,1,48902,0.0010000000000000009
603000,5816,1246,129779,-3782,5095,124663,69,19474,283,0,48903,0.0010000000000000009
604000,5680,6897,131126,-2855,-853,129870,79,19474,324,0,48904,0.0010000000000000009
605000,12647,76,128620,9983,3929,124829,58,19476,324,0,48905,0.0010000000000000009
606000,4589,5872,129857,5263,-933,129955,80,19481,238,0,48906,0.0010000000000000009
607000,17165,-6720,128431,-26660,-7885,127562,80,19463,328,1,48907,0.0010000000000000009
608000,7911,6370,135675,19187,3490,128522,72,19473,295,1,48908,0.0010000000000000009
609001,21,-6858,130980,3013,-15832,141896,65,19475,266,1,48909,0.0010010000000000296
610003,-1914,-6250,129359,-35120,-4029,125638,99,19475,405,0,48910,0.0010019999999999474
611002,-566,8961,133960,2232,4900,129366,80,19471,405,0,48911,0.0009989999999999721
612000,4833,10084,127962,10048,7711,126477,59,19477,328,0,48912,0.0009980000000000544
613000,8536,8131,130714,-25053,4940,119647,59,19474,242,1,48913,0.0010000000000000009
614000,4612,-980,132291,3255,-7718,138602,87,19476,356,1,48914,0.0010000000000000009
615000,5696,-15242,124085,9032,-13231,131505,75,19477,307,1,48915,0.0010000000000000009
616000,-5144,14911,135395,-19592,13066,122858,67,19477,274,1,48916,0.0010000000000000009
617000,3676,-5305,129011,-15892,-10253,137325,117,19468,274,0,48917,0.0010000000000000009
618002,-2691,10489,129265,4128,10000,120312,69,19470,479,0,48918,0.0010019999999999474
619000,6475,1371,128966,-13913,-2827,133504,69,19477,283,0,48919,0.0009980000000000544
620000,6117,9166,126746,-6360,6692,114863,79,19462,324,1,48920,0.0010000000000000009
621000,2836,-458,125423,5754,-5277,131964,76,19474,311,1,48921,0.0010000000000000009
622000,3001,4279,127109,-5502,1550,127114,66,19475,270,1,48922,0.0010000000000000009
623000,2313,1889,125939,-13200,334,125567,85,19475,270,0,48923,0.0010000000000000009
624000,5969,10239,129768,-3823,8278,125615,83,19473,348,0,48924,0.0010000000000000009
625000,2193,-717,123758,4539,-3511,124382,83,19477,340,0,48925,0.0010000000000000009
626000,10625,5725,126950,-8807,3608,124120,57,19478,233,0,48926,0.0010000000000000009
627000,4533,1294,123128,1839,-558,124530,111,19456,455,1,48927,0.0010000000000000009
628000,5719,9707,124274,-190,7193,120438,88,19473,360,1,48928,0.0010000000000000009
629000,4540,7044,124632,-275,4428,124057,68,19473,360,1,48929,0.0010000000000000009
630000,12791,2092,124966,-11251,-1662,125856,92,19469,279,0,48930,0.0010000000000000009
631000,10018,34,125202,12501,-2883,127680,92,19469,377,0,48931,0.0010000000000000009
632000,4979,1697,125493,10288,-1158,124218,70,19479,287,0,48932,0.0010000000000000009
633000,13878,1425,123368,-10303,-582,118539,66,19477,270,1,48933,0.0010000000000000009
634005,9340,11198,126682,3376,9685,126771,71,19471,291,1,48934,0.0010049999999999226
635002,11242,3352,125630,6224,1373,123645,68,19471,291,1,48935,0.0009970000000000256
636000,7591,353,125742,3305,-6297,128382,75,19480,279,0,48936,0.0009980000000000544
637000,10226,-3742,126076,-2916,-4571,130219,75,19468,307,0,48937,0.0010000000000000009
638000,9682,2543,127055,9738,3040,123311,79,19477,324,0,48938,0.0010000000000000009
639002,15569,6532,128109,259,6029,124012,56,19480,229,0,48939,0.0010019999999999474
640000,13379,3600,127871,1153,-2319,125216,100,19477,410,1,48940,0.0009980000000000544
641000,8764,-3966,126335,-1962,-10185,132308,78,19477,410,1,48941,0.0010000000000000009
642000,4379,-7219,127671,-602,-7715,131324,61,19475,319,1,48942,0.0010000000000000009
643001,3997,3399,129253,-3026,6195,123292,61,19478,250,0,48943,0.0010009999999999186
644000,13994,8943,130756,166,3801,128532,84,19472,344,0,48944,0.0009990000000000832
645000,5107,7677,130465,15623,3321,127578,68,19481,279,0,48945,0.0010000000000000009
646000,11620,-2389,129378,-18014,-12351,130750,59,19472,242,1,48946,0.0010000000000000009
647000,8830,-8611,129669,1888,-4643,127939,98,19472,401,1,48947,0.0010000000000000009
648000,4015,2683,133849,14862,-5945,136191,71,19473,401,1,48948,0.0010000000000000009
649000,1059,-10082,127707,-16679,-6605,131953,76,19477,291,1,48949,0.0010000000000000009
650002,-1076,9233,132817,-20750,8027,124566,76,19463,311,0,48950,0.0010019999999999474
651000,1042,7209,130365,10331,3499,131332,84,19476,344,0,48951,0.0009980000000000544
652000,5439,5635,129000,-8404,2383,122168,60,19480,246,0,48952,0.0010000000000000009
653000,8119,663,132496,-8514,-5488,133141,87,19480,356,1,48953,0.0010000000000000009
654000,6417,-10442,128465,532,-11348,133236,88,19469,356,1,48954,0.0010000000000000009
655000,197,8308,131922,-1025,8945,125215,72,19471,360,1,48955,0.0009999999999998899
656001,-2006,2549,131819,-20380,-3503,132979,72,19476,295,1,48956,0.0010010000000000296
657000,-721,4152,128699,-8690,2800,124682,104,19460,426,0,48957,0.0009989999999999721
658000,-1275,2534,129814,-6851,-870,131155,83,19476,340,0,48958,0.0010000000000000009
659002,9575,6708,129809,-5300,4001,123807,62,19476,254,0,48959,0.0010020000000000584
660001,2974,828,125471,1336,-1534,124907,122,19472,254,1,48960,0.0009989999999999721
661000,4126,7937,127246,-9335,2211,127194,74,19473,500,1,48961,0.0009989999999999721
662000,2793,-1,124697,-4627,-581,125877,74,19476,303,1,48962,0.0010000000000000009
663000,4776,10430,128962,-4975,4891,127636,69,19475,283,0,48963,0.0010000000000000009
664001,3106,-363,125688,-3952,-454,124221,83,19470,340,0,48964,0.0010010000000000296
665000,6193,8221,127210,-4873,4074,123201,62,19482,254,0,48965,0.0009989999999999721
666000,9652,-2443,124800,4412,-3610,129862,76,19482,254,0,48966,0.0010000000000000009
667000,6818,8449,124185,-2225,5464,117678,103,19457,311,1,48967,0.0010000000000000009
668000,4634,2889,123876,-6941,2819,125704,103,19471,422,1,48968,0.0010000000000000009
669000,8351,9976,125298,2689,4583,122042,66,19475,270,0,48969,0.0010000000000000009
670000,7369,-4085,122464,746,-5762,129909,94,19470,385,0,48970,0.0010000000000000009
671003,10783,9061,127064,-538,6204,120188,79,19476,324,0,48971,0.0010030000000000872
672001,10272,-915,123395,5060,-3227,126532,56,19476,324,0,48972,0.0009979999999999434
673000,12913,7565,125812,5934,5137,120913,59,19479,229,1,48973,0.0009989999999999721
674000,10121,-2056,123762,-1670,-4750,126366,59,19472,242,1,48974,0.0010000000000000009
675000,8752,6906,126242,-527,5012,122843,79,19481,324,1,48975,0.0010000000000000009
676000,6172,-2379,124631,8668,-5122,130167,66,19474,270,0,48976,0.0010000000000000009
677000,9923,6596,127814,-5081,3926,123783,100,19474,410,0,48977,0.0010000000000000009
678000,12291,-1459,125818,6126,-4105,128629,65,19474,410,0,48978,0.0010000000000000009
679001,11289,7938,127952,4627,5326,122640,72,19479,266,1,48979,0.0010010000000000296
680000,12321,-3012,126416,-1160,-6211,128099,72,19469,295,1,48980,0.0009989999999999721
681002,8846,420,128700,3138,-1908,129718,67,19471,274,1,48981,0.0010020000000000584
682000,6195,-6124,127564,-451,-9270,132736,66,19476,270,1,48982,0.0009979999999999434
683000,4869,5801,130851,-3091,6424,123940,82,19475,336,0,48983,0.0010000000000000009
684000,9286,68,128847,-3666,-4270,130309,79,19475,336,0,48984,0.0010000000000000009
685000,10099,7624,130547,14062,6208,125345,54,19479,324,0,48985,0.0010000000000000009
686000,8145,-1395,129623,-3829,-11459,132851,54,19478,221,1,48986,0.0010000000000000009
687000,16314,-4536,130242,-18446,3613,123187,107,19469,438,1,48987,0.0010000000000000009
688000,230,5552,134054,16664,-8717,141426,78,19475,319,1,48988,0.0010000000000000009
689000,1474,-13311,127788,-23174,-9921,129325,67,19470,274,1,48989,0.0010000000000000009
690000,-2133,3924,132230,-18623,1669,128431,104,19470,274,0,48990,0.0010000000000000009
691000,3952,5563,131677,15749,5021,130321,70,19469,426,0,48991,0.0010000000000000009
692000,6242,13056,128829,-15765,8060,119070,70,19479,287,0,48992,0.0010000000000000009
693000,7753,3822,133869,-8658,-4240,132838,68,19473,279,1,48993,0.0010000000000000009
694000,5912,-9639,128336,8032,-15821,135897,65,19473,266,1,48994,0.0010000000000000009
695003,-1446,-1561,129195,-8031,4541,124946,71,19481,291,1,48995,0.0010029999999999761
696000,-3382,8866,134351,-21809,-273,132234,77,19481,315,0,48996,0.0009970000000000256
697000,2224,266,127853,-1648,2370,125371,93,19464,315,0,48997,0.0010000000000000009
698000,-3457,8731,129703,-6397,3006,130049,61,19472,381,0,48998,0.0010000000000000009
699002,10818,2495,128408,-13328,2247,122036,61,19476,250,0,48999,0.0010020000000000584
700000,3075,3984,125194,3676,-1085,123994,101,19464,414,1,49000,0.0009979999999999434
701000,4451,2487,127205,-1847,342,130854,88,19472,360,1,49001,0.0010000000000000009
702003,1374,1484,125009,-11905,-1288,125447,69,19472,283,0,49002,0.0010029999999999761
703002,3155,7914,128732,-11060,7210,125816,78,19473,283,0,49003,0.0009990000000000832
704001,6048,4799,126225,1620,-464,124559,76,19473,319,0,49004,0.0009989999999999721
705000,5006,3781,125149,1778,2226,123957,76,19479,311,0,49005,0.0009989999999999721
706000,9173,-472,124586,-4496,-3556,126691,60,19475,246,1,49006,0.0010000000000000009
707000,5669,7763,123794,-2199,6628,118988,149,19472,610,1,49007,0.0010000000000000009
708000,5670,6912,124491,-2735,5378,124507,76,19478,311,1,49008,0.0010000000000000009
709000,10424,6745,125513,-4634,2320,124260,73,19478,311,0,49009,0.0010000000000000009
710000,5522,-4218,123351,7614,-7648,130845,81,19470,299,0,49010,0.0010000000000000009
711000,9608,2200,124927,1591,124,122360,81,19474,332,0,49011,0.0010000000000000009
712000,10408,4410,124848,-5008,3861,122121,61,19480,250,1,49012,0.0010000000000000009
713000,14453,10096,126202,13526,6020,122082,76,19480,311,1,49013,0.0010000000000000009
714000,7582,-647,122852,-997,-3374,125338,80,19472,328,1,49014,0.0010000000000000009
715000,9672,5391,127626,-8995,2806,124679,64,19472,328,1,49015,0.0010000000000000009
716000,7194,-5523,124484,13586,-7114,130716,94,19477,262,0,49016,0.0010000000000000009
717001,7825,6760,127883,1629,4757,124491,94,19467,385,0,49017,0.0010010000000000296
718000,14413,-1755,126296,-4292,-3647,128255,77,19476,315,0,49018,0.0009989999999999721
719000,11562,9620,128258,6234,7012,121172,61,19474,250,1,49019,0.0010000000000000009
720000,11961,-4287,126888,4653,-7610,130228,89,19476,365,1,49020,0.0010000000000000009
721000,6272,1939,129906,-3725,-630,124651,74,19476,365,1,49021,0.0010000000000000009
722000,5288,-10481,127216,1782,-13918,138206,67,19478,303,1,49022,0.0010000000000000009
723000,6729,8206,130445,-2843,6993,121159,67,19474,274,0,49023,0.0010000000000000009
724000,9905,4332,129422,-1267,1365,129962,77,19473,315,0,49024,0.0010000000000000009
725000,10101,8153,129645,12746,6231,125461,59,19483,242,0,49025,0.0010000000000000009
726000,10428,-4174,129206,-12895,-6924,131122,73,19469,299,1,49026,0.0010000000000000009
727000,11025,-5895,132090,-3389,-8450,130582,67,19469,299,1,49027,0.0010000000000000009
728000,3523,-2042,132177,15890,-4877,138709,67,19474,274,1,49028,0.0010000000000000009
729000,-2100,-7583,129415,-12416,-11702,127386,67,19477,274,0,49029,0.0010000000000000009
730001,709,11251,132752,-24862,7274,125021,91,19465,373,0,49030,0.0010010000000000296
731000,3213,10003,131057,7732,5654,129382,82,19475,336,0,49031,0.0009989999999999721
732000,7893,5443,129687,-3300,-1428,123769,58,19480,238,0,49032,0.0010000000000000009
733000,5688,-3360,131303,-11820,-9807,134587,92,19480,238,1,49033,0.0010000000000000009
734000,8364,-8969,128351,1301,-6275,131074,76,19474,377,1,49034,0.0010000000000000009
735000,-286,5673,131782,-8049,5355,127794,76,19475,311,1,49035,0.0010000000000000009
736001,-380,1102,130117,-18609,-2887,131628,69,19475,283,0,49036,0.0010010000000000296
737001,-756,6581,128683,-7376,7046,122337,123,19468,504,0,49037,0.0010000000000000009
738000,222,6054,128633,-6363,2040,130151,71,19478,291,0,49038,0.0009989999999999721
739000,10547,4608,128131,883,-1482,124059,72,19478,295,1,49039,0.0010000000000000009
740000,990,-1249,125223,-4700,-2393,126369,104,19466,295,1,49040,0.0010000000000000009
741000,4467,5588,127546,-9664,941,127415,76,19469,426,1,49041,0.0010000000000000009
742000,2295,4502,126164,-3238,4530,124590,76,19475,311,0,49042,0.0010000000000000009
743002,4152,6662,127875,-5589,-1056,130372,84,19473,344,0,49043,0.0010019999999999474
744000,2235,2120,125036,-4477,3915,119988,86,19473,352,0,49044,0.0009980000000000544
745000,8168,6590,126680,-2360,1147,126343,58,19473,238,0,49045,0.0010000000000000009
746000,8709,131,124500,7005,382,124559,101,19476,238,1,49046,0.0010000000000000009
747000,3840,6428,124183,-9769,846,122326,89,19454,414,1,49047,0.0010000000000000009
748000,5680,5090,125052,-3031,7302,123432,89,19469,365,1,49048,0.0010000000000000009
749000,8166,7039,124050,3364,-1746,126101,67,19469,274,0,49049,0.0010000000000000009
750001,7664,854,123370,1480,2146,124291,90,19468,369,0,49050,0.0010009999999999186
751000,11144,5860,125446,-13,27,122722,74,19468,303,0,49051,0.0009990000000000832
752000,12619,343,124483,6530,467,124811,64,19477,303,1,49052,0.0010000000000000009
753000,11668,4162,126040,6286,-150,124003,70,19475,262,1,49053,0.0010000000000000009
754000,7064,-1242,124576,-4516,-247,124825,70,19469,287,1,49054,0.0010000000000000009
755000,9309,6643,126495,2672,1971,125582,71,19480,291,1,49055,0.0010000000000000009
756000,7914,-1010,124875,5781,-1959,128656,70,19469,287,0,49056,0.0010000000000000009
757000,8562,7365,127687,-2142,4514,123264,84,19476,344,0,49057,0.0010000000000000009
758002,14330,-1379,125873,4941,-3057,128144,59,19476,344,0,49058,0.0010019999999999474
759001,12360,8040,128583,5730,3843,122106,94,19478,242,1,49059,0.0009989999999999721
760000,11203,-7171,126880,106,-10979,131703,94,19477,385,1,49060,0.0009990000000000832
761000,5868,1911,129981,330,-892,126416,75,19476,307,1,49061,0.0010000000000000009
762000,4753,-3645,128826,1367,-6368,133770,61,19476,250,0,49062,0.0010000000000000009
763000,6127,8185,130561,-6278,6283,123350,86,19477,352,0,49063,0.0010000000000000009
764002,9129,-1907,128444,-693,-5250,131133,72,19477,352,0,49064,0.0010019999999999474
765000,9534,6477,129817,15179,4798,125222,60,19479,295,0,49065,0.0009980000000000544
766000,8692,-1944,129257,-14006,-5718,130337,60,19473,246,1,49066,0.0010000000000000009
767000,14675,-997,132347,-9064,-1634,126442,104,19475,426,1,49067,0.0010000000000000009
768000,-626,1443,132817,23565,-2910,137229,70,19476,287,1,49068,0.0010000000000000009
769000,2134,-11761,127975,-16644,-14282,133240,68,19466,279,0,49069,0.0010000000000000009
770000,-3550,5523,133001,-29572,2005,126111,82,19466,279,0,49070,0.0010000000000000009
771002,5150,8096,131443,20032,5969,131004,61,19472,336,0,49071,0.0010019999999999474
772002,7111,9418,128840,-11796,6278,119306,61,19478,250,1,49072,0.0010000000000000009
773000,6233,3656,133536,-16458,1098,136951,84,19472,344,1,49073,0.0009980000000000544
774002,7083,-11995,126481,10325,-15629,133025,73,19476,299,1,49074,0.0010019999999999474
775000,-2392,4631,130527,-2269,2019,122636,66,19477,270,1,49075,0.0009979999999999434
776000,-1119,3568,132463,-25021,494,136044,93,19477,270,0,49076,0.0010000000000000009
777000,430,4321,128080,-4342,10430,120256,81,19464,381,0,49077,0.0010000000000000009
778000,-1283,5988,129093,-2891,-2156,133086,81,19474,332,0,49078,0.0010000000000000009
779001,9742,6901,128843,-15420,4843,117497,61,19472,250,1,49079,0.0010010000000000296
780001,2296,-1508,124237,2164,-7797,131166,133,19473,545,1,49080,0.0010000000000000009
781000,4567,3974,128678,-8171,2929,126119,77,19476,315,1,49081,0.0009989999999999721
782000,1379,1275,124724,-14133,1963,124240,69,19476,315,0,49082,0.0010000000000000009
783000,6355,11960,129543,-994,6290,127982,82,19472,283,0,49083,0.0010000000000000009
784000,891,-1146,123409,4227,-2145,124109,82,19471,336,0,49084,0.0010000000000000009
785000,7592,7700,126212,-10687,4169,122683,66,19479,270,0,49085,0.0010000000000000009
786000,9909,-1926,123709,3940,-147,125026,71,19462,291,1,49086,0.0010000000000000009
787000,4215,10960,125324,-1666,4729,121285,128,19468,524,1,49087,0.0010000000000000009
788000,7692,1474,124069,-2698,3282,125489,74,19468,303,1,49088,0.0010000000000000009
789001,5726,7070,125481,-338,-2279,125992,91,19473,303,0,49089,0.0010010000000000296
790000,7530,-1939,122429,3154,-1984,126541,82,19467,373,0,49090,0.0009989999999999721
791001,10502,8182,126215,-694,5797,119734,82,19477,336,0,49091,0.0010010000000000296
792000,13582,3564,124873,8590,-68,126092,56,19473,229,1,49092,0.0009989999999999721
793001,9784,4216,125300,4119,1857,121426,64,19475,262,1,49093,0.0010010000000000296
794000,9559,-748,125457,-7761,-1701,127160,80,19475,328,1,49094,0.0009989999999999721
795000,7382,3872,126904,13164,-597,126758,64,19478,328,1,49095,0.0010000000000000009
796000,7202,-1076,124634,-936,-659,127899,97,19472,262,0,49096,0.0010000000000000009
797000,9505,5780,128316,-6075,2882,124889,97,19472,397,0,49097,0.0010000000000000009
798001,14072,3621,127041,11621,1895,125245,68,19480,279,0,49098,0.0010010000000000296
799000,12305,4309,128059,3718,-1448,125196,69,19469,283,1,49099,0.0009989999999999721
800000,9473,-5317,127253,-3187,-7485,127978,64,19475,262,1,49100,0.0010000000000000009
801000,6191,-2846,128427,5206,-7296,132294,66,19475,262,1,49101,0.0010000000000000009
802001,7436,-1185,128372,-1221,-917,129543,76,19476,270,0,49102,0.0010010000000000296
803001,3279,7570,130438,-9233,5159,123157,76,19472,311,0,49103,0.0010000000000000009
804000,11837,6346,130235,5947,4435,127600,80,19474,328,0,49104,0.0009989999999999721
805000,5931,-3279,127854,12507,-6794,132951,56,19478,229,0,49105,0.0010000000000000009
806002,15005,-1136,130057,-22366,-2615,124511,97,19470,397,1,49106,0.0010020000000000584
807000,8631,-4,133579,6336,-1499,130513,73,19470,397,1,49107,0.0009979999999999434
808000,4313,-705,131143,13908,-4970,135698,64,19475,299,1,49108,0.0010000000000000009
809000,-2161,-5543,130492,-23669,-8849,131901,64,19474,262,0,49109,0.0010000000000000009
810000,719,7620,132396,-16889,5530,124281,108,19469,442,0,49110,0.0010000000000000009
811000,2654,12179,130703,12426,8017,128066,71,19479,291,0,49111,0.0010000000000000009
812000,9248,2918,131041,-12025,11,125249,63,19467,258,1,49112,0.0010000000000000009
813002,3040,-2035,131156,-6283,-5972,132072,64,19467,258,1,49113,0.0010020000000000584
814002,5503,-11846,125784,1413,-13420,135444,73,19473,262,1,49114,0.0010000000000000009
815000,-2843,14181,133678,-6293,12050,121161,73,19475,299,1,49115,0.0009979999999999434
816002,2082,-3565,128690,-14399,-6647,136085,75,19467,307,0,49116,0.0010020000000000584
817001,-3282,8848,129762,-9597,6823,121792,107,19473,438,0,49117,0.0009989999999999721
818001,6365,2051,128347,-8672,-688,131646,63,19479,258,0,49118,0.0010000000000000009
819000,8355,8049,128123,157,5198,124239,92,19479,258,1,49119,0.0009989999999999721
820000,9,-3515,124283,1182,-6924,126340,77,19463,377,1,49120,0.0010000000000000009
821000,5269,5274,127912,-15116,2720,127766,77,19470,315,1,49121,0.0010000000000000009
822001,1907,3772,126659,-3335,357,124920,69,19473,283,0,49122,0.0010010000000000296
823002,5684,6660,127535,-2832,4805,127371,81,19469,332,0,49123,0.0010010000000000296
824000,536,2846,125083,-4480,5474,120385,80,19477,328,0,49124,0.0009979999999999434
825000,10624,5251,126722,-6667,-4518,130023,59,19477,328,0,49125,0.0010000000000000009
826000,7208,666,123585,9280,6501,119119,136,19475,242,1,49126,0.0010000000000000009
827000,4549,8078,124890,-8028,156,125284,136,19461,557,1,49127,0.0010000000000000009
828000,5970,6778,125547,1788,7361,122233,80,19471,328,1,49128,0.0010000000000000009
829000,8133,1090,123424,3007,-7456,130406,71,19467,291,0,49129,0.0010000000000000009
830000,7622,2518,124697,-470,6589,121307,79,19467,324,0,49130,0.0010000000000000009
831000,10946,5891,125312,2003,-1828,124830,62,19467,254,0,49131,0.0010000000000000009
832000,12661,3484,125262,8713,5208,122035,75,19478,254,1,49132,0.0010000000000000009
833000,12113,2794,125467,-787,-4089,125570,81,19478,307,1,49133,0.0010000000000000009
834001,7327,6,125671,-956,3203,124323,81,19470,332,1,49134,0.0010010000000000296
835000,8889,3256,125926,6688,-3903,129210,69,19477,283,1,49135,0.0009989999999999721
836000,8312,902,125857,-1113,4929,124295,88,19467,360,0,49136,0.0010000000000000009
837000,10234,7291,128423,1269,-1734,128380,77,19467,315,0,49137,0.0010000000000000009
838000,14264,-1764,125514,6658,1637,123006,58,19475,315,0,49138,0.0010000000000000009
839000,11543,7421,129410,2474,-2519,126229,93,19472,238,1,49139,0.0010000000000000009
840000,11639,-8838,125970,545,-8187,129411,93,19476,381,1,49140,0.0010000000000000009
841000,3864,2436,128827,1327,-3519,129718,77,19478,315,1,49141,0.0010000000000000009
842000,7534,-1964,129183,-3021,-20,130617,66,19474,270,0,49142,0.0010000000000000009
843000,2488,11344,130962,-5994,6994,122900,80,19474,328,0,49143,0.0010000000000000009
844000,11706,-2642,128280,5504,-4702,132189,64,19474,328,0,49144,0.0010000000000000009
845000,5582,2229,128558,15417,594,125869,67,19479,262,0,49145,0.0010000000000000009
846000,13709,-4509,128780,-27224,-9488,130927,67,19464,274,1,49146,0.0010000000000000009
847000,12822,384,133484,8156,4512,125990,77,19475,315,1,49147,0.0010000000000000009
848000,-1076,3116,132000,18841,-6634,138683,69,19478,283,1,49148,0.0010000000000000009
849000,849,-12513,127384,-35781,-11384,130868,83,19467,340,0,49149,0.0010000000000000009
850000,-2143,9024,133792,-11557,5534,124174,80,19467,340,0,49150,0.0010000000000000009
851000,4699,5256,128825,22835,1560,134436,57,19478,328,0,49151,0.0010000000000000009
852002,9852,9736,129747,-25054,7670,115434,57,19478,233,1,49152,0.0010019999999999474
853001,4761,2733,133333,-5409,-2446,135054,97,19476,397,1,49153,0.0009990000000000832
854000,6711,-14272,124579,13590,-15959,136196,80,19476,328,1,49154,0.0009989999999999721
855001,-5693,10653,133105,-13459,10297,120215,67,19473,274,1,49155,0.0010010000000000296
856000,1398,-1139,131516,-22570,-6878,137992,117,19473,274,0,49156,0.0009989999999999721
857000,-1145,6270,128405,3847,6088,120297,75,19472,479,0,49157,0.0010000000000000009
858000,1895,3150,129575,-9137,-990,133896,75,19479,307,0,49158,0.0010000000000000009
859000,9155,8939,127666,-11060,6345,117522,68,19468,279,1,49159,0.0010000000000000009
860000,-424,-1092,124136,6369,-5236,127847,109,19471,446,1,49160,0.0010000000000000009
861000,4569,5188,128020,-6320,2217,128535,75,19479,307,1,49161,0.0010000000000000009
862000,1786,2000,125850,-14768,-405,124419,79,19479,307,0,49162,0.0010000000000000009
863000,6687,8474,129495,-1064,6487,129083,86,19474,324,0,49163,0.0010000000000000009
864002,527,-1169,123641,4844,-3609,124533,86,19473,352,0,49164,0.0010019999999999474
865000,10692,6416,126671,-12371,4384,121913,62,19476,254,0,49165,0.0009980000000000544
866000,7267,1607,124129,4760,-746,120457,89,19456,365,1,49166,0.0010000000000000009
867000,5123,8054,124377,-1070,5761,125337,78,19474,319,1,49167,0.0010000000000000009
868000,6085,4680,125637,-5192,2208,123320,65,19474,319,1,49168,0.0010000000000000009
869000,7129,2583,124735,-206,60,129736,96,19477,266,0,49169,0.0010000000000000009
870001,7127,612,123535,5658,2803,123426,96,19468,393,0,49170,0.0010009999999999186
871002,10787,6502,126185,-2097,2671,122649,77,19479,315,0,49171,0.0010010000000000296
872000,13976,4588,124953,6020,3234,122779,60,19470,246,1,49172,0.0009980000000000544
873002,11554,4016,125268,6153,-2505,124444,59,19473,242,1,49173,0.0010019999999999474
874000,7472,-277,126447,-6228,808,126342,76,19473,311,1,49174,0.0009980000000000544
875000,6955,-613,125666,10107,-7131,130654,69,19478,311,1,49175,0.0010000000000000009
876000,8057,2789,126393,-7125,6128,123815,93,19473,283,0,49176,0.0010000000000000009
877001,10433,7061,128392,3587,1181,126311,93,19473,381,0,49177,0.0010009999999999186
878002,13374,3102,126378,7727,2315,123690,62,19481,254,0,49178,0.0010010000000000296
879002,12215,1458,127077,-2666,-6476,126845,83,19472,340,1,49179,0.0010000000000000009
880000,9830,-2129,127942,2525,-3191,127806,73,19472,299,1,49180,0.0009980000000000544
881000,3701,-3382,128168,3939,-7521,133125,65,19474,299,1,49181,0.0010000000000000009
882000,8931,1626,129551,-7037,2791,126945,87,19480,266,0,49182,0.0010000000000000009
883004,3066,4614,130185,-3474,1281,126824,87,19473,356,0,49183,0.0010040000000000049
884000,10728,6592,130010,13627,2945,127341,77,19479,315,0,49184,0.0009959999999999969
885000,5942,-1917,128630,-3418,-5037,129392,56,19476,229,0,49185,0.0010000000000000009
886000,18038,541,130827,-19198,-2306,124838,112,19476,459,1,49186,0.0010000000000000009
887000,5262,588,133627,17494,-2492,134226,74,19474,459,1,49187,0.0010000000000000009
888001,4216,-4471,130201,-2232,-10026,134316,70,19475,303,1,49188,0.0010009999999999186
889000,-4672,-4985,130615,-29701,-7427,131882,70,19473,287,0,49189,0.0009990000000000832
890000,2765,10111,132297,3329,10402,122309,95,19471,389,0,49190,0.0010000000000000009
891000,3409,9615,128617,2208,2888,130259,64,19480,262,0,49191,0.0010000000000000009
892002,10689,3750,131862,-13337,1837,122893,75,19473,307,1,49192,0.0010019999999999474
893000,2467,-6077,130304,1027,-13178,137282,73,19473,307,1,49193,0.0009979999999999434
894000,3986,-7433,126923,788,-2723,128331,68,19474,299,1,49194,0.0010000000000000009
895000,-3342,13770,134632,-13073,6963,126078,68,19474,279,1,49195,0.0010000000000000009
896000,3003,-3466,128216,-12386,-4379,133025,86,19465,352,0,49196,0.0010000000000000009
897000,-4261,9302,129491,-7121,5672,122994,88,19475,360,0,49197,0.0010000000000000009
898000,9360,3992,129588,-8781,2233,128500,60,19473,246,0,49198,0.0010000000000000009
899000,5468,4201,125907,3512,-959,123124,117,19473,246,1,49199,0.0010000000000000009
900000,60,222,126038,-3251,-2292,127566,79,19464,479,1,49200,0.0010000000000000009
901000,4496,3493,126756,-13987,-847,127273,79,19473,324,1,49201,0.0010000000000000009
902000,2949,8679,128627,-432,7517,125149,69,19473,283,0,49202,0.0010000000000000009
903000,4528,2109,126791,-1416,-1300,128902,76,19470,311,0,49203,0.0010000000000000009
904000,3533,4290,125639,-6808,3404,120835,71,19479,291,0,49204,0.0010000000000000009
905000,11214,3725,126281,-1325,112,126865,67,19479,291,0,49205,0.0010000000000000009
906000,6043,5310,124467,6918,4567,121817,141,19470,274,1,49206,0.0010000000000000009
907000,5205,3794,124046,-10520,620,123906,141,19468,577,1,49207,0.0010000000000000009
908000,5214,8901,126562,489,6547,123147,73,19477,299,1,49208,0.0010000000000000009
909001,8732,-3177,122631,2370,-6560,129949,83,19468,340,0,49209,0.0010010000000000296
910000,8925,6197,126019,1928,3814,122996,82,19471,336,0,49210,0.0009989999999999721
911000,11856,4383,124728,-736,1200,123053,59,19471,336,0,49211,0.0010000000000000009
912000,13158,5948,125500,10030,4180,122495,64,19476,242,1,49212,0.0010000000000000009
913000,11551,603,124605,1600,-1395,127940,64,19476,262,1,49213,0.0010000000000000009
914000,8281,1697,125904,-4462,-439,122675,86,19472,352,1,49214,0.0010000000000000009
915000,5795,1261,125464,8643,-839,132331,66,19475,270,1,49215,0.0010000000000000009
916000,9823,3621,127149,-231,400,120130,103,19469,422,0,49216,0.0010000000000000009
917001,11251,5095,127399,-684,-6177,131671,71,19469,422,0,49217,0.0010010000000000296
918002,14018,1113,126209,6228,5892,119461,63,19477,291,0,49218,0.0010010000000000296
919001,9625,5156,129144,4071,-9684,130992,63,19469,258,1,49219,0.0009989999999999721
920000,11988,-8596,126300,1159,-4699,127136,71,19475,291,1,49220,0.0009989999999999721
921000,2858,953,128354,1678,-3988,130727,73,19476,299,1,49221,0.0010000000000000009
922000,9562,1213,128734,-4755,3013,128365,72,19469,295,0,49222,0.0010000000000000009
923001,3692,9539,130780,-2636,7060,123384,77,19469,315,0,49223,0.0010010000000000296
924000,14186,2288,129499,13930,-2879,131549,57,19475,315,0,49224,0.0009989999999999721
925000,2872,-488,128676,-5559,-2253,125336,85,19479,233,1,49225,0.0010000000000000009
926000,19279,-8049,129335,-18639,-12715,132865,85,19466,348,1,49226,0.0010000000000000009
927002,4517,1972,134674,25807,4683,131371,73,19474,299,1,49227,0.0010020000000000584
928002,2283,-2220,129228,-10587,-10734,133024,65,19474,266,1,49228,0.0010000000000000009
929000,-4166,-127,130408,-37794,2132,127126,101,19474,414,0,49229,0.0009979999999999434
930002,4772,9944,132951,19050,3585,128665,77,19469,414,0,49230,0.0010020000000000584
931000,1623,1844,126601,-1237,-106,129225,60,19477,315,0,49231,0.0009979999999999434
932000,11904,8096,132809,-26244,5507,120228,60,19473,246,1,49232,0.0010000000000000009
933001,3387,-3160,131916,12629,-11426,139582,88,19473,360,1,49233,0.0010010000000000296
934000,4898,-8128,125480,2693,-3682,128051,80,19476,328,1,49234,0.0009989999999999721
935001,-6622,11888,135051,-25234,4852,127478,72,19472,295,1,49235,0.0010010000000000296
936003,5151,-2697,128467,-9905,-3137,131067,118,19472,295,0,49236,0.0010019999999999474
937000,-5491,8193,129095,3490,3469,125595,69,19472,483,0,49237,0.0009970000000000256
938000,9643,4752,130679,-17088,3522,127186,69,19479,283,0,49238,0.0010000000000000009
939000,4630,2752,125606,1390,-3377,124154,82,19457,336,1,49239,0.0010000000000000009
940000,231,3374,125671,1360,2762,126396,74,19472,303,1,49240,0.0010000000000000009
941007,3906,3969,126901,-13642,-1656,127086,69,19474,283,1,49241,0.0010069999999999801
942000,4010,7533,128192,-5909,7946,124664,80,19474,283,0,49242,0.0009930000000000216
943007,4046,2152,126880,2861,-3110,129548,86,19473,328,0,49243,0.0010069999999999801
944002,3551,5004,125766,-8791,5121,119635,86,19476,352,0,49244,0.0009950000000000792
945000,11348,2936,126193,230,-1683,127762,58,19475,238,0,49245,0.0009979999999999434
946011,4572,6493,124465,4512,6311,120724,115,19456,471,1,49246,0.0010109999999999841
947000,6786,513,123228,-12097,-2810,125769,83,19473,340,1,49247,0.0009890000000000176
948000,5694,12026,126642,2687,9773,121538,68,19473,340,1,49248,0.0010000000000000009
949000,8539,-1468,122538,4787,-5991,129539,88,19468,279,0,49249,0.0010000000000000009
950001,9200,4579,125434,-3658,3174,122031,88,19470,360,0,49250,0.0010010000000000296
951000,11691,2687,125159,1828,-1205,125346,69,19476,283,0,49251,0.0009989999999999721
952000,11861,5573,125054,13197,4520,121994,69,19476,283,1,49252,0.0010000000000000009
953002,11426,2148,124600,-6414,-1190,123665,74,19474,303,1,49253,0.0010019999999999474
954000,7464,2994,126668,-1881,1655,125560,69,19474,303,1,49254,0.0009980000000000544
955000,6612,-2168,123993,12620,-4519,129358,75,19475,283,0,49255,0.0010000000000000009
956000,9525,4987,127219,-7873,3156,125606,75,19469,307,0,49256,0.0010000000000000009
957000,13749,3776,127287,3840,981,124977,81,19478,332,0,49257,0.0010000000000000009
958000,11920,3336,126219,10621,984,125107,58,19480,238,0,49258,0.0010000000000000009
959000,12587,-1419,127034,-4738,-4355,125917,105,19473,430,1,49259,0.0010000000000000009
960000,10702,-1238,128592,2758,-4057,129508,75,19473,430,1,49260,0.0010000000000000009
961000,4169,-3111,127916,3108,-6367,132573,63,19477,307,1,49261,0.0010000000000000009
962002,4779,4093,130262,-5704,1305,124789,63,19475,258,0,49262,0.0010019999999999474
963002,7912,1966,129574,-4205,312,127590,83,19473,340,0,49263,0.0010000000000000009
964001,11105,6824,129449,13771,772,128976,69,19478,283,0,49264,0.0009990000000000832
965000,8123,437,129402,-1881,-2874,125813,62,19472,254,1,49265,0.0009989999999999721
966000,16502,-593,130909,-20451,-2014,128473,89,19472,365,1,49266,0.0010000000000000009
967000,-1202,-1276,132528,17530,-7586,138010,69,19474,365,1,49267,0.0010000000000000009
968000,714,-8863,128880,-1471,-11539,131882,77,19476,283,1,49268,0.0010000000000000009
969000,-3683,-3606,130117,-19840,1246,128505,77,19470,315,0,49269,0.0010000000000000009
970000,3860,13990,132138,12167,11863,125404,81,19474,332,0,49270,0.0010000000000000009
971000,6721,8736,128358,-13425,4394,123973,58,19478,238,0,49271,0.0010000000000000009
972000,10074,5750,133329,-6958,-1538,128809,92,19478,377,1,49272,0.0010000000000000009
973000,4621,-14318,128294,5493,-21046,140227,77,19475,377,1,49273,0.0010000000000000009
974000,802,638,129935,-8887,8474,121006,66,19475,315,1,49274,0.0010000000000000009
975000,-2114,8275,134341,-17240,-2321,135192,66,19479,270,0,49275,0.0010000000000000009
976000,915,-330,128198,-4117,2263,125881,103,19466,422,0,49276,0.0010000000000000009
977000,-3222,8595,129613,-11064,3063,127375,81,19478,332,0,49277,0.0010000000000000009
978002,9526,6725,130205,-9031,4816,123832,61,19478,250,0,49278,0.0010019999999999474
979010,3760,1822,124578,8621,-3813,125109,126,19470,250,1,49279,0.0010080000000000089
980000,2733,2849,127088,-10525,355,129795,78,19472,516,1,49280,0.0009900000000000464
981002,3508,1822,126071,-11848,-672,125276,78,19474,319,1,49281,0.0010019999999999474
982000,3504,10007,129099,-660,7656,126842,76,19470,311,0,49282,0.0009980000000000544
983000,4753,1440,125806,-1453,-2558,126166,83,19476,340,0,49283,0.0010000000000000009
984000,3794,6832,126010,-7266,5400,120148,63,19479,258,0,49284,0.0010000000000000009
985000,12470,91,124891,1762,-2975,129424,77,19479,258,0,49285,0.0010000000000000009
986000,4912,8770,124661,1557,6906,118277,110,19458,315,1,49286,0.0010000000000000009
987000,6078,2399,124087,-8496,138,126552,110,19469,451,1,49287,0.0010000000000000009
988000,5453,6528,125309,259,2721,124328,70,19475,287,0,49288,0.0010000000000000009
989000,9194,-2194,122735,2292,-4859,129397,96,19473,393,0,49289,0.0010000000000000009
990003,9518,7414,126377,2391,6294,120305,81,19477,332,0,49290,0.0010029999999999761
991000,12801,3691,124401,-1905,840,124210,58,19477,332,1,49291,0.0009970000000000256
992000,12687,5735,125443,11666,3979,121601,61,19474,238,1,49292,0.0010000000000000009
993000,9217,-1972,123782,-1019,-6077,127149,61,19473,250,1,49293,0.0010000000000000009
994000,9723,1805,125697,-5102,1276,124105,79,19480,324,1,49294,0.0010000000000000009
995000,6004,3459,125893,10830,887,126776,66,19472,270,0,49295,0.0010000000000000009
996000,11802,3224,126952,-1815,1450,127370,98,19470,401,0,49296,0.0010000000000000009
997000,10304,4496,127459,-1080,1169,124920,64,19470,401,0,49297,0.0010000000000000009
998000,11498,1513,127737,4416,-748,126532,71,19482,262,1,49298,0.0010000000000000009
999000,8983,-1054,127342,6924,-4878,126359,71,19471,291,1,49299,0.0010000000000000009
1000000,8179,-5084,127532,-2159,-6635,128078,69,19473,283,1,49300,0.0010000000000000009
1001000,8520,569,127393,-2737,-2499,131503,66,19476,270,1,49301,0.0009999999999998899
1002000,8855,8016,129958,-575,6110,125232,85,19473,348,0,49302,0.001000000000000112
1003000,6997,7380,131170,-1523,4386,126410,79,19473,348,0,49303,0.0009999999999998899
1004000,8877,-2082,128838,10650,-4236,130434,55,19476,324,0,49304,0.001000000000000112
1005001,5635,-6242,129060,-4284,-8977,130350,55,19478,225,1,49305,0.0010010000000000296
1006000,14849,-8901,129428,-14091,-11735,127266,109,19477,446,1,49306,0.0009989999999999721
1007000,2723,11085,133635,19501,8465,131952,74,19476,303,1,49307,0.0009999999999998899
1008000,2891,-5141,127903,-10243,-8310,129941,66,19474,270,1,49308,0.001000000000000112
1009000,-731,4419,131854,-27500,420,127127,101,19474,414,0,49309,0.0009999999999998899
1010002,3568,2450,131172,12919,-208,133737,72,19471,414,0,49310,0.0010019999999999474
1011000,5020,4618,128433,-3287,5255,119823,67,19483,295,0,49311,0.0009980000000000544
1012000,9276,5887,134551,-20888,-4371,134574,67,19471,274,1,49312,0.001000000000000112
1013002,6727,-10750,127544,9917,-10858,133284,64,19473,262,1,49313,0.0010019999999999474
1014000,-626,4032,128700,-85,7816,123134,72,19476,295,1,49314,0.0009980000000000544
1015000,-1817,6820,133723,-18583,-1582,133196,77,19476,315,0,49315,0.0009999999999998899
1016000,2995,8,127846,256,1922,125462,95,19461,315,0,49316,0.001000000000000112
1017002,-4100,6189,130213,-9231,847,131906,60,19472,389,0,49317,0.0010019999999999474
1018000,10525,3482,129381,-8039,931,123485,60,19480,246,0,49318,0.0009980000000000544
1019000,770,1237,124327,5043,-2540,125369,102,19464,418,1,49319,0.0009999999999998899
1020000,3782,6281,127164,-9746,3622,126536,80,19471,328,1,49320,0.001000000000000112
1021000,4776,3750,125920,-10381,1723,124575,68,19471,279,0,49321,0.0009999999999998899
1022000,3233,9246,129212,-2548,3564,129582,81,19475,279,0,49322,0.001000000000000112
1023000,1937,-800,125810,-1153,-2142,124213,73,19469,332,0,49323,0.0009999999999998899
1024000,6686,6204,126371,-7690,3939,123476,73,19479,299,0,49324,0.001000000000000112
1025000,7891,-938,124643,7722,-2491,127903,59,19472,242,1,49325,0.0009999999999998899
1026000,4593,7776,123420,-8161,6125,118061,149,19469,610,1,49326,0.001000000000000112
1027000,8849,4946,124553,-6230,5022,124566,78,19476,319,1,49327,0.0009999999999998899
1028000,6768,11426,125591,6057,4179,123608,76,19476,319,0,49328,0.001000000000000112
1029000,7618,-5584,122449,-554,-7184,129099,82,19466,311,0,49329,0.0009999999999998899
1030008,9743,4973,126682,-2127,1988,122000,82,19473,336,0,49330,0.00100800000000012
1031002,11731,665,124404,10047,-1302,126284,60,19474,246,1,49331,0.0009939999999999394
1032000,11109,6936,125281,3757,4798,120011,77,19477,315,1,49332,0.0009980000000000544
1033000,10067,-47,124141,-7835,-2814,125980,85,19474,348,1,49333,0.0009999999999998899
1034000,8041,6378,126573,7788,3642,124428,67,19474,348,1,49334,0.001000000000000112
1035000,8337,-4127,123856,3783,-4416,129763,94,19478,274,0,49335,0.0009999999999998899
1036000,9063,7809,128289,-4783,4797,123854,94,19465,385,0,49336,0.001000000000000112
1037000,13060,-569,126053,9852,-2681,128350,75,19478,307,0,49337,0.0009999999999998899
1038001,11518,5229,127331,759,2212,122384,60,19472,246,1,49338,0.0010010000000000296
1039000,10099,-3148,127744,618,-6917,129154,85,19476,348,1,49339,0.0009989999999999721
1040000,9354,-543,128629,3874,-2999,127992,73,19476,348,1,49340,0.001000000000000112
1041000,5605,-3048,127732,-3037,-6026,133017,66,19481,299,1,49341,0.0009999999999998899
1042000,5567,5577,130286,-4640,3187,124613,66,19472,270,0,49342,0.001000000000000112
1043000,10208,2821,128920,5336,821,127084,78,19475,319,0,49343,0.0009999999999998899
1044000,9122,2871,128419,8393,140,130784,63,19481,258,0,49344,0.001000000000000112
1045000,13316,-761,129588,-14490,-2916,124914,73,19464,299,1,49345,0.0009999999999998899
1046000,9000,-1641,132016,2424,-4280,130932,70,19464,299,1,49346,0.001000000000000112
1047000,3496,-3683,130934,12485,-6726,135874,67,19471,287,1,49347,0.0009999999999998899
1048000,-2372,-7268,129841,-18259,-10451,132102,67,19475,274,0,49348,0.001000000000000112
1049000,2277,6304,132663,-15153,3804,128326,90,19468,369,0,49349,0.0009999999999998899
1050000,3119,11531,130643,6890,9205,125138,83,19473,340,0,49350,0.001000000000000112
1051000,8383,7493,131462,-11935,4314,125459,58,19473,238,0,49351,0.0009999999999998899
1052000,6637,-4488,130752,-4539,-7119,131405,90,19473,238,1,49352,0.001000000000000112
1053000,5328,-10936,126436,2780,-13870,127756,76,19474,369,1,49353,0.0009999999999998899
1054002,-984,9563,132883,-8469,7094,127434,67,19479,311,1,49354,0.0010019999999999474
1055000,1812,1803,130246,-13465,-983,131527,67,19470,274,0,49355,0.0009980000000000544
1056000,-2640,3618,128444,-7583,670,125326,117,19469,479,0,49356,0.001000000000000112
1057001,1478,6477,129657,-11835,3138,127465,71,19477,291,0,49357,0.0010009999999998076
1058000,9282,4643,127701,-5959,-1631,124728,71,19477,291,1,49358,0.0009990000000001942
1059000,275,1509,125633,7475,-451,126368,95,19464,291,1,49359,0.0009999999999998899
1060000,4544,2663,127017,-13652,-1464,127690,73,19469,389,1,49360,0.001000000000000112
1061000,2956,5313,126639,-7201,6877,124432,73,19477,299,0,49361,0.0009999999999998899
1062001,2830,5991,127826,-3512,-1904,129912,82,19470,336,0,49362,0.0010010000000000296
1063000,3308,1978,125070,-4710,4114,119941,85,19474,348,0,49363,0.0009989999999999721
1064000,7225,5947,126495,-4800,629,127701,56,19474,229,0,49364,0.001000000000000112
1065000,9731,1563,124315,7780,2696,122279,98,19478,229,1,49365,0.0009999999999998899
1066000,3415,7434,124229,-8208,1378,122871,79,19459,401,1,49366,0.001000000000000112
1067002,7030,4531,125010,-1683,4744,123649,79,19472,324,1,49367,0.0010019999999999474
1068002,6222,4346,124005,1519,-3266,127014,67,19475,274,0,49368,0.0009999999999998899
1069000,9744,-78,124215,1169,2133,124721,91,19469,373,0,49369,0.0009980000000000544
1070000,8548,7747,126241,1390,1825,122512,73,19469,299,0,49370,0.001000000000000112
1071002,14337,1352,124119,4976,1302,124460,62,19479,299,1,49371,0.0010019999999999474
1072002,8945,5533,125450,5886,1343,122454,66,19474,254,1,49372,0.0009999999999998899
1073004,10356,-3719,123473,-3956,-3758,127058,66,19471,270,1,49373,0.0010019999999999474
1074001,9385,7087,126405,4981,4015,123837,72,19478,295,1,49374,0.0009970000000001367
1075001,7994,212,126038,3584,-2083,129836,73,19466,299,0,49375,0.0009999999999998899
1076000,9505,5067,127155,-1231,3642,123411,81,19476,332,0,49376,0.0009989999999999721
1077002,12009,1076,126927,3926,-2648,129579,59,19476,332,0,49377,0.0010020000000001694
1078002,12060,4646,128105,2975,1549,122632,91,19478,242,1,49378,0.0009999999999998899
1079000,8178,-3323,127466,2260,-9495,129356,91,19474,373,1,49379,0.0009980000000000544
1080000,7313,-2441,128723,2179,-2655,127593,71,19476,291,1,49380,0.0009999999999998899
1081000,6828,847,128178,-162,-1457,130316,64,19475,262,0,49381,0.001000000000000112
1082000,9173,7137,130122,-7011,5487,126145,85,19474,348,0,49382,0.0009999999999998899
1083000,7257,4397,129904,6311,433,126793,72,19474,348,0,49383,0.001000000000000112
1084000,8462,117,129083,6612,-1921,130275,58,19479,295,0,49384,0.0009999999999998899
1085000,9615,-4419,130045,-15427,-8123,129475,58,19474,238,1,49385,0.001000000000000112
1086000,12445,-4577,131571,3344,-3795,129887,104,19475,426,1,49386,0.0009999999999998899
1087000,1805,5783,132334,14473,1650,132342,76,19474,311,1,49387,0.001000000000000112
1088000,1053,-4210,129129,-24070,-6790,130286,72,19470,295,0,49388,0.0009999999999998899
1089000,-139,7287,133344,-16801,3709,126701,92,19470,295,0,49389,0.001000000000000112
1090000,3660,2266,130420,16830,-210,132020,63,19472,377,0,49390,0.0009999999999998899
1091000,7416,6000,129932,-16960,2940,123081,63,19484,258,1,49391,0.001000000000000112
1092000,7354,1027,132682,-8751,-2492,130332,81,19469,332,1,49392,0.0009999999999998899
1093000,6232,-8702,126438,9611,-11683,135649,75,19472,307,1,49393,0.001000000000000112
1094000,-3061,7454,130429,-9992,5772,123854,69,19478,283,1,49394,0.0009999999999998899
1095000,628,4348,131900,-20733,449,130950,92,19478,283,0,49395,0.001000000000000112
1096000,-17,1981,127943,-1325,-238,127278,85,19461,377,0,49396,0.0009999999999998899
1097000,401,4888,129822,-6246,1775,128987,85,19474,348,0,49397,0.001000000000000112
1098000,10309,4104,127955,-11261,1061,124808,60,19473,246,1,49398,0.0009999999999998899
1099000,339,572,124493,5368,-2617,124650,130,19471,532,1,49399,0.001000000000000112
1100000,3804,5635,127759,-7153,3223,125154,79,19477,324,1,49400,0.0009999999999998899
1101000,3341,5094,126082,-13292,1959,125005,69,19477,283,0,49401,0.001000000000000112
1102000,4347,6973,128506,-2151,4784,130081,79,19468,283,0,49402,0.0009999999999998899
1103002,1576,-905,124866,74,-3846,121687,66,19470,324,0,49403,0.0010020000000001694
1104001,8979,6045,126740,-8614,2525,125915,66,19478,270,0,49404,0.0009989999999999721
1105000,8159,657,124059,5497,1100,123504,69,19464,283,1,49405,0.0009989999999999721
1106000,3112,8379,123828,-3149,3378,121695,126,19468,516,1,49406,0.0009999999999998899
1107000,8438,5693,124904,-10012,7535,122943,67,19468,274,1,49407,0.001000000000000112
1108000,6645,6409,124690,4989,-4213,128405,89,19477,274,0,49408,0.0009999999999998899
1109000,7667,-2178,123775,-691,-368,124582,82,19466,365,0,49409,0.001000000000000112
1110000,10706,4098,125925,82,-528,124289,82,19474,336,0,49410,0.0009999999999998899
1111002,12751,3102,124899,12098,3430,124064,58,19475,238,1,49411,0.0010020000000001694
1112000,10828,5998,125387,-1890,1456,121842,70,19469,287,1,49412,0.0009979999999998324
1113000,8990,627,125203,-4244,911,125445,86,19469,352,1,49413,0.001000000000000112
1114000,6314,4674,126429,12024,-3312,128875,65,19476,352,1,49414,0.0009999999999998899
1115000,10151,-2014,125124,-6344,1415,125700,102,19476,266,0,49415,0.001000000000000112
1116000,8476,7162,128802,5564,1695,125997,102,19472,418,0,49416,0.0009999999999998899
1117001,13632,509,126145,7413,-921,126244,69,19476,283,0,49417,0.0010010000000000296
1118001,12376,3468,127554,-3140,-1144,124167,66,19465,270,1,49418,0.001000000000000112
1119000,8997,-1532,128551,3732,-4400,128959,62,19475,254,1,49419,0.0009989999999999721
1120001,6681,-1870,127757,4680,-5269,130354,65,19475,254,1,49420,0.0010010000000000296
1121000,4956,20,129485,-5264,-1396,130012,75,19477,266,0,49421,0.0009989999999999721
1122000,5482,2040,129478,-6152,-461,126360,75,19473,307,0,49422,0.0009999999999998899
1123002,9771,6992,129809,13342,6400,125099,79,19475,324,0,49423,0.0010020000000001694
1124000,9101,1338,128631,89,-2212,131197,54,19478,221,0,49424,0.0009979999999998324
1125000,16030,3169,130815,-19407,792,121957,94,19466,385,1,49425,0.001000000000000112
1126000,7006,-3314,133359,14671,-6440,135278,81,19466,385,1,49426,0.0009999999999998899
1127003,3286,-6281,130705,3448,-10238,135805,69,19473,332,1,49427,0.0010030000000000872
1128000,-3797,-5809,131096,-27093,-7890,131131,69,19478,283,0,49428,0.0009969999999999146
1129000,2055,10920,133345,-5197,9775,123966,105,19472,430,0,49429,0.001000000000000112
1130000,3214,11797,129208,5663,6426,127368,76,19479,311,0,49430,0.0009999999999998899
1131000,9086,5499,131684,-12775,2403,124886,61,19468,250,1,49431,0.001000000000000112
1132000,3421,-5754,129483,-2281,-11426,134432,71,19468,250,1,49432,0.0009999999999998899
1133000,4652,-8275,127008,1169,-7624,131193,72,19473,291,1,49433,0.001000000000000112
1134000,-1970,11732,133929,-9946,7980,125988,72,19479,295,1,49434,0.0009999999999998899
1135000,2562,-2743,128638,-10956,-5277,134019,73,19468,299,0,49435,0.001000000000000112
1136002,-4324,7331,129226,-9601,5433,123388,106,19472,434,0,49436,0.0010019999999999474
1137000,6146,5820,129205,-10613,3326,128159,64,19475,262,0,49437,0.0009980000000000544
1138000,8968,4391,126524,2519,807,123775,91,19475,262,1,49438,0.0009999999999998899
1139000,-172,-303,125978,-508,-2827,127669,76,19458,373,1,49439,0.001000000000000112
1140000,4334,2144,127300,-15872,-778,127560,76,19477,311,1,49440,0.0009999999999998899
1141000,2844,6818,127412,-1671,4751,125192,65,19476,266,0,49441,0.001000000000000112
1142000,4225,3116,126851,-2535,535,129005,80,19471,328,0,49442,0.0009999999999998899
1143003,2953,3928,125237,-5956,1966,121446,81,19477,332,0,49443,0.0010030000000000872
1144002,9761,5761,126795,-5347,3418,125224,58,19477,332,0,49444,0.0009989999999999721
1145000,8462,2665,124375,8395,603,124991,132,19473,238,1,49445,0.0009980000000000544
1146000,2999,5352,124690,-8838,2838,121244,132,19463,541,1,49446,0.0009999999999998899
1147003,6758,5623,125683,-3138,3081,124125,76,19470,311,1,49447,0.0010030000000000872
1148000,7106,537,123382,2615,-2438,128569,71,19471,291,0,49448,0.0009969999999999146
1149000,8696,5094,125175,903,583,120919,78,19470,319,0,49449,0.001000000000000112
1150000,10203,5863,124935,163,3557,124704,65,19470,266,0,49450,0.0009999999999998899
1151005,12993,3573,124920,6496,3305,122762,74,19480,266,1,49451,0.0010050000000001447
1152004,10637,2110,125484,4025,-3384,125103,83,19480,303,1,49452,0.0009989999999999721
1153000,8607,609,125623,-3272,2980,124252,83,19474,340,1,49453,0.0009959999999999969
1154000,6751,2479,125858,6472,-5689,130817,66,19477,270,1,49454,0.0009999999999998899
1155000,9530,562,126120,1644,6106,122529,88,19467,360,0,49455,0.001000000000000112
1156000,9419,5339,127549,1706,-2706,129507,79,19467,324,0,49456,0.0009999999999998899
1157000,14400,1400,126345,4586,4585,121606,56,19479,324,0,49457,0.001000000000000112
1158000,10684,6522,129085,3280,-4433,127063,97,19478,229,1,49458,0.0009999999999998899
1159000,9916,-7599,126452,7,-6814,128952,97,19470,397,1,49459,0.001000000000000112
1160000,4505,-1737,127832,2213,-6179,131318,80,19475,328,1,49460,0.0009999999999998899
1161000,9344,776,129703,-3773,4024,128268,66,19471,270,0,49461,0.001000000000000112
1162000,3109,9703,130923,-6371,4761,124887,77,19470,315,0,49462,0.0009999999999998899
1163000,11366,-304,128844,8504,-4219,130881,65,19470,315,0,49463,0.001000000000000112
1164000,6815,-164,128724,12667,-833,126940,67,19480,266,0,49464,0.0009999999999998899
1165000,11356,-3770,128622,-26184,-9650,131153,67,19466,274,1,49465,0.001000000000000112
1166002,13386,-386,132245,8865,5537,125689,66,19477,270,1,49466,0.0010019999999999474
1167002,822,3828,131999,15927,-5765,137537,67,19477,274,1,49467,0.0009999999999998899
1168000,739,-10963,127062,-33768,-10912,131848,84,19466,344,0,49468,0.0009980000000000544
1169000,-1135,6723,133234,-8806,4269,123601,81,19466,344,0,49469,0.001000000000000112
1170001,4530,3935,129226,18206,841,135555,57,19472,332,0,49470,0.0010009999999998076
1171000,10251,12122,130362,-21514,9667,114545,57,19475,233,1,49471,0.0009990000000001942
1172000,4297,4360,133611,-5544,-2885,135937,99,19476,405,1,49472,0.0009999999999998899
1173000,5378,-15042,124849,11584,-16241,136136,77,19477,315,1,49473,0.001000000000000112
1174000,-6504,9541,132869,-12822,9588,120639,65,19474,266,1,49474,0.0009999999999998899
1175000,358,-273,131819,-22849,-6744,137267,119,19474,266,0,49475,0.001000000000000112
1176000,-1968,6529,128667,3650,7303,120193,73,19465,487,0,49476,0.0009999999999998899
1177001,2763,4067,129947,-8040,-764,134146,73,19477,299,0,49477,0.0010010000000000296
1178002,8380,8417,127634,-12110,6133,117035,68,19468,279,1,49478,0.0010010000000000296
1179002,-161,361,124852,5022,-4292,127317,112,19472,459,1,49479,0.0009999999999998899
1180000,4778,3474,127663,-2032,546,129603,70,19476,287,1,49480,0.0009980000000000544
1181000,2293,1384,125746,-16235,-312,124335,79,19476,287,0,49481,0.001000000000000112
1182000,5681,10662,130005,-4128,8836,127389,84,19472,324,0,49482,0.0009999999999998899
1183000,2187,-705,123453,7658,-3536,125424,84,19475,344,0,49483,0.001000000000000112
1184001,10092,5729,126246,-10093,3443,122113,58,19480,238,0,49484,0.0010009999999998076
1185000,7347,696,124030,1231,-862,125552,91,19451,373,1,49485,0.0009990000000001942
1186000,6070,8162,124026,-548,5417,120741,78,19476,319,1,49486,0.0009999999999998899
1187000,6770,5084,125172,-1831,2917,125036,66,19476,319,1,49487,0.001000000000000112
1188000,6776,3674,124855,-1488,263,125552,92,19474,270,0,49488,0.0009999999999998899
1189000,7862,-1022,122937,4457,-4641,128241,92,19473,377,0,49489,0.001000000000000112
1190000,10492,7111,126308,-322,4346,121066,78,19476,319,0,49490,0.0009999999999998899
1191000,14355,4259,124948,6884,2267,124025,58,19474,238,1,49491,0.0009999999999998899
1192000,11451,4709,124791,5263,3175,121113,62,19477,254,1,49492,0.001000000000000112
1193000,8262,1008,126496,-7109,-1445,127255,75,19477,307,1,49493,0.0009999999999998899
1194000,6610,-1320,125381,11767,-3380,128716,68,19476,307,1,49494,0.001000000000000112
1195000,7594,2377,125932,-1074,-669,125816,87,19466,279,0,49495,0.0009999999999998899
1196000,11213,5429,128087,-4411,3069,125458,87,19474,356,0,49496,0.001000000000000112
1197002,13382,4251,126993,11135,1754,123920,61,19479,250,0,49497,0.0010019999999999474
1198007,12863,964,127193,2318,-6626,126928,86,19474,352,1,49498,0.0010050000000001447
1199000,10576,-2649,127484,-1205,-3930,128499,73,19474,299,1,49499,0.0009929999999997996
1200000,3969,-3747,127940,6513,-7951,133668,64,19475,299,1,49500,0.001000000000000112
1201000,8104,1987,129175,-3944,4684,124743,86,19478,262,0,49501,0.0009999999999998899
1202003,4378,7072,131066,-1446,2659,126593,86,19475,352,0,49502,0.0010030000000000872
1203000,11846,5000,130201,12208,-596,130316,73,19479,299,0,49503,0.0009969999999999146
1204003,5222,-3667,128740,-3610,-5464,128350,57,19473,233,0,49504,0.0010030000000000872
1205002,17638,-265,131160,-16810,-4246,127128,108,19473,442,1,49505,0.0009989999999999721
1206002,4208,44,133676,18418,-2354,134030,74,19473,442,1,49506,0.001000000000000112
1207000,3322,-3868,130628,-4682,-9920,134255,71,19480,303,1,49507,0.0009979999999998324
1208003,-4866,-5352,129961,-28552,-6493,131904,71,19472,291,0,49508,0.0010030000000000872
1209002,2927,12148,132157,3509,13069,121357,91,19472,373,0,49509,0.0009989999999999721
1210000,3403,8792,129080,851,1273,130984,63,19479,258,0,49510,0.0009980000000000544
1211000,11008,2036,131531,-11822,-86,124017,77,19473,315,1,49511,0.0009999999999998899
1212000,2265,-6478,130374,-316,-14375,138170,72,19473,315,1,49512,0.001000000000000112
1213000,4371,-4510,127911,-64,2408,125762,70,19473,295,1,49513,0.0009999999999998899
1214000,-3490,13493,134371,-13177,3714,128735,70,19477,287,1,49514,0.001000000000000112
1215000,1105,-4418,128258,-13255,-3934,131648,88,19459,360,0,49515,0.0009999999999998899
1216000,-4505,9972,129801,-8414,4596,123986,86,19474,352,0,49516,0.001000000000000112
1217001,9080,3877,129347,-7073,3328,127885,58,19476,238,0,49517,0.0010010000000000296
1218000,4650,5290,126096,3762,-1075,122691,121,19476,238,1,49518,0.0009989999999999721
1219000,1165,545,125706,-6645,-907,127399,79,19469,496,1,49519,0.0009999999999998899
1220005,4710,4016,126500,-11208,-1081,127348,79,19476,324,1,49520,0.0010050000000001447
1221000,3405,7255,128239,538,6765,125283,68,19469,279,0,49521,0.0009949999999998571
1222001,4741,2942,126843,-3448,-790,127659,77,19473,315,0,49522,0.0010010000000000296
1223000,2992,4808,125699,-7977,3974,120550,69,19478,283,0,49523,0.0009989999999999721
1224001,11649,1845,125426,2333,-2677,128851,65,19478,283,0,49524,0.0010010000000000296
1225000,5522,5289,124174,4317,5328,119989,136,19464,266,1,49525,0.0009989999999999721
1226000,5801,4985,123960,-11250,1603,124136,136,19471,557,1,49526,0.001000000000000112
1227001,5482,8514,125995,2049,5466,123355,75,19475,307,1,49527,0.0010010000000000296
1228001,9367,-2913,122434,2988,-6239,129364,85,19473,348,0,49528,0.0009999999999998899
1229000,8887,6967,125990,-287,4951,122212,85,19470,348,0,49529,0.0009989999999999721
1230001,11378,3590,124373,1637,-216,123590,58,19470,348,0,49530,0.0010010000000000296
1231000,12827,5136,125496,8829,3896,122757,66,19483,238,1,49531,0.0009989999999999721
1232000,12084,13,124552,-1210,-3031,124781,66,19474,270,1,49532,0.001000000000000112
1233000,5506,3972,126755,139,2169,124607,81,19474,332,1,49533,0.0009999999999998899
1234000,9086,-2057,124287,5022,-4873,129295,63,19480,258,0,49534,0.001000000000000112
1235000,7110,8465,128183,-311,6085,123564,101,19470,414,0,49535,0.0009999999999998899
1236000,12474,886,126679,1602,-2216,128376,72,19470,414,0,49536,0.001000000000000112
1237000,12645,4364,126922,4991,2154,123504,62,19476,295,0,49537,0.0009999999999998899
1238000,11734,232,127621,3049,-3043,126501,62,19469,254,1,49538,0.001000000000000112
1239000,11764,-4287,126950,481,-7367,128553,63,19473,258,1,49539,0.0009999999999998899
1240000,2327,103,129566,2164,-3188,134179,71,19477,291,1,49540,0.001000000000000112
1241001,7314,1861,129551,-2572,-1128,124133,73,19474,299,0,49541,0.0010010000000000296
1242000,5554,8344,131094,-7609,6649,128038,79,19474,324,0,49542,0.0009989999999999721
1243000,11891,-3268,128558,6910,-5638,128855,58,19477,324,0,49543,0.0009999999999998899
1244000,4429,4903,129827,12722,2439,126791,89,19479,238,1,49544,0.001000000000000112
1245000,17863,-7352,129125,-22424,-10159,131064,89,19464,365,1,49545,0.0009999999999998899
1246000,7830,6799,135976,4138,6570,128621,73,19473,299,1,49546,0.001000000000000112
1247000,-1119,-2144,131520,17949,-15549,139282,65,19475,266,1,49547,0.0009999999999998899
1248001,-3146,-5699,129382,-30738,-2921,125800,104,19475,426,0,49548,0.0010010000000000296
1249002,-1322,7730,133642,11003,2446,131681,77,19474,426,0,49549,0.0010010000000000296
1250002,6499,5556,127983,-66,5990,124533,61,19478,315,0,49550,0.0009999999999998899
1251002,8863,11444,131313,-21976,6966,120083,61,19469,250,1,49551,0.001000000000000112
1252001,6780,-3228,132182,8287,-13512,141231,75,19477,307,1,49552,0.0009989999999999721
1253000,4917,-11973,124312,665,-5534,125702,73,19474,299,1,49553,0.0009989999999999721
1254000,-4363,13010,134714,-22962,7452,128088,72,19467,295,1,49554,0.001000000000000112
1255000,3509,-4457,128609,-9384,-6457,132239,112,19467,295,0,49555,0.0009999999999998899
1256000,-1591,11001,129374,422,8459,123471,66,19474,459,0,49556,0.001000000000000112
1257000,5816,654,128661,-13690,-2546,131419,66,19483,270,0,49557,0.0009999999999998899
1258000,6957,8892,125603,-3837,5607,115171,85,19459,348,1,49558,0.001000000000000112
1259000,1818,-395,124872,5614,-4139,133874,77,19470,315,1,49559,0.0009999999999998899
1260000,3498,5232,127041,-10036,1158,124034,69,19475,283,1,49560,0.001000000000000112
1261002,3839,3463,126959,-14448,3391,126179,82,19475,283,0,49561,0.0010019999999999474
1262000,5790,9329,129763,5455,3841,126779,81,19472,336,0,49562,0.0009980000000000544
1263000,1844,-436,123449,808,-1401,122820,81,19476,332,0,49563,0.0009999999999998899
1264000,11122,5007,126582,-8836,748,125399,54,19472,221,0,49564,0.001000000000000112
1265000,6441,3374,123667,2704,4001,121583,120,19455,491,1,49565,0.0009999999999998899
1266000,7463,8691,124791,-2176,5036,123011,81,19474,332,1,49566,0.001000000000000112
1267001,5913,5854,125895,-2129,2415,125195,68,19474,332,1,49567,0.0010010000000000296
1268000,7751,-698,124125,547,-5509,128492,84,19469,279,0,49568,0.0009989999999999721
1269000,8322,892,124516,3336,-536,125351,84,19473,344,0,49569,0.0009999999999998899
1270000,11865,7366,126100,-110,5261,120810,68,19478,279,0,49570,0.001000000000000112
1271000,12669,5951,124752,9621,3418,123003,70,19474,287,1,49571,0.0009999999999998899
1272000,10843,2231,124521,-4053,-1403,123686,82,19471,336,1,49572,0.001000000000000112
1273000,8468,1782,126706,-1596,505,126285,73,19471,336,1,49573,0.0009999999999998899
1274000,5938,-2749,124984,12894,-5142,130227,79,19474,299,0,49574,0.001000000000000112
1275000,8884,4595,126895,-7640,3486,124517,79,19468,324,0,49575,0.0009999999999998899
1276000,13479,2891,127310,1928,67,126965,78,19473,319,0,49576,0.001000000000000112
1277000,13394,5491,127185,9069,3375,123328,59,19473,242,1,49577,0.0009999999999998899
1278000,10934,-1309,127160,288,-5140,127025,102,19477,418,1,49578,0.001000000000000112
1279000,9577,-1250,128710,-2097,-3437,127695,76,19477,418,1,49579,0.0009999999999998899
1280000,4833,-5635,127682,4537,-8993,133963,62,19476,311,1,49580,0.001000000000000112
1281000,6104,6142,129784,-3618,4594,124439,62,19478,254,0,49581,0.0009999999999998899
1282000,9515,7474,130963,-6617,4778,126510,80,19471,328,0,49582,0.001000000000000112
1283000,10020,595,128438,16028,-1549,130758,68,19478,279,0,49583,0.0009999999999998899
1284000,7554,333,130173,-4505,-2213,126311,63,19469,258,1,49584,0.001000000000000112
1285000,12923,-6966,130069,-18632,-9788,130535,94,19469,385,1,49585,0.0009999999999998899
1286000,1934,3820,133001,18591,1090,130725,67,19477,385,1,49586,0.001000000000000112
1287000,580,-10830,127302,-3022,-14617,131556,79,19475,274,1,49587,0.0009999999999998899
1288000,-1776,7037,131027,-31244,2708,121843,79,19468,324,0,49588,0.001000000000000112
1289000,5091,9598,131440,3529,6604,131571,83,19474,340,0,49589,0.0009999999999998899
1290002,5549,4559,129221,6702,1551,124238,57,19481,233,0,49590,0.0010019999999999474
1291000,8812,79,131758,-16197,-5054,131517,94,19481,385,1,49591,0.0009980000000000544
1292000,5471,-8283,129334,-3212,-9684,133894,77,19473,385,1,49592,0.001000000000000112
1293000,2102,5321,130269,5639,7415,124730,66,19474,315,1,49593,0.0009999999999998899
1294000,-3048,2789,131908,-13236,-5233,134053,66,19477,270,0,49594,0.001000000000000112
1295000,-17,3258,128740,-19080,4859,122955,108,19466,442,0,49595,0.0009999999999998899
1296002,-1714,6096,129135,-3944,286,130981,80,19476,328,0,49596,0.0010019999999999474
1297002,10467,6962,129846,-2824,3831,123040,63,19470,258,0,49597,0.001000000000000112
1298000,834,519,124825,-2771,-3769,125582,115,19470,258,1,49598,0.0009980000000000544
1299000,4350,5734,126968,-10914,2340,127555,76,19471,471,1,49599,0.0009999999999998899
1300000,3249,1638,125637,-2869,489,125916,76,19479,311,1,49600,0.001000000000000112
1301000,4956,9052,128935,-5571,3626,127993,76,19471,311,0,49601,0.0009999999999998899
1302000,1841,145,125475,-4486,-262,123474,86,19472,352,0,49602,0.001000000000000112
1303000,6765,7687,127046,-5493,3336,124293,62,19476,254,0,49603,0.0009999999999998899
1304000,9069,-1694,123993,7913,-1587,127023,81,19476,254,0,49604,0.001000000000000112
1305000,5121,10268,124674,-7758,6251,118627,95,19454,332,1,49605,0.0009999999999998899
1306000,5858,2759,124029,-5955,2709,125593,95,19472,389,1,49606,0.001000000000000112
1307000,7882,7881,125333,3685,722,124816,66,19474,270,0,49607,0.0009999999999998899
1308002,7521,-3642,122881,1352,-2494,128222,99,19471,405,0,49608,0.0010019999999999474
1309002,10379,9136,126930,-1316,4622,120420,80,19474,328,0,49609,0.001000000000000112
1310000,11348,-1098,123626,5223,-1355,126315,57,19474,328,1,49610,0.0009979999999998324
1311000,12730,6453,125773,6048,3645,121423,58,19477,233,1,49611,0.001000000000000112
1312000,8844,-1110,123929,-2935,-3505,126106,58,19476,238,1,49612,0.0009999999999998899
1313000,9486,5975,126909,238,3816,123769,77,19474,315,1,49613,0.001000000000000112
1314000,7155,-4010,124210,7424,-5836,130849,66,19469,270,0,49614,0.0009999999999998899
1315000,8832,9184,128564,-3525,6603,123591,103,19473,422,0,49615,0.001000000000000112
1316001,14034,-1567,125538,5360,-3659,128468,64,19473,422,0,49616,0.0010010000000000296
1317000,11286,8988,128354,4832,6576,120115,77,19479,262,1,49617,0.0009989999999999721
1318000,12738,-6223,126263,-1221,-11361,131902,77,19470,315,1,49618,0.0009999999999998899
1319000,8017,319,129529,2487,-1249,125845,70,19470,287,1,49619,0.001000000000000112
1320000,4065,-5398,128332,-489,-8954,135446,66,19477,270,1,49620,0.0009999999999998899
1321000,4481,6815,129976,-5340,5604,123513,85,19473,348,0,49621,0.001000000000000112
1322000,7513,4356,130261,-2998,640,129341,77,19473,348,0,49622,0.0009999999999998899
1323000,13451,611,129326,11973,483,126777,53,19476,315,0,49623,0.001000000000000112
1324000,4417,5521,130750,227,2492,125948,53,19477,217,1,49624,0.0009999999999998899
1325000,19275,-9261,129653,-24216,-11596,132239,114,19478,467,1,49625,0.001000000000000112
1326000,507,7897,135749,22697,5486,127490,75,19473,307,1,49626,0.0009999999999998899
1327001,123,-9279,130270,-2888,-13574,139866,64,19472,262,0,49627,0.0010010000000000296
1328000,-5796,313,131239,-37780,-2945,125712,99,19472,405,0,49628,0.0009989999999999721
1329002,1819,8637,134268,8794,6316,128544,67,19470,405,0,49629,0.0010020000000001694
1330000,6376,6386,126955,4389,3433,128135,68,19480,274,0,49630,0.0009979999999998324
1331000,7055,9269,132708,-22451,7147,118466,68,19467,279,1,49631,0.001000000000000112
1332000,6959,-9520,129796,5490,-12147,140695,75,19471,307,1,49632,0.0009999999999998899
1333000,2204,-5620,126070,5860,-8730,128443,76,19478,311,1,49633,0.001000000000000112
1334000,-4282,11169,134920,-21346,8409,136643,81,19478,332,0,49634,0.0009999999999998899
1335000,4835,-2659,127387,-13622,-6113,121591,89,19461,332,0,49635,0.001000000000000112
1336001,-1468,10149,128812,3406,7351,132325,62,19474,365,0,49636,0.0010010000000000296
1337000,8453,967,128256,-10783,-2468,121613,62,19474,254,0,49637,0.0009989999999999721
1338000,4708,5986,124621,-8252,-778,122399,103,19465,422,1,49638,0.0009999999999998899
1339000,4278,2843,127503,4802,633,132560,81,19474,332,1,49639,0.001000000000000112
1340000,2221,2975,125483,-3565,-1996,124594,67,19474,274,0,49640,0.0009999999999998899
1341000,3949,5031,127378,-15471,6548,126742,80,19471,274,0,49641,0.001000000000000112
1342000,4844,7453,127742,-3165,1002,124143,74,19473,328,0,49642,0.0009999999999998899
1343000,5981,2633,124229,-55,2617,122966,74,19478,303,0,49643,0.001000000000000112
1344000,9297,171,125036,-4395,-2349,127062,59,19471,242,1,49644,0.0009999999999998899
1345002,4566,6231,124004,-2306,4574,120350,152,19469,623,1,49645,0.0010020000000001694
1346002,6711,7037,124565,-803,6086,123423,75,19474,307,1,49646,0.0009999999999998899
1347002,9367,6808,126080,-4314,381,125819,77,19474,307,0,49647,0.001000000000000112
1348000,6333,-1708,123766,9230,-5816,128940,82,19468,315,0,49648,0.0009979999999998324
1349000,8890,-1116,124051,-515,-1186,123669,82,19471,336,0,49649,0.001000000000000112
1350000,12123,7307,125850,-2721,6992,120349,60,19478,246,1,49650,0.0009999999999998899
1351000,13190,7927,125689,14444,4534,123034,73,19475,299,1,49651,0.001000000000000112
1352000,6524,815,123623,-4066,-1051,124509,84,19473,344,1,49652,0.0009999999999998899
1353000,9370,1916,127117,-5191,-3071,129018,65,19473,344,1,49653,0.001000000000000112
1354000,7586,-1888,125207,13622,-1358,127126,96,19472,266,0,49654,0.0009999999999998899
1355000,6718,6190,127316,-37,2411,125616,96,19467,393,0,49655,0.001000000000000112
1356014,14687,846,126739,-3502,-670,125705,74,19476,303,0,49656,0.0010139999999998484
1357000,12458,6701,128024,8749,2621,124088,58,19470,238,1,49657,0.0009860000000001534
1358007,11757,-2531,127359,2731,-5794,128484,83,19473,340,1,49658,0.0010069999999999801
1359000,3938,36,129348,-1573,-4303,127376,72,19473,340,1,49659,0.0009930000000000216
1360002,6081,-9177,127275,648,-10529,135297,68,19479,295,0,49660,0.0010019999999999474
1361002,6487,9236,130465,-4492,8712,121257,68,19469,279,0,49661,0.001000000000000112
1362002,10868,3924,129128,3836,1364,130204,77,19475,315,0,49662,0.0009999999999998899
1363000,10195,6914,129221,7506,4739,124789,58,19479,238,0,49663,0.0009980000000000544
1364000,11148,-5537,129355,-14545,-10024,130046,78,19463,319,1,49664,0.0009999999999998899
1365000,10016,-5856,131840,4431,-6043,130683,69,19463,319,1,49665,0.001000000000000112
1366000,4112,-2368,132173,10978,-6726,136210,65,19475,283,1,49666,0.0009999999999998899
1367000,-2534,-3330,129965,-17817,-4196,129933,65,19476,266,0,49667,0.001000000000000112
1368000,1107,11018,132616,-21758,7594,123663,94,19465,385,0,49668,0.0009999999999998899
1369002,2630,8196,130922,11932,5517,130356,79,19477,324,0,49669,0.0010019999999999474
1370002,8422,2756,129496,-8025,-1146,125549,59,19475,242,1,49670,0.001000000000000112
1371000,4191,-3182,131138,-11334,-6193,130237,89,19475,242,1,49671,0.0009980000000000544
1372001,8317,-6384,128566,2530,-9288,134234,82,19472,365,1,49672,0.0010010000000000296
1373000,-2111,6523,131497,446,4194,126907,82,19472,336,1,49673,0.0009989999999999721
1374000,135,887,130202,-21210,-2837,132363,69,19469,283,0,49674,0.0009999999999998899
1375000,-2041,6718,129023,-10471,4429,123808,117,19469,479,0,49675,0.001000000000000112
1376001,3138,4831,128604,-2466,1866,129268,70,19479,287,0,49676,0.0010010000000000296
1377000,8920,4938,128384,-4633,1749,125299,75,19479,307,1,49677,0.0009989999999999721
1378000,1065,-643,125540,-2903,-3768,125437,85,19463,307,1,49678,0.0009999999999998899
1379000,4414,4084,127752,-7948,1851,127802,67,19470,348,1,49679,0.001000000000000112
1380000,2089,4498,126390,-3983,1168,125276,67,19476,274,0,49680,0.0009999999999998899
1381000,5229,4511,127394,-6826,2892,128668,85,19472,348,0,49681,0.001000000000000112
1382000,1914,3512,125241,-3872,556,120371,88,19473,360,0,49682,0.0009999999999998899
1383000,8682,6361,126803,-5103,4732,128285,58,19473,238,0,49683,0.001000000000000112
1384000,8514,-19,124212,6009,-2534,121423,107,19477,238,1,49684,0.0009999999999998899
1385000,3311,6178,124387,-5548,-1130,124700,81,19458,438,1,49685,0.001000000000000112
1386000,6388,6321,125211,-7191,8388,121807,81,19476,332,1,49686,0.0009999999999998899
1387000,8162,4274,123681,3782,-4149,128333,65,19475,266,0,49687,0.001000000000000112
1388000,7206,2106,124076,1312,5087,121814,91,19471,373,0,49688,0.0009999999999998899
1389003,10646,6076,125252,651,-1956,124877,73,19477,299,0,49689,0.0010030000000000872
1390000,12288,808,124568,9042,2634,123571,61,19477,299,1,49690,0.0009969999999999146
1391000,11254,4102,125330,3003,-1506,123826,70,19478,250,1,49691,0.001000000000000112
1392002,7046,230,124962,-5625,882,124611,70,19471,287,1,49692,0.0010019999999999474
1393000,9352,6141,126479,7974,-410,127101,71,19477,291,1,49693,0.0009980000000000544
1394000,7670,-1722,125018,2245,255,127130,75,19469,307,0,49694,0.0009999999999998899
1395000,9023,7587,127524,-3246,1542,125218,83,19476,340,0,49695,0.001000000000000112
1396000,13323,-843,126070,8509,-43,125313,58,19476,340,0,49696,0.0009999999999998899
1397000,12310,7508,128643,2957,1031,123957,95,19480,238,1,49697,0.001000000000000112
