t_us,ax,ay,az,ax1,ay1,az1,shunt_raw,bus_raw,curr_raw,pg_rpm,seq,dt
0,12658,10624,128081,-4180,10066,120561,53,19240,229,1,15812,
1002,8391,-3648,125401,-3309,-4807,127546,53,19237,217,1,15813,0.0010019999999999999
2000,5607,-4336,127643,1085,-5518,128426,81,19238,332,0,15814,0.0009980000000000002
3000,7390,-1665,129340,70,-1894,131990,75,19240,307,0,15815,0.001
4000,11878,9998,128935,-4128,8884,120820,68,19237,279,0,15816,0.001
5001,5518,-4663,126617,3471,-4303,129858,61,19237,279,0,15817,0.0010009999999999993
6000,7603,-8045,127003,-3891,-9184,130327,80,19234,250,1,15818,0.0009990000000000008
7000,11666,2102,128550,-482,1404,124712,80,19230,328,1,15819,0.0009999999999999992
8000,8179,3247,127711,2831,1661,125893,62,19236,254,1,15820,0.0010000000000000009
9000,6965,-482,128426,-5042,-287,126468,64,19240,262,1,15821,0.0009999999999999992
10000,8577,-4499,127664,-2844,-5837,132698,55,19236,225,1,15822,0.0010000000000000009
11000,10611,4011,127076,2644,2231,123872,67,19236,225,1,15823,0.0009999999999999992
12000,5003,-3050,126158,5391,-4746,126339,87,19232,274,0,15824,0.0010000000000000009
13002,7756,-2768,125483,-6137,-4357,125333,87,19240,356,0,15825,0.0010019999999999994
14000,13410,2285,128763,-1423,1770,128047,70,19238,287,0,15826,0.0009979999999999989
15000,9634,5232,128061,7470,4263,124904,62,19234,254,0,15827,0.0010000000000000009
16000,9693,-10061,127406,2673,-8120,131074,71,19234,291,1,15828,0.0010000000000000009
17000,6623,-3477,127453,-7958,-8022,130682,58,19234,291,1,15829,0.0009999999999999974
18002,11092,3984,128568,1161,3392,126630,62,19237,238,1,15830,0.0010020000000000029
19000,10149,6891,128282,9125,6116,123042,62,19239,254,1,15831,0.0009979999999999989
20000,12610,-573,126880,-4034,2643,127307,55,19237,225,1,15832,0.0010000000000000009
21001,10776,-3878,126760,-2980,-6258,127466,65,19231,266,0,15833,0.0010009999999999984
22000,6609,2057,129287,7978,-282,128585,81,19233,332,0,15834,0.0009989999999999999
23002,11453,-3403,127871,1086,-2980,129732,73,19233,299,0,15835,0.0010019999999999994
24000,7797,1510,129014,-11565,2254,124434,60,19235,299,0,15836,0.0009980000000000024
25000,8632,-323,127114,5422,-1984,129458,60,19241,246,0,15837,0.0009999999999999974
26000,10805,-403,126434,8424,-444,125239,63,19235,258,1,15838,0.0010000000000000009
27000,10192,883,126758,-7868,441,125781,93,19233,381,1,15839,0.0010000000000000009
28000,6532,5568,127324,4031,5882,125167,63,19236,258,1,15840,0.0009999999999999974
29000,10372,8183,129530,6717,7072,128583,53,19236,217,1,15841,0.0010000000000000009
30000,11095,-8210,125944,-4040,-8385,132060,54,19235,217,1,15842,0.0010000000000000009
31002,8409,138,127269,-1838,975,122403,79,19236,221,0,15843,0.0010019999999999994
32002,5609,3815,128523,7248,1291,128286,79,19236,324,0,15844,0.0009999999999999974
33000,11552,1144,127580,-3659,1175,127509,68,19240,279,0,15845,0.0009980000000000058
34000,9321,3413,127536,-5798,1849,123779,65,19238,266,0,15846,0.000999999999999994
35000,7737,4575,126918,6552,4183,124375,58,19238,238,0,15847,0.0010000000000000009
36019,11460,1198,127239,2200,-538,126642,86,19236,238,1,15848,0.001018999999999999
37000,6807,-6195,127391,-11622,-6159,131574,61,19230,352,1,15849,0.0009810000000000027
38001,5685,4831,128893,-376,5066,123424,61,19240,250,1,15850,0.0010010000000000019
39001,5684,3358,126970,4626,1728,128846,58,19236,238,1,15851,0.0010000000000000009
40000,9917,2405,126072,-386,2763,119643,54,19242,221,1,15852,0.0009989999999999999
41000,6869,3906,126364,-3225,1998,130178,73,19228,299,0,15853,0.000999999999999994
42000,8136,-4267,126905,-2616,-4273,127281,68,19228,299,0,15854,0.0010000000000000009
43001,11325,11785,131487,-4279,11512,121667,64,19233,279,0,15855,0.0010010000000000019
44000,9883,-11893,127979,5044,-12667,135084,64,19239,262,0,15856,0.0009989999999999999
45000,1773,1609,127376,2019,57,124860,57,19235,233,0,15857,0.0010000000000000009
46000,5254,-1174,127651,-9161,-2007,130645,74,19232,303,1,15858,0.0010000000000000009
47000,5646,22467,128177,-8442,20624,112962,55,19237,225,1,15859,0.0010000000000000009
48000,11804,3868,129164,13279,4368,128014,62,19237,225,1,15860,0.0010000000000000009
49000,9881,-7153,126416,480,-8305,129580,55,19242,254,1,15861,0.000999999999999994
50000,7910,-9167,127606,-13111,-9776,130927,55,19236,225,1,15862,0.0010000000000000009
51000,5394,1762,129059,5338,-589,128454,70,19230,287,0,15863,0.0010000000000000009
52001,2438,5365,128834,5752,5300,125891,77,19234,315,0,15864,0.0010010000000000019
53000,8231,4102,127123,-19527,2653,125386,74,19239,303,0,15865,0.0009989999999999999
54000,3653,6307,127455,-2207,6893,122435,63,19239,303,0,15866,0.0010000000000000009
55001,11009,-4614,125870,8022,-5846,129776,69,19240,258,0,15867,0.001000999999999995
56000,10443,1669,129383,-968,558,124616,69,19230,283,1,15868,0.0009989999999999999
57000,5708,-6424,128549,-11793,-6676,131346,105,19240,430,1,15869,0.0010000000000000009
58000,5558,3090,128977,2898,324,127480,65,19237,266,1,15870,0.0010000000000000009
59001,8124,-1844,128466,581,-565,129065,56,19242,229,1,15871,0.0010010000000000019
60003,11745,2513,125802,-2629,-311,123057,61,19242,229,1,15872,0.001001999999999996
61002,4283,986,127110,-1207,2267,123667,88,19236,250,0,15873,0.0009990000000000068
62000,7150,-2887,127744,-23,-4784,131881,88,19235,360,0,15874,0.0009979999999999989
63000,12893,3071,129251,855,7178,123649,72,19237,295,0,15875,0.0010000000000000009
64000,5308,309,128521,571,-480,130275,61,19240,250,0,15876,0.0010000000000000009
65001,7942,-2204,126806,562,-1440,123695,65,19242,266,0,15877,0.0010010000000000019
66000,10672,-8611,127222,-492,-9437,132365,95,19242,266,1,15878,0.0009989999999999999
67000,9619,7111,128330,-2685,2878,118433,64,19239,389,1,15879,0.000999999999999987
68002,7717,5243,128419,3612,6657,128849,64,19238,262,1,15880,0.0010020000000000029
69000,8519,-2236,127906,-2822,-2660,128248,59,19240,242,1,15881,0.0009979999999999989
70000,10748,-5661,126865,-3114,-7162,131306,55,19240,225,1,15882,0.0010000000000000009
71000,5254,-1713,127247,5191,-279,125930,79,19233,324,0,15883,0.0010000000000000009
72003,7299,5191,128304,527,3032,123228,70,19233,287,0,15884,0.0010030000000000039
73001,11089,-2781,127812,-5692,-2699,129841,67,19236,287,0,15885,0.0009979999999999989
74000,11043,3376,128155,390,2910,124147,61,19237,274,0,15886,0.0009989999999999999
75000,10055,-2414,127667,4771,-5128,130484,61,19240,250,0,15887,0.0010000000000000009
76000,9892,-2602,128160,-9836,-2590,126773,77,19240,315,1,15888,0.0010000000000000009
77000,7664,-2910,128724,2665,-3428,130342,69,19236,283,1,15889,0.0010000000000000009
78002,8093,3336,128732,7135,4622,126646,64,19236,262,1,15890,0.0010020000000000029
79002,13685,3108,126705,-2144,2692,123395,56,19241,262,1,15891,0.0010000000000000009
80000,12280,-6040,126566,-3243,-5085,128093,73,19239,229,1,15892,0.0009979999999999989
81003,8733,1633,127330,6857,282,127197,73,19232,299,0,15893,0.00100299999999999
82002,9578,-2482,127145,68,-2901,130275,69,19235,283,0,15894,0.0009989999999999999
83000,9934,3575,129378,-8762,3254,124691,70,19240,287,0,15895,0.0009979999999999989
84000,6207,-1794,127703,5529,-3255,129161,58,19240,238,0,15896,0.0010000000000000009
85000,9676,-784,127240,4567,-859,128075,69,19242,238,0,15897,0.0010000000000000009
86000,11768,-1775,126547,-4695,-2453,126552,68,19231,283,1,15898,0.0010000000000000009
87000,6332,7469,127450,-1717,7320,121720,68,19239,279,1,15899,0.0010000000000000009
88000,9568,5920,128886,2801,5190,125934,60,19239,246,1,15900,0.0010000000000000009
89001,12607,-2270,127501,396,-3527,129069,52,19238,213,1,15901,0.0010010000000000019
90001,10911,-3379,126976,-1082,-4377,128220,60,19233,246,0,15902,0.0010000000000000009
91000,5230,418,128058,2249,-535,125895,71,19233,246,0,15903,0.0009989999999999999
92000,9816,4671,127758,417,4014,125778,69,19236,291,0,15904,0.0010000000000000009
93000,10555,2360,127380,-7117,1711,127209,69,19237,283,0,15905,0.0010000000000000009
94000,7134,5605,127227,1594,4787,122475,59,19237,242,0,15906,0.0010000000000000009
95000,8382,448,126485,6557,-228,128657,67,19233,274,0,15907,0.0010000000000000009
96000,6830,-2160,126260,-10208,-3244,128343,91,19236,373,1,15908,0.0010000000000000009
97000,5962,663,126131,575,-3080,126968,62,19236,373,1,15909,0.000999999999999987
98000,5772,13859,129530,1544,13518,123196,52,19240,254,1,15910,0.0010000000000000009
99000,15339,-164,126637,-1588,347,125449,52,19239,213,1,15911,0.0010000000000000009
100000,6083,4215,127892,835,3667,124453,58,19235,238,1,15912,0.0010000000000000009
101000,3916,-6445,128027,-6758,-6184,129629,90,19234,369,0,15913,0.0010000000000000009
102000,10020,1615,128251,-917,621,126667,71,19240,291,0,15914,0.0010000000000000009
103000,7846,-5027,127456,-1147,-6646,133167,60,19240,291,0,15915,0.0010000000000000009
104002,6608,12549,126503,1108,9652,119716,59,19237,246,0,15916,0.0010020000000000029
105000,3744,2925,125527,-5529,3380,126527,59,19233,242,1,15917,0.0009979999999999989
106000,10913,785,126380,-8564,-154,125250,86,19239,352,1,15918,0.0010000000000000009
107000,8571,-27,127549,8197,-924,128430,62,19241,254,1,15919,0.0010000000000000009
108000,7476,3085,129343,551,1063,127546,58,19241,238,1,15920,0.0010000000000000009
109000,7171,-2437,128178,-13510,-566,125832,57,19241,238,1,15921,0.0010000000000000009
110000,6518,-6349,126787,1608,-9808,134404,81,19239,233,0,15922,0.0010000000000000009
111000,2067,10194,129151,5195,8257,120985,81,19232,332,0,15923,0.0010000000000000009
112001,8577,-3208,126880,-11375,-3,126756,71,19236,291,0,15924,0.001000999999999988
113000,6492,6147,128412,-12054,5768,124122,67,19235,274,0,15925,0.0009989999999999999
114001,9034,-662,128041,11005,3529,131928,62,19235,254,0,15926,0.0010010000000000019
115000,10003,-142,126354,4572,-4016,123289,80,19235,254,0,15927,0.0009989999999999999
116000,4338,-6737,128360,-17712,-2479,133296,73,19232,328,1,15928,0.0010000000000000009
117000,7007,-4244,126512,-874,-371,127188,60,19239,299,1,15929,0.0010000000000000009
118000,7265,11317,129199,13388,8412,123645,60,19241,246,1,15930,0.0010000000000000009
119000,10178,-1677,125460,-14102,-3203,125455,55,19237,225,1,15931,0.0010000000000000009
120000,5988,956,126401,-4650,197,126040,73,19233,299,0,15932,0.0010000000000000009
121000,5753,-3040,127273,12962,-4957,132948,71,19233,291,0,15933,0.0010000000000000009
122000,11458,6344,128834,-14879,6612,119194,72,19238,291,0,15934,0.0010000000000000009
123000,9186,-1445,128764,3488,-5235,132998,62,19242,295,0,15935,0.0010000000000000009
124000,8195,-5646,127568,12507,-4739,127761,62,19235,254,0,15936,0.0010000000000000009
125000,8272,945,128092,-14310,-426,126046,72,19232,295,1,15937,0.0010000000000000009
126001,8636,-2999,128276,-1052,-1972,127981,61,19235,250,1,15938,0.0010010000000000019
127000,6028,5571,128400,7914,4125,124178,67,19235,274,1,15939,0.0009989999999999999
128000,7954,-2384,128641,-6609,-2534,130766,57,19238,274,1,15940,0.0010000000000000009
129000,11470,425,126792,-311,724,123888,63,19237,233,1,15941,0.0010000000000000009
130000,4948,-12882,125520,7830,-13676,133240,63,19231,258,0,15942,0.0010000000000000009
131002,7783,2542,127986,-2596,2801,123454,99,19238,405,0,15943,0.0010020000000000029
132002,11425,3202,127459,-2391,1778,127188,71,19236,291,0,15944,0.0009999999999999731
133000,10486,-1059,127647,664,-1572,128151,64,19241,262,0,15945,0.0009980000000000266
134000,8210,987,128984,2936,-463,125383,66,19241,262,0,15946,0.0009999999999999731
135000,11203,-6945,127202,93,-7737,132640,77,19231,270,1,15947,0.0010000000000000009
136000,9649,3010,127948,2000,1916,123043,77,19238,315,1,15948,0.0010000000000000009
137000,8250,62,127687,852,-845,129896,64,19236,262,1,15949,0.0010000000000000009
138000,12214,3415,127975,2077,3000,123984,58,19236,238,1,15950,0.0010000000000000009
139000,12689,86,126664,818,-297,125951,59,19233,242,1,15951,0.0010000000000000009
140000,8063,-1219,127794,-284,-2030,128153,88,19233,242,0,15952,0.0010000000000000009
141000,6407,-549,128869,3769,-806,127273,74,19236,360,0,15953,0.0010000000000000009
142000,9788,-712,128456,-5883,-1804,130846,74,19235,303,0,15954,0.0010000000000000009
143000,9205,4115,127716,418,3155,123170,66,19238,270,0,15955,0.0010000000000000009
144000,8851,-2189,127314,7754,-2321,129275,61,19235,250,0,15956,0.0010000000000000009
145000,11882,1524,126553,-3977,-290,126527,82,19232,336,1,15957,0.0010000000000000009
146000,8283,4368,128217,-6524,2661,124886,62,19232,336,1,15958,0.0010000000000000009
147000,10106,4878,127386,8110,3291,126384,56,19241,254,1,15959,0.0010000000000000009
148002,9820,3122,129020,3988,3188,125151,56,19239,229,1,15960,0.0010020000000000029
149000,10543,-3689,126833,-8359,-4219,129063,51,19238,209,1,15961,0.0009979999999999989
150001,7615,-1809,127687,2996,-3361,128050,71,19235,291,0,15962,0.0010010000000000019
151000,7086,4218,128139,9251,2653,126241,69,19236,283,0,15963,0.0009989999999999999
152000,11548,2274,126132,-9622,1658,126174,67,19236,283,0,15964,0.0010000000000000009
153002,6894,5651,127395,-3171,3680,122111,61,19240,274,0,15965,0.0010020000000000029
154000,9396,884,127117,10835,1838,128447,61,19237,250,0,15966,0.0009979999999999989
155000,9152,-1588,127146,-6097,-3269,127205,76,19233,311,1,15967,0.0010000000000000009
156000,3959,531,129251,-11005,311,125972,61,19239,250,1,15968,0.0010000000000000009
157000,5311,1944,127503,7412,928,129417,58,19238,238,1,15969,0.0010000000000000009
158000,9205,-831,125729,709,-3171,125232,52,19238,238,1,15970,0.0010000000000000009
159000,10379,11610,128404,-3338,11733,120837,67,19242,213,1,15971,0.0010000000000000009
160000,8426,-6942,123917,-1277,-5886,127611,67,19229,274,0,15972,0.0010000000000000009
161000,6585,11089,132148,170,8302,122642,81,19239,332,0,15973,0.0010000000000000009
162001,12243,-7596,126633,-7410,-1465,133044,70,19236,287,0,15974,0.0010010000000000019
163000,3692,-23,128255,5205,-3997,125842,59,19238,242,0,15975,0.0009989999999999999
164001,2681,-5996,126169,-2050,-4078,131962,66,19238,270,0,15976,0.0010009999999999741
165000,9515,18076,127249,-9672,21093,111776,84,19235,270,1,15977,0.0009989999999999999
166000,6179,11036,127830,-5815,5005,129161,66,19238,344,1,15978,0.0010000000000000009
167000,13180,-6543,127116,11754,-8331,129949,66,19238,270,1,15979,0.0010000000000000009
168000,7422,-5463,126268,-2711,-5454,128008,55,19237,225,1,15980,0.0010000000000000009
169000,9801,-1411,130812,-3144,-1208,128407,61,19234,250,1,15981,0.0010000000000000009
170000,2702,364,126933,9572,-2190,128359,90,19234,369,0,15982,0.0010000000000000009
171002,5979,1055,128233,-14147,2076,127884,73,19241,369,0,15983,0.0010020000000000029
172000,6102,12338,126391,-9671,11560,118160,65,19236,299,0,15984,0.0009979999999999989
173000,4896,230,126773,5700,-2336,128222,65,19238,266,0,15985,0.0010000000000000009
174000,11006,-3197,127303,5488,-4221,128618,66,19235,270,0,15986,0.0010000000000000009
175003,6724,-5472,128515,-10570,-6078,129722,91,19232,373,1,15987,0.0010030000000000039
176000,4379,1589,128608,-2502,1155,126757,64,19232,262,1,15988,0.0009969999999999979
177000,5415,-1191,129086,5721,-2950,130586,56,19238,262,1,15989,0.0010000000000000009
178000,10835,-1205,125811,-6159,-928,125318,58,19243,229,1,15990,0.0010000000000000009
179000,9978,5706,126964,-2196,4219,120028,58,19232,238,1,15991,0.0010000000000000009
180000,4360,-4676,126187,380,-7118,129515,83,19236,340,0,15992,0.0010000000000000009
181000,11223,-451,130353,238,124,128918,73,19233,299,0,15993,0.0010000000000000009
182000,8641,2697,128025,-4554,1247,126112,66,19234,270,0,15994,0.0010000000000000009
183000,7892,476,128341,4558,-493,126385,60,19234,270,0,15995,0.0010000000000000009
184001,7682,-8786,126135,2074,-10091,133320,81,19237,246,1,15996,0.0010010000000000019
185000,9992,-2536,128173,-8934,-2537,126397,81,19234,332,1,15997,0.0009989999999999999
186000,9772,11351,128140,3871,9858,120120,63,19236,258,1,15998,0.0010000000000000009
187000,6197,438,128839,-741,15,129090,65,19239,266,1,15999,0.0010000000000000009
188000,11056,-9066,127208,-3261,-9773,132171,56,19241,229,1,16000,0.0010000000000000009
189000,6956,-2930,127354,18,-4137,129067,70,19241,229,1,16001,0.0010000000000000009
190000,7400,6423,127819,5440,5026,122906,76,19232,287,0,16002,0.0010000000000000009
191001,8817,-791,127271,-3255,-889,127072,76,19239,311,0,16003,0.0010010000000000019
192000,13177,-2456,127152,-6230,-3678,128705,68,19236,279,0,16004,0.0009989999999999999
193000,10699,5360,128389,10627,4314,123693,59,19236,242,0,16005,0.0010000000000000009
194000,9761,-2674,127303,2613,-3367,128707,71,19235,291,1,16006,0.0009999999999999731
195000,8796,-6603,127956,-8311,-7902,129915,54,19235,291,1,16007,0.0010000000000000009
196003,7093,243,128574,3061,-3312,129829,62,19240,221,1,16008,0.0010030000000000039
197000,9775,4017,126897,5299,3260,122135,62,19237,254,1,16009,0.0009969999999999979
198000,11608,1819,126868,-2247,3063,124846,54,19238,221,1,16010,0.0010000000000000009
199001,11420,-3474,125935,-3869,-3575,126819,64,19236,262,0,16011,0.0010010000000000019
200000,8755,1463,128231,9615,-374,127571,79,19235,324,0,16012,0.0009989999999999999
201000,10963,1544,129239,-2171,1859,127826,73,19235,324,0,16013,0.0010000000000000009
202000,9275,-2158,128265,-8632,-3572,127490,59,19240,299,0,16014,0.0010000000000000009
203000,6606,252,129045,5437,-877,128207,59,19237,242,0,16015,0.0010000000000000009
204000,12011,-1071,126325,6573,-1439,128390,65,19233,266,1,16016,0.0010000000000000009
205000,9231,1796,127008,-8061,192,124488,91,19236,373,1,16017,0.0010000000000000009
206005,8335,4038,127503,-1324,3548,124821,60,19236,246,1,16018,0.0010050000000000059
207000,9620,6731,128294,6383,5936,126498,52,19236,246,1,16019,0.0009949999999999959
208000,12806,-3960,126965,-1021,-1870,130056,54,19238,213,1,16020,0.0010000000000000009
209000,6918,-4827,126723,-2100,-7703,126551,54,19236,221,0,16021,0.0010000000000000009
210000,5636,4799,128087,2558,1800,126677,84,19234,344,0,16022,0.0010000000000000009
211001,11464,4392,127872,957,3594,124835,70,19235,287,0,16023,0.0010010000000000019
212006,8723,5141,127496,-8901,2877,125526,63,19237,258,0,16024,0.0010050000000000059
213000,7468,5171,127658,3850,2383,125754,61,19237,250,0,16025,0.0009939999999999949
214000,8004,-777,127156,1884,-1427,128038,87,19237,250,1,16026,0.0010000000000000009
215003,7909,-6120,126828,-4377,-4738,126128,62,19235,356,1,16027,0.0010030000000000039
216000,4092,9610,129438,-183,10010,123694,62,19241,254,1,16028,0.0009969999999999979
217000,10902,2905,126159,4520,2202,127497,58,19244,238,1,16029,0.0010000000000000009
218000,9939,8529,127313,-2638,7728,120356,56,19236,229,1,16030,0.0010000000000000009
219000,6582,-4531,127576,-6700,-6921,130571,76,19236,311,0,16031,0.0010000000000000009
220001,7126,-5668,128218,5762,-4520,128026,69,19234,311,0,16032,0.0010010000000000019
221000,6603,-2514,129131,-6754,-3592,132873,65,19235,283,0,16033,0.0009989999999999999
222000,9426,5333,128481,-2303,6802,120370,65,19237,266,0,16034,0.0010000000000000009
223000,1847,12271,126813,2397,9359,124283,58,19236,238,0,16035,0.0010000000000000009
224002,11012,-2139,125517,-7788,-2375,128871,73,19235,299,1,16036,0.0010019999999999751
225000,7005,4722,126510,-632,2772,121192,58,19240,238,1,16037,0.0009979999999999989
226003,8684,-2306,129069,4334,-3072,132131,60,19240,238,1,16038,0.0010030000000000039
227001,9845,1015,128598,1783,3,124895,53,19236,246,1,16039,0.0009979999999999989
228002,7042,-7564,128486,-9914,-8815,133276,53,19236,217,1,16040,0.0010010000000000019
229000,4381,4037,128154,-2334,3549,123424,69,19233,283,0,16041,0.0009979999999999989
230000,1848,6447,128277,6032,5380,125739,74,19236,303,0,16042,0.0010000000000000009
231000,8522,6549,127481,-11696,5737,125045,74,19236,303,0,16043,0.0010000000000000009
232000,7728,3602,128423,-4402,3389,122160,65,19236,303,0,16044,0.0010000000000000009
233000,9517,-4979,127750,10939,-5974,132203,70,19236,266,0,16045,0.0010000000000000009
234001,9060,-1863,128634,-4723,-2864,126284,70,19228,287,1,16046,0.0010010000000000019
235003,4156,-8002,127704,-12534,-9280,131717,101,19241,414,1,16047,0.0010020000000000029
236000,5824,9508,129246,7380,8244,123957,60,19242,246,1,16048,0.0009969999999999979
237002,8531,1008,127048,-52,575,127746,55,19239,225,1,16049,0.0010020000000000029
238000,10644,2595,126646,-11492,1166,122606,63,19239,225,1,16050,0.0009979999999999989
239000,6260,-3884,126923,7039,-4190,129305,90,19232,258,0,16051,0.0010000000000000009
240002,7062,-681,127513,9748,-4006,130712,90,19236,369,0,16052,0.0010020000000000029
241000,9701,4009,128892,-14124,4159,124032,72,19236,295,0,16053,0.0009979999999999989
242000,6481,-989,127964,-2587,-2161,129033,60,19239,246,0,16054,0.0010000000000000009
243000,10009,1157,128066,13501,1355,124673,64,19236,262,0,16055,0.0010000000000000009
244000,9492,-8085,127388,-5727,-8538,131526,90,19236,262,1,16056,0.0010000000000000009
245000,5514,-57,128624,-12646,-2126,124391,70,19236,369,1,16057,0.0010000000000000009
246000,8307,1660,129197,10074,1896,128327,70,19233,287,1,16058,0.0010000000000000009
247000,10445,3355,128537,6289,3617,125682,60,19240,246,1,16059,0.0010000000000000009
248000,10581,-3693,125942,-13458,-391,124935,59,19234,242,1,16060,0.0010000000000000009
249000,6583,-6890,126314,3232,-9832,132347,82,19236,336,0,16061,0.0010000000000000009
250000,9222,5364,128936,8963,4653,123024,73,19236,336,0,16062,0.0010000000000000009
251000,11092,-1501,128362,-6477,-1768,128907,67,19235,299,0,16063,0.0010000000000000009
252000,5093,271,127702,-3412,-490,125444,67,19239,274,0,16064,0.0010000000000000009
253000,10159,-5050,126160,9665,-5892,130597,60,19237,246,0,16065,0.0010000000000000009
254000,11928,8028,128187,-539,3067,120230,81,19234,332,1,16066,0.0010000000000000009
255000,11831,-2437,127978,-7329,1854,131970,61,19240,250,1,16067,0.0010000000000000009
256000,10706,-2274,127877,11568,-6159,125197,59,19240,242,1,16068,0.0010000000000000009
257000,10631,3175,129036,3442,4194,128134,57,19237,242,1,16069,0.0010000000000000009
258000,10694,-2569,126305,-10251,-1127,124922,72,19237,233,1,16070,0.0010000000000000009
259001,5024,5240,129013,5170,3462,126515,72,19234,295,0,16071,0.0010009999999999741
260000,10852,-1294,127177,5414,-2256,129661,69,19235,283,0,16072,0.0009990000000000276
261000,11529,3616,127929,-10899,2626,122175,69,19237,283,0,16073,0.0010000000000000009
262000,9020,-5954,127162,13847,-6083,133621,62,19237,254,0,16074,0.0010000000000000009
263000,8280,-414,125311,-3480,1678,123908,71,19239,254,0,16075,0.0010000000000000009
264001,9820,1974,127937,-10252,4278,127473,65,19232,291,1,16076,0.0010009999999999741
265000,5243,2992,126724,6231,2240,126358,65,19240,266,1,16077,0.0009990000000000276
266002,7448,6571,127369,1379,6272,124004,58,19241,238,1,16078,0.0010019999999999474
267001,11770,-2907,127766,-4916,-5170,129913,51,19239,209,1,16079,0.0009990000000000276
268000,11889,-3719,125710,5166,-3485,124275,64,19239,262,0,16080,0.0009989999999999721
269000,8177,3580,129458,4767,2615,129188,72,19232,262,0,16081,0.0010000000000000009
270000,10849,2779,128522,-6908,2668,125416,70,19236,295,0,16082,0.0010000000000000009
271003,9129,4150,127884,-2931,2714,125571,70,19241,287,0,16083,0.0010030000000000316
272000,4913,1302,128043,5903,641,127494,58,19242,238,0,16084,0.0009969999999999701
273002,9051,-1744,126049,-800,-2722,125722,64,19237,262,0,16085,0.0010020000000000029
274000,7613,15,127686,-8136,-1007,129268,95,19236,389,1,16086,0.0009979999999999989
275000,5219,5994,127826,-2929,4391,123804,64,19236,389,1,16087,0.0010000000000000009
276000,8712,-1141,124872,5647,-2017,127450,54,19240,262,1,16088,0.0010000000000000009
277000,8680,10701,128169,19,10311,121440,54,19240,221,1,16089,0.0010000000000000009
278000,10198,-8344,124361,-6000,-9418,132805,59,19233,242,0,16090,0.0010000000000000009
279000,4734,4486,129485,-974,3650,122320,88,19239,360,0,16091,0.0010000000000000009
280001,10248,8578,129389,-7479,7951,125026,69,19240,283,0,16092,0.0010010000000000296
281000,14555,-2717,128114,5238,-3839,130309,61,19240,283,0,16093,0.0009989999999999721
282000,-418,-4687,126550,-4032,-5914,128824,62,19236,250,0,16094,0.0010000000000000009
283000,9112,5236,126464,-2964,3383,124898,62,19232,254,1,16095,0.0010000000000000009
284000,5563,18933,127880,-9421,18246,116108,90,19240,369,1,16096,0.0010000000000000009
285000,12849,-7102,128000,6770,-5489,132945,62,19235,254,1,16097,0.0010000000000000009
286000,6090,-6145,125275,4819,-8951,130495,60,19239,246,1,16098,0.0010000000000000009
287000,7642,2475,130307,-14608,2270,125029,57,19239,246,1,16099,0.0010000000000000009
288002,7669,708,126836,2759,-310,127069,85,19237,233,0,16100,0.0010020000000000029
289002,1315,-1758,128089,7442,-3109,130882,85,19235,348,0,16101,0.0010000000000000009
290002,8531,7264,127740,-15597,4997,123500,74,19237,303,0,16102,0.0010000000000000009
291000,4097,4950,127525,-7933,6005,122096,72,19238,295,0,16103,0.0009979999999999989
292000,9922,-3787,127005,8294,-4384,129920,63,19237,258,0,16104,0.0010000000000000009
293000,8866,-3084,127732,6287,-3343,128094,81,19237,258,1,16105,0.0010000000000000009
294000,6732,1925,128697,-18357,-602,127109,72,19230,332,1,16106,0.0010000000000000009
295000,4316,-796,128710,2391,-231,127862,72,19241,295,1,16107,0.0010000000000000009
296000,6753,-6085,127346,5271,-6298,132530,61,19237,250,1,16108,0.0010000000000000009
297001,11836,4881,127422,-6118,7638,119273,54,19237,221,1,16109,0.0010009999999999741
298000,5251,-583,126913,-2941,942,127002,72,19233,295,0,16110,0.0009990000000000276
299000,6070,-3685,127434,1343,-5663,130210,73,19233,299,0,16111,0.0010000000000000009
300000,10048,1444,128767,77,62,126838,71,19239,299,0,16112,0.0010000000000000009
301001,9173,7783,128242,-6132,5702,121650,60,19237,291,0,16113,0.0010009999999999741
302001,6847,-5346,126790,5445,-2280,133431,60,19241,246,0,16114,0.0010000000000000009
303001,10609,-10534,127437,378,-13009,130003,73,19232,299,1,16115,0.0010000000000000009
304000,11092,6168,128666,-4422,2504,120274,66,19240,270,1,16116,0.0009990000000000276
305000,5303,5913,129624,2501,2709,127061,68,19240,279,1,16117,0.0010000000000000009
306001,7774,-3319,127788,-3860,-5542,131041,57,19236,279,1,16118,0.0010009999999999741
307001,9703,-5604,127364,-1048,-4500,130199,64,19238,233,1,16119,0.0010000000000000009
308002,7670,4774,127763,698,4210,121652,64,19236,262,0,16120,0.0010010000000000296
309000,6787,-907,127868,1618,-3245,128359,98,19236,401,0,16121,0.0009979999999999989
310000,11666,-4486,127816,-6675,-3396,128963,71,19235,291,0,16122,0.0010000000000000009
311000,12803,3928,128920,5628,3720,124336,65,19235,266,0,16123,0.0010000000000000009
312000,8240,2818,128167,5622,1523,127434,66,19238,266,0,16124,0.0010000000000000009
313003,10554,-6192,127252,-6738,-7506,130225,78,19239,270,1,16125,0.0010029999999999761
314002,5753,-6399,125715,-1309,-5416,129789,78,19236,319,1,16126,0.0009990000000000276
315000,9803,7351,129102,9249,7353,123013,64,19241,262,1,16127,0.0009979999999999989
316000,9778,6506,127320,855,4580,124148,56,19240,229,1,16128,0.0010000000000000009
317000,12834,-6411,126259,-7577,-6213,129637,59,19240,242,1,16129,0.0010000000000000009
318000,9086,828,127567,8819,445,126101,89,19233,242,0,16130,0.0010000000000000009
319000,7025,2195,129041,3914,1708,128512,76,19237,365,0,16131,0.0010000000000000009
320000,11206,-356,128253,-9239,-1253,125888,76,19235,311,0,16132,0.0010000000000000009
321000,5886,-2576,128601,-1328,-3371,129589,63,19236,258,0,16133,0.0010000000000000009
322000,10507,579,127634,10435,195,127600,59,19236,242,0,16134,0.0010000000000000009
323000,10687,-140,126734,-3619,-1319,124924,81,19236,332,1,16135,0.0010000000000000009
324000,8356,1839,127310,-6365,1256,125785,60,19236,332,1,16136,0.0010000000000000009
325000,8451,6907,128219,6429,6292,124113,58,19241,246,1,16137,0.0010000000000000009
326000,11803,2238,127678,3653,1624,128690,58,19239,238,1,16138,0.0010000000000000009
327000,11748,-4214,126207,-3983,-5168,126781,53,19237,217,1,16139,0.0010000000000000009
328000,5511,-502,127502,-818,-2006,127014,72,19231,295,0,16140,0.0009999999999999454
329002,7577,4757,127677,6429,3365,127697,67,19235,274,0,16141,0.0010020000000000029
330002,10489,6894,128311,-7363,6067,125840,65,19235,274,0,16142,0.0010000000000000009
331000,8073,1364,127444,-5188,337,126543,59,19238,266,0,16143,0.0009979999999999989
332000,8274,982,126782,7540,689,125528,59,19237,242,0,16144,0.0010000000000000009
333001,10224,-1144,127374,1210,-2233,125278,77,19228,315,1,16145,0.0010010000000000296
334000,5888,994,128693,-10308,996,129086,63,19240,258,1,16146,0.0009989999999999721
335000,5296,3043,127807,582,1504,125858,59,19241,242,1,16147,0.0010000000000000009
336001,10617,9699,128193,4119,8750,122607,53,19241,242,1,16148,0.0010010000000000296
337000,10939,3302,126731,1857,4661,123935,65,19239,217,1,16149,0.0009989999999999721
338000,3579,-13181,125970,-11577,-14893,132627,65,19232,266,0,16150,0.0010000000000000009
339000,9138,4614,130271,4479,2044,126584,81,19233,332,0,16151,0.0010000000000000009
340001,10062,3254,127013,3304,2597,127685,72,19239,295,0,16152,0.0010010000000000296
341000,3345,8059,128616,-14497,6313,121173,59,19236,242,0,16153,0.0009989999999999721
342002,6182,-8430,124385,5596,-6559,133036,66,19236,242,0,16154,0.0010020000000000029
343000,7759,6634,127027,5587,62,126573,76,19231,270,1,16155,0.0009979999999999989
344000,5793,9858,129333,-22969,13369,116048,76,19241,311,1,16156,0.0010000000000000009
345000,12909,-5368,128099,15248,-5571,132445,63,19234,258,1,16157,0.0010000000000000009
346000,8819,-2217,127975,6897,-1626,128776,55,19241,225,1,16158,0.0010000000000000009
347000,9629,-4758,128973,-21206,-3091,125981,63,19233,258,1,16159,0.0010000000000000009
348000,-470,4182,127002,6693,493,128145,87,19233,356,0,16160,0.0010000000000000009
349000,6987,4617,128690,4835,3684,124733,73,19234,356,0,16161,0.0010000000000000009
350000,8813,7191,126377,-19121,6302,121753,64,19240,299,0,16162,0.0010000000000000009
351000,5423,-1723,127138,3033,906,131275,64,19238,262,0,16163,0.0010000000000000009
352000,8965,-5481,126131,9162,-5607,126917,65,19235,266,0,16164,0.0010000000000000009
353002,6252,-906,128964,-10351,-745,127208,94,19235,385,1,16165,0.0010020000000000029
354000,5187,3228,128207,-8132,2300,127887,62,19242,254,1,16166,0.0009979999999999989
355002,4664,-1635,128141,10888,-4102,130408,56,19242,254,1,16167,0.0010020000000000029
356002,11258,62,126974,-10682,957,123690,58,19240,229,1,16168,0.0010000000000000009
357002,10367,3832,127080,7560,1450,124083,58,19234,238,1,16169,0.0010000000000000009
358000,5407,-2227,127249,-1340,-3460,129970,81,19235,332,0,16170,0.0009979999999999989
359000,10419,-364,129408,-5525,141,127215,72,19237,295,0,16171,0.0010000000000000009
360000,8299,1709,127891,-2110,1649,127152,66,19237,270,0,16172,0.0010000000000000009
361001,8348,4804,128462,6056,2672,122711,61,19239,270,0,16173,0.0010009999999999741
362000,7373,-11296,126699,-749,-13333,134492,84,19239,250,1,16174,0.0009990000000000276
363029,9755,-8057,127314,-6833,-6376,127446,84,19237,344,1,16175,0.0010290000000000021
364000,9666,5897,127665,2907,4218,121726,62,19233,254,1,16176,0.0009709999999999996
365000,6681,5854,129666,-2195,3887,127895,64,19240,262,1,16177,0.0010000000000000009
366000,11925,-3731,126452,-1684,-4911,128152,54,19241,221,1,16178,0.0010000000000000009
367000,7744,-6117,126677,80,-7109,130994,69,19241,221,1,16179,0.0010000000000000009
368000,8110,5324,127407,3344,4467,121891,79,19232,283,0,16180,0.0010000000000000009
369000,8953,-855,127384,-980,-2189,127969,79,19234,324,0,16181,0.0010000000000000009
370000,11966,-130,127849,-7304,-639,127211,70,19241,287,0,16182,0.0010000000000000009
371001,9765,605,127642,9255,-668,127213,62,19241,254,0,16183,0.0010009999999999741
372000,8933,-3561,127689,3170,-4674,129994,70,19231,287,1,16184,0.0009990000000000276
373000,10105,-2471,127440,-7678,-3538,126279,53,19231,287,1,16185,0.0010000000000000009
374000,8156,1334,128671,4176,369,128290,63,19238,217,1,16186,0.0010000000000000009
375000,11050,6678,128122,6666,6010,124431,63,19238,258,1,16187,0.0010000000000000009
376000,11662,-461,126831,-2697,-612,126502,55,19240,225,1,16188,0.0010000000000000009
377000,9924,-2830,127224,-3542,-3531,127777,65,19233,266,0,16189,0.0010000000000000009
378000,7682,1071,128236,8826,4,127214,73,19235,299,0,16190,0.0010000000000000009
379002,10209,495,129056,-2893,-206,128664,71,19235,299,0,16191,0.0010020000000000029
380000,10803,-836,128158,-7859,-2258,126964,62,19238,291,0,16192,0.0009979999999999989
381000,7260,-1738,127373,5889,-3683,127878,62,19239,254,0,16193,0.0010000000000000009
382000,11284,869,126896,3303,564,127058,63,19236,258,1,16194,0.0010000000000000009
383000,8506,-171,125845,-9731,-1150,126003,97,19237,397,1,16195,0.0010000000000000009
384000,7209,4551,128331,2562,3363,126738,61,19241,250,1,16196,0.0010000000000000009
385000,9532,5371,128233,4249,4567,125303,53,19241,250,1,16197,0.0010000000000000009
386000,12906,-838,127759,-2580,-187,126548,55,19242,217,1,16198,0.0010000000000000009
387000,9003,-5280,127205,121,-5899,129648,55,19235,225,0,16199,0.0009999999999999454
388000,6393,2673,128151,3700,-595,126493,83,19236,340,0,16200,0.0010000000000000009
389000,11334,5615,128721,-1031,5702,125295,70,19239,287,0,16201,0.0010000000000000009
390003,8383,3385,127339,-8635,3155,124701,62,19238,254,0,16202,0.0010030000000000316
391001,8178,1497,126951,6200,657,126248,61,19238,254,0,16203,0.0009979999999999989
392000,9026,407,127176,3288,-28,127211,86,19236,250,1,16204,0.0009989999999999721
393000,7399,-1479,127155,-11466,-2721,127461,65,19232,352,1,16205,0.0010000000000000009
394000,5836,-3986,124973,1423,-6607,124618,65,19237,266,1,16206,0.0010000000000000009
395000,6664,15601,129024,4228,11953,120657,58,19238,238,1,16207,0.0010000000000000009
396003,14937,1528,125403,-6578,6129,129440,56,19240,229,1,16208,0.0010030000000000316
397000,4452,424,126318,5451,-4917,125361,75,19240,307,0,16209,0.0009969999999999701
398000,3521,2974,129840,-11914,4709,124824,69,19230,307,0,16210,0.0010000000000000009
399000,13290,-347,129098,1765,-4446,131887,64,19240,283,0,16211,0.0010000000000000009
400000,3596,-8496,127493,618,-6298,128945,64,19235,262,0,16212,0.0010000000000000009
401000,6964,10343,127274,-1719,10303,121359,57,19236,233,0,16213,0.0010000000000000009
402000,4611,9679,126126,-1332,9282,121226,76,19229,311,1,16214,0.0010000000000000009
403000,10575,3571,127625,-4152,-562,126160,55,19229,225,1,16215,0.0010000000000000009
404001,9433,-7623,127192,19380,-9005,133996,60,19236,225,1,16216,0.0010010000000000296
405000,6339,2258,129207,-11318,3382,123439,55,19237,246,1,16217,0.0009989999999999721
406000,7101,1663,128540,-14686,-1372,127470,55,19239,225,1,16218,0.0010000000000000009
407000,5014,-7166,126784,13929,-7032,132966,70,19233,287,0,16219,0.0010000000000000009
408001,5579,9371,128717,3224,10440,121902,73,19232,299,0,16220,0.0010010000000000296
409000,3984,5871,126498,-25867,3962,122458,72,19238,295,0,16221,0.0009989999999999721
410000,7139,1383,128168,2440,953,125885,62,19238,295,0,16222,0.0010000000000000009
411000,10712,-4603,127955,17124,-6165,133731,71,19239,254,0,16223,0.0010000000000000009
412000,9395,-2121,128607,-11466,-2261,124585,71,19232,291,1,16224,0.0010000000000000009
413000,4295,-2395,130006,-12659,-4654,128113,109,19238,446,1,16225,0.0010000000000000009
414000,4444,-5583,127681,10683,-6522,132675,66,19244,270,1,16226,0.0010000000000000009
415000,12408,12389,129594,-3533,12216,118493,56,19239,229,1,16227,0.0010000000000000009
416000,11103,618,125762,-3799,-1285,126482,65,19239,229,1,16228,0.0010000000000000009
417000,5427,-5631,126149,2559,-7099,127970,84,19235,266,0,16229,0.0010000000000000009
418000,4995,-3545,127733,-1077,-5026,132771,84,19238,344,0,16230,0.0010000000000000009
419001,11309,8666,129175,-5301,8001,122331,74,19236,303,0,16231,0.0010009999999999741
420002,8184,2824,127983,7579,1619,126742,62,19238,254,0,16232,0.0010010000000000296
421002,5466,-10984,126297,-3211,-11802,132897,64,19233,262,0,16233,0.0010000000000000009
422000,11823,1804,127923,-7682,927,123341,91,19233,262,1,16234,0.0009979999999999989
423000,8581,3167,128756,8690,2254,127472,66,19238,373,1,16235,0.0010000000000000009
424000,6759,3527,128737,-2110,2585,124314,66,19238,270,1,16236,0.0010000000000000009
425006,8213,-7165,128250,-7529,-7538,133044,59,19238,242,1,16237,0.0010060000000000069
426003,10474,3589,128050,3026,2082,125753,59,19238,242,1,16238,0.0009969999999999701
427000,7064,-968,126947,6210,-1102,126458,82,19233,336,0,16239,0.0009970000000000256
428001,6554,-2228,127436,-4534,-3485,127006,74,19233,336,0,16240,0.0010009999999999741
429001,12399,2221,128350,-3748,1871,125216,65,19239,303,0,16241,0.0010000000000000009
430000,9001,340,128236,6484,-839,127907,65,19237,266,0,16242,0.0009990000000000276
431000,8818,-7329,128463,4999,-4500,126660,59,19237,242,0,16243,0.0010000000000000009
432002,8456,-7783,126283,-4400,-9449,133053,81,19235,332,1,16244,0.0010020000000000029
433000,8317,2524,127569,-2497,913,124858,64,19238,262,1,16245,0.0009979999999999989
434000,11052,5772,128132,8435,5067,125932,62,19238,262,1,16246,0.0010000000000000009
435000,13067,1295,126698,365,1030,125702,57,19239,254,1,16247,0.0010000000000000009
436000,12850,-546,126759,-5758,-250,123625,57,19237,233,1,16248,0.0010000000000000009
437000,6169,-868,128330,7259,-1896,129879,75,19229,307,0,16249,0.0010000000000000009
438000,9769,-1567,127849,3760,-1226,128202,70,19238,287,0,16250,0.0010000000000000009
439000,8888,-2088,128538,-10461,-2283,129099,70,19237,287,0,16251,0.0010000000000000009
440000,7640,4599,127798,406,3370,124099,60,19237,246,0,16252,0.0010000000000000009
441000,10970,-3192,126229,11219,-1579,130422,72,19236,246,0,16253,0.0010000000000000009
442000,10534,-179,126958,-5424,-2931,123410,62,19236,295,1,16254,0.0010000000000000009
443000,6521,4625,126883,-5423,3525,125483,62,19238,254,1,16255,0.0010000000000000009
444000,8906,6229,128277,6692,5481,126238,58,19241,238,1,16256,0.0010000000000000009
445000,12361,-796,127370,3911,-4526,129912,51,19240,209,1,16257,0.0010000000000000009
446000,9642,-4369,126359,-6696,-4177,127968,64,19240,262,1,16258,0.0010000000000000009
447000,6938,5929,127926,2176,4989,124463,73,19234,262,0,16259,0.0009999999999999454
448000,10508,2634,127863,10830,3836,127668,69,19236,299,0,16260,0.0010000000000000009
449000,10959,960,126890,-9638,130,124382,69,19236,283,0,16261,0.0010000000000000009
450003,6442,3944,127317,6289,4527,123808,60,19241,246,0,16262,0.0010030000000000316
451000,9654,3362,127103,3160,829,128270,66,19232,270,0,16263,0.0009969999999999701
452000,8201,-4161,127481,-11294,-4401,127488,89,19232,365,1,16264,0.0010000000000000009
453000,4314,2063,127886,-2341,660,128350,62,19238,365,1,16265,0.0010000000000000009
454000,5209,2919,128086,3137,1074,127779,52,19236,254,1,16266,0.0010000000000000009
455000,10437,-764,125371,-379,923,121000,52,19238,213,1,16267,0.0010000000000000009
456000,8806,10892,127717,1913,8882,126049,59,19239,242,1,16268,0.0010000000000000009
457000,6554,-8697,124740,-5626,-8746,129634,90,19234,369,0,16269,0.0010000000000000009
458000,10377,13118,130190,-8139,12017,121548,70,19237,287,0,16270,0.0010000000000000009
459000,12069,-9638,126360,6931,-11584,135314,61,19237,287,0,16271,0.0010000000000000009
460000,3504,-258,127321,3418,-1376,124967,60,19239,250,0,16272,0.0010000000000000009
461000,2372,-7771,125126,-11402,-8783,133158,60,19235,246,1,16273,0.0010000000000000009
462000,8258,16819,127665,-7939,17112,114604,85,19236,348,1,16274,0.0010000000000000009
463000,10124,12573,128722,6918,11553,124025,60,19240,246,1,16275,0.0010000000000000009
464000,11111,-4616,127773,3199,-6173,129814,58,19239,238,1,16276,0.0010000000000000009
465000,8666,-8873,127353,-12295,-9073,131045,59,19239,238,1,16277,0.0010000000000000009
466000,7613,-2064,129978,2023,-3232,129375,81,19239,242,0,16278,0.0010000000000000009
467000,2131,3687,128185,6912,2430,126227,81,19233,332,0,16279,0.0010000000000000009
468000,8622,2286,127408,-13344,1411,127345,73,19233,299,0,16280,0.0010000000000000009
469000,3867,8479,126385,-12318,7481,120528,68,19236,279,0,16281,0.0010000000000000009
470000,8346,-615,126948,10715,-555,127925,62,19236,254,0,16282,0.0010000000000000009
471000,10242,-1439,127056,3486,-2713,126637,83,19236,254,0,16283,0.0010000000000000009
472000,6482,-5789,128674,-13586,-6291,130380,74,19232,340,1,16284,0.0010000000000000009
473001,3983,1158,127611,-829,-1252,129136,74,19239,303,1,16285,0.0010010000000000296
474000,6496,442,129331,6053,825,128693,58,19237,238,1,16286,0.0009989999999999721
475000,12342,-632,125289,-5316,-2249,125976,55,19236,225,1,16287,0.0010000000000000009
476000,5914,5063,128012,-4017,5264,120690,69,19232,283,0,16288,0.0010000000000000009
477000,5657,-1864,127603,832,-3701,131529,71,19232,283,0,16289,0.0010000000000000009
478000,12624,3273,129772,513,2850,125323,71,19237,291,0,16290,0.0010000000000000009
479000,8050,-1950,127616,-3645,-2950,129208,71,19237,291,0,16291,0.0010000000000000009
480000,5802,-2471,127336,4485,-3192,125073,61,19237,250,0,16292,0.0010000000000000009
481000,8327,-10532,125559,599,-9461,132005,70,19232,287,1,16293,0.0010000000000000009
482000,10678,1728,128742,-5557,-1395,128591,67,19236,274,1,16294,0.0010000000000000009
483000,7091,10968,128284,3330,10914,117924,68,19236,274,1,16295,0.0010000000000000009
484000,7424,-3229,128604,-2054,-2017,131045,59,19240,279,1,16296,0.0010000000000000009
485003,10408,-5382,126535,-2644,-6490,129366,59,19237,242,1,16297,0.0010029999999999761
486000,6412,-6338,127407,2330,-8417,131887,63,19233,258,0,16298,0.0009970000000000256
487000,7161,8508,128539,3060,5431,121850,97,19237,397,0,16299,0.0010000000000000009
488000,10549,-1624,127587,-5260,1124,131870,71,19238,291,0,16300,0.0010000000000000009
489000,13050,-803,127897,-3752,-4206,124466,62,19238,254,0,16301,0.0010000000000000009
490000,9843,3161,128495,10467,3744,127930,65,19236,254,0,16302,0.0010000000000000009
491000,11127,-4541,127351,419,-4910,127685,75,19234,266,1,16303,0.0010000000000000009
492000,7480,-1320,128790,-7227,-2133,129552,75,19239,307,1,16304,0.0010000000000000009
493002,7755,-2493,127866,6050,-876,130393,63,19239,258,1,16305,0.0010020000000000029
494000,10722,9021,127922,5915,7988,119657,56,19238,229,1,16306,0.0009979999999999989
495000,11658,-1611,125690,-3973,-4313,128427,57,19238,233,1,16307,0.0010000000000000009
496000,9196,-656,126969,-1875,1283,126067,86,19236,233,0,16308,0.0010000000000000009
497000,8032,1672,129064,5240,2264,131076,74,19238,352,0,16309,0.0010000000000000009
498000,10257,-2147,126953,-8791,-1584,126025,74,19236,303,0,16310,0.0010000000000000009
499000,7434,-162,128700,-363,-1277,127105,67,19240,274,0,16311,0.0010000000000000009
500000,7898,-2717,127495,8291,-3873,129966,58,19236,238,0,16312,0.0010000000000000009
501000,12173,-102,126364,-3855,263,126299,82,19236,336,1,16313,0.0010000000000000009
502000,7797,3647,127736,-5972,3441,123513,58,19235,336,1,16314,0.0010000000000000009
503000,8744,6237,127641,6480,6123,124365,54,19240,238,1,16315,0.0010000000000000009
504000,11320,4054,128692,2664,2197,127076,54,19240,221,1,16316,0.0010000000000000009
505000,12446,-6916,126155,-3932,-7864,129595,52,19240,213,1,16317,0.0010000000000000009
506003,5919,-2633,127908,2623,-3411,126798,71,19236,291,0,16318,0.0010029999999999761
507000,6684,2825,127157,3674,1967,126752,68,19240,279,0,16319,0.0009970000000000256
508003,10778,6958,127562,-7297,6130,124567,66,19240,279,0,16320,0.0010029999999999761
509000,7413,2678,126833,-3481,1457,125959,56,19240,270,0,16321,0.0009970000000000256
510000,8425,1513,127044,7604,851,126812,56,19239,229,0,16322,0.0010000000000000009
511003,9119,-1769,127459,-5477,-2706,127338,75,19231,307,1,16323,0.0010029999999999761
512000,6487,-5390,126904,-2889,-5512,127155,61,19246,250,1,16324,0.0009970000000000256
513000,4950,13962,130024,2889,12974,123501,60,19238,246,1,16325,0.0010000000000000009
514000,12721,2576,126087,2544,1860,128913,52,19238,246,1,16326,0.0010000000000000009
515000,8061,8019,126990,-2175,7259,121718,65,19236,213,1,16327,0.0010000000000000009
516001,4572,-3766,128928,-8774,-3641,127800,65,19234,266,0,16328,0.0010009999999999186
517001,9057,-2416,129845,9731,-2858,127567,81,19239,332,0,16329,0.0010000000000000009
518003,5623,-6756,126718,-8348,-7576,135614,69,19240,283,0,16330,0.0010020000000000584
519000,7974,9268,128105,-3846,6623,118515,58,19238,238,0,16331,0.0009970000000000256
520000,2303,9206,125819,6507,9164,126261,67,19238,238,0,16332,0.0010000000000000009
521000,11086,-630,125369,-12309,-1917,126908,80,19233,274,1,16333,0.0010000000000000009
522000,6515,2999,127151,-1668,2733,121640,80,19239,328,1,16334,0.0010000000000000009
523001,11401,-3498,128640,10063,-5517,134869,62,19238,254,1,16335,0.0010009999999999186
524003,9559,2355,128347,-3220,1411,122023,54,19238,221,1,16336,0.0010020000000000584
525002,5457,-9113,128195,-9960,-9612,135005,62,19239,254,1,16337,0.0009989999999999721
526000,3460,10577,128019,634,6883,121595,85,19239,254,0,16338,0.0009980000000000544
527000,5117,-316,127270,3969,1762,128834,76,19233,348,0,16339,0.0010000000000000009
528000,8733,5857,126867,-15377,2190,123995,76,19235,311,0,16340,0.0010000000000000009
529000,7078,253,128057,1522,4291,122624,68,19237,279,0,16341,0.0010000000000000009
530000,8865,-4597,127196,9495,-6679,133865,67,19237,274,0,16342,0.0010000000000000009
531000,7615,-830,129073,-8492,3799,123086,92,19233,377,1,16343,0.0010000000000000009
532002,1660,-6421,127515,-6623,-12278,136506,62,19233,254,1,16344,0.0010019999999999474
533000,7174,13978,129646,7930,12040,118428,58,19235,254,1,16345,0.0009980000000000544
534001,9770,-4719,125701,-2038,-1581,129605,57,19238,238,1,16346,0.0010009999999999186
535009,9939,2735,126673,-10392,-1388,119618,57,19240,233,1,16347,0.0010080000000000089
536008,7767,-3686,127427,7876,-1497,135529,84,19232,344,0,16348,0.0009989999999999721
537000,9006,1094,128262,8751,-3633,121847,72,19238,295,0,16349,0.0009919999999999929
538000,8230,1622,128374,-17142,4461,129533,64,19238,262,0,16350,0.0010000000000000009
539000,7296,-3570,126922,2068,-1684,127611,60,19236,262,0,16351,0.0010000000000000009
540001,9967,4525,128039,13137,855,124157,82,19236,246,1,16352,0.0010010000000000296
541000,7899,-8032,127803,-11161,-7348,130664,82,19233,336,1,16353,0.0009989999999999721
542000,7540,2224,127939,-8879,2655,123861,63,19241,258,1,16354,0.0010000000000000009
543002,8561,-171,128425,11790,-1373,132883,65,19237,266,1,16355,0.0010020000000000584
544002,9609,4422,127917,-10764,4853,121308,54,19237,221,1,16356,0.0010000000000000009
545002,9152,-5460,126101,-3974,-8854,131069,71,19237,221,1,16357,0.0010000000000000009
546000,8224,-2770,127866,13054,-588,127099,77,19229,291,0,16358,0.0009979999999999434
547000,10244,4757,128888,-9881,2429,124697,77,19235,315,0,16359,0.0010000000000000009
548000,12356,-8488,127824,-8409,-9716,130472,69,19234,283,0,16360,0.0010000000000000009
549000,5660,3397,127687,15324,727,126907,62,19240,254,0,16361,0.0010000000000000009
550001,9111,-6927,125474,-4624,-7384,132219,71,19229,291,1,16362,0.0010010000000000296
551000,11271,8515,128771,-7202,8003,118593,57,19229,291,1,16363,0.0009989999999999721
552000,11369,-2191,127995,12348,-4449,133627,64,19236,233,1,16364,0.0010000000000000009
553000,11888,1088,127392,4603,1765,122824,64,19237,262,1,16365,0.0010000000000000009
554001,10114,1856,128587,-6188,-310,127270,56,19237,229,1,16366,0.0010010000000000296
555001,8582,-7184,125319,176,-7480,131105,66,19232,270,0,16367,0.0010000000000000009
556000,6017,6945,129541,4821,6459,122804,78,19240,319,0,16368,0.0009989999999999721
557000,10624,839,128663,-5061,-43,130067,72,19240,319,0,16369,0.0010000000000000009
558000,12062,1613,127564,-2448,1000,122160,62,19240,295,0,16370,0.0010000000000000009
559000,8826,-4965,127957,10329,-5667,131945,62,19242,254,0,16371,0.0010000000000000009
560000,11365,-35,126871,-877,-748,126022,64,19232,262,1,16372,0.0010000000000000009
561000,10046,4569,128074,-8263,3666,124496,90,19234,369,1,16373,0.0010000000000000009
562000,5168,2754,127691,4548,1626,128644,62,19237,254,1,16374,0.0010000000000000009
563000,7830,3985,127550,1604,3200,125090,52,19237,254,1,16375,0.0010000000000000009
564000,10582,-3039,125656,-4687,-3723,129527,55,19239,213,1,16376,0.0010000000000000009
565002,9649,-1638,125798,3061,-4642,125254,55,19237,225,0,16377,0.0010020000000000584
566000,7764,4492,128770,5824,3759,126793,84,19237,344,0,16378,0.0009979999999999434
567000,12141,2220,127125,-6350,784,127171,71,19233,291,0,16379,0.0010000000000000009
568000,7653,3726,128661,-4584,3862,124613,62,19238,254,0,16380,0.0010000000000000009
569000,6724,-1062,127042,6330,-1868,128569,59,19238,254,0,16381,0.0010000000000000009
570000,9203,169,127440,80,-134,124565,89,19234,242,1,16382,0.0010000000000000009
571000,6332,-318,128262,-12000,-1183,128879,89,19238,365,1,16383,0.0010000000000000009
572000,6574,3549,128101,150,2777,125674,62,19240,254,1,16384,0.0010000000000000009
573000,9452,2438,126479,7371,-300,124459,58,19240,238,1,16385,0.0010000000000000009
574009,10145,13640,128972,-2887,14739,119791,56,19233,229,1,16386,0.0010090000000000376
575000,8697,-13860,123730,-3804,-12451,134680,74,19233,303,0,16387,0.0009909999999999641
576000,2934,6936,130557,-899,2258,123552,69,19231,303,0,16388,0.0010000000000000009
577000,12773,2771,128874,-4764,6038,125434,63,19236,283,0,16389,0.0010000000000000009
578002,6237,-5121,127028,3579,-6572,130300,63,19237,258,0,16390,0.0010020000000000584
579002,2614,-4382,126136,-5534,-5769,128960,59,19240,242,0,16391,0.0010000000000000009
580000,10486,12032,126141,-447,6232,124357,78,19237,319,1,16392,0.0009979999999999434
581001,5512,19672,128419,-12774,21469,124064,58,19237,238,1,16393,0.0010010000000000296
582000,14544,-9682,127887,9144,-7228,135745,60,19239,238,1,16394,0.0009989999999999721
583000,4566,-5469,126673,6452,-10938,126122,53,19240,246,1,16395,0.0010000000000000009
584002,9895,4132,131242,-18444,3876,125495,53,19238,217,1,16396,0.0010020000000000584
585000,4316,-625,126342,5650,-684,129027,70,19233,287,0,16397,0.0009979999999999434
586000,3046,-775,128524,5313,-2129,128030,70,19236,287,0,16398,0.0010000000000000009
587000,8076,8623,126973,-16335,8219,120988,73,19236,299,0,16399,0.0010000000000000009
588000,2491,3559,127678,-4914,-442,127067,63,19237,299,0,16400,0.0010000000000000009
589000,12228,-5457,126304,8755,-5972,130690,72,19237,258,0,16401,0.0010000000000000009
590000,6351,-1296,128412,3344,-1093,126575,72,19231,295,1,16402,0.0010000000000000009
591000,6586,2398,128339,-7573,1539,126779,101,19241,414,1,16403,0.0010000000000000009
592000,5012,-3143,128431,9586,-4695,130921,62,19244,254,1,16404,0.0010000000000000009
593000,9671,-3,127731,-5656,1684,125151,54,19238,221,1,16405,0.0010000000000000009
594000,12044,6181,128076,-787,4507,121111,64,19238,221,1,16406,0.0010000000000000009
595000,3141,-3117,126928,-1104,-5357,130879,86,19234,262,0,16407,0.0010000000000000009
596000,8466,-4316,127907,1412,-4869,130726,86,19238,352,0,16408,0.0010000000000000009
597001,7984,2529,128806,-2275,2479,125037,71,19234,291,0,16409,0.0010010000000000296
598000,6963,2699,128645,1832,164,122944,63,19240,258,0,16410,0.0009989999999999721
599001,7931,-7096,126688,3807,-9755,133313,69,19234,283,0,16411,0.0010010000000000296
600002,10668,-7696,127196,-6419,-6697,129793,91,19234,283,1,16412,0.0010009999999999186
601000,10267,9471,128311,1953,7834,119744,68,19238,373,1,16413,0.0009980000000000544
602000,4962,3752,128703,-1158,1966,127759,68,19237,279,1,16414,0.0010000000000000009
603000,10516,-6704,126994,-3681,-7683,131424,60,19235,246,1,16415,0.0010000000000000009
604000,9135,-3116,127540,589,-3573,129239,57,19239,233,1,16416,0.0010000000000000009
605000,7818,5297,127089,5032,4392,122078,81,19233,332,0,16417,0.0010000000000000009
606000,7425,-839,127795,-358,-1405,126691,73,19233,332,0,16418,0.0010000000000000009
607000,12445,-3388,127862,-7271,-3887,130330,67,19237,299,0,16419,0.0010000000000000009
608000,11209,5110,129202,8385,4365,124313,67,19239,274,0,16420,0.0010000000000000009
609000,8226,116,128252,4875,-861,127239,62,19236,254,0,16421,0.0010000000000000009
610000,10507,-6699,127603,-8101,-7497,129727,82,19237,336,1,16422,0.0010000000000000009
611000,7414,-2987,128117,199,-3827,129892,62,19237,254,1,16423,0.0010000000000000009
612000,10951,8022,128373,8142,6790,124048,60,19237,254,1,16424,0.0010000000000000009
613000,12150,2985,126933,562,2333,124159,56,19242,246,1,16425,0.0010000000000000009
614000,11635,-3797,126221,-6613,-4925,128593,56,19238,229,1,16426,0.0010000000000000009
615000,6675,-2438,126623,11606,-4519,126475,75,19234,307,0,16427,0.0010000000000000009
616000,8927,3122,128470,3073,2425,128660,69,19235,283,0,16428,0.0010000000000000009
617002,9359,-1960,126928,-10337,-2424,126902,70,19237,287,0,16429,0.0010019999999999474
618002,5548,-207,128877,-438,-1319,127786,58,19237,238,0,16430,0.0010000000000000009
619000,11055,844,127266,10461,420,128028,72,19240,238,0,16431,0.0009980000000000544
620011,9756,-813,126842,-4644,-1296,125690,63,19231,295,1,16432,0.0010109999999999841
621000,6514,2458,127509,-4508,1760,125399,63,19240,258,1,16433,0.0009890000000000176
622001,9033,6731,128327,5070,5891,125230,59,19240,242,1,16434,0.0010010000000000296
623001,14184,95,127592,3077,1017,127419,50,19236,205,1,16435,0.0010000000000000009
624000,9778,-5462,126482,-2752,-5466,128032,65,19236,266,1,16436,0.0009989999999999721
625000,5530,1835,127572,-781,-890,126033,73,19233,266,0,16437,0.0010000000000000009
626002,9766,3306,128117,5346,3318,126745,70,19235,299,0,16438,0.0010019999999999474
627002,9914,4368,127317,-6892,3393,126182,70,19240,287,0,16439,0.0010000000000000009
628002,7510,2527,127337,-2184,996,125181,58,19239,238,0,16440,0.0010000000000000009
629000,8615,-2049,125758,6122,-1196,127205,67,19233,274,0,16441,0.0009980000000000544
630000,8768,1906,127936,-1117,-2271,125752,92,19233,377,1,16442,0.0010000000000000009
631000,5837,5137,127833,-7637,3098,128380,60,19240,377,1,16443,0.0010000000000000009
632000,6459,3991,127304,-481,-619,126609,54,19238,246,1,16444,0.0010000000000000009
633000,12888,10654,128738,4371,8935,118863,54,19238,221,1,16445,0.0010000000000000009
634000,7564,-3580,125717,1376,-8486,133051,59,19234,242,1,16446,0.0010000000000000009
635000,6142,-9989,128496,-12732,-5916,127619,93,19237,381,0,16447,0.0010000000000000009
636000,10484,4305,128817,8408,2258,128857,71,19237,291,0,16448,0.0010000000000000009
637000,8219,1991,127089,416,3717,123388,60,19236,291,0,16449,0.0010000000000000009
638000,2514,8891,128743,-5218,5008,122862,62,19237,246,0,16450,0.0010000000000000009
639000,7737,-8277,123893,13729,-8157,136185,62,19234,254,1,16451,0.0010000000000000009
640000,6174,13803,127706,-17454,14478,113769,87,19237,356,1,16452,0.0010000000000000009
641000,7933,984,129111,-2914,-1926,129790,61,19236,250,1,16453,0.0010000000000000009
642000,11642,-1971,127672,18645,-2573,129378,58,19242,238,1,16454,0.0010000000000000009
643000,8713,-5751,129089,-14530,-6460,130518,57,19242,238,1,16455,0.0010000000000000009
644000,7272,-4,127871,-7699,47,125230,84,19235,233,0,16456,0.0010000000000000009
645000,-620,3920,127346,11627,2707,127860,84,19234,344,0,16457,0.0010000000000000009
646002,9777,3199,128048,-14352,3514,124614,73,19236,299,0,16458,0.0010019999999999474
647015,7759,7757,127413,-7197,5962,120832,69,19236,283,0,16459,0.0010130000000000416
648000,7165,-5906,127940,12233,-7570,131570,64,19237,262,0,16460,0.0009850000000000136
649000,9141,-3495,127025,-2462,-4229,128148,83,19237,262,0,16461,0.0010000000000000009
650000,6684,-325,129092,-14304,-853,126659,67,19230,340,1,16462,0.0010000000000000009
651000,5168,4150,127708,7392,2519,127822,67,19238,274,1,16463,0.0010000000000000009
652000,4691,-2624,127519,-3429,-3294,129942,60,19238,246,1,16464,0.0010000000000000009
653000,12580,592,126703,-7312,-63,123670,54,19238,221,1,16465,0.0010000000000000009
654000,7136,2556,127227,7545,1243,125470,71,19231,291,0,16466,0.0010000000000000009
655000,5387,-819,127738,-2380,-2002,128924,74,19231,291,0,16467,0.0009999999999998899
656000,11476,-2009,129152,-4740,-2284,128901,72,19238,303,0,16468,0.0010000000000000009
657000,8360,4671,127700,-610,2873,126239,72,19236,295,0,16469,0.0010000000000000009
658000,8514,2718,128620,6136,3002,123052,61,19235,250,0,16470,0.0010000000000000009
659000,8828,-10322,126627,-3112,-10916,133171,72,19236,295,1,16471,0.0010000000000000009
660002,10223,-3489,128378,-5231,-4306,128212,64,19236,262,1,16472,0.0010020000000000584
661000,6520,7311,129405,5400,5703,123871,69,19236,262,1,16473,0.0009979999999999434
662000,7392,3895,128865,-1880,4651,126175,59,19240,283,1,16474,0.0010000000000000009
663000,10395,-7168,125742,-1622,-7686,130186,59,19236,242,1,16475,0.0010000000000000009
664000,6141,-3783,126731,-1015,-5620,128300,64,19232,262,0,16476,0.0010000000000000009
665000,9407,1479,126548,4719,1727,121917,98,19233,401,0,16477,0.0010000000000000009
666000,10564,-73,129013,-1914,481,129375,73,19237,299,0,16478,0.0010000000000000009
667000,12087,1456,128017,-7352,304,125015,62,19237,299,0,16479,0.0010000000000000009
668000,8940,-3555,128402,10582,-3817,129742,65,19241,254,0,16480,0.0010000000000000009
669000,11464,-1311,127361,1526,-2510,129059,73,19235,266,1,16481,0.0010000000000000009
670000,8569,-3701,126719,-6349,-5379,126792,73,19240,299,1,16482,0.0010000000000000009
671004,8229,6555,128684,3951,3187,126938,65,19239,266,1,16483,0.0010040000000000049
672000,11436,4142,127079,7764,5900,124238,57,19240,233,1,16484,0.0009959999999999969
673002,11724,-2000,126670,-4340,-2184,127533,57,19240,233,1,16485,0.0010020000000000584
674000,8407,-2881,127484,-2559,-2629,127262,86,19237,233,0,16486,0.0009979999999999434
675000,6737,1051,128844,9266,-617,127864,71,19238,352,0,16487,0.0010000000000000009
676000,11612,1385,129038,-4882,2247,127194,71,19235,291,0,16488,0.0010000000000000009
677000,8493,-2833,127817,-4557,-3786,128553,63,19239,258,0,16489,0.0010000000000000009
678000,8837,1758,127898,7083,695,126512,59,19239,242,0,16490,0.0010000000000000009
679000,11601,1561,126478,2352,197,125154,83,19239,340,1,16491,0.0010000000000000009
680000,7170,2753,127860,-9473,3282,127194,66,19233,340,1,16492,0.0010000000000000009
681000,7664,3070,128044,2303,4764,127063,58,19237,270,1,16493,0.0010000000000000009
682002,10246,3949,127709,2475,4039,125825,58,19240,238,1,16494,0.0010020000000000584
683000,13230,-3225,126840,-948,-5291,127486,54,19237,221,1,16495,0.0009979999999999434
684000,6850,-3722,127134,-375,-3657,127717,70,19237,287,0,16496,0.0010000000000000009
685000,6930,1781,127943,3058,1714,129078,67,19238,274,0,16497,0.0010000000000000009
686000,9993,6763,127911,-9063,6658,122557,65,19238,274,0,16498,0.0010000000000000009
687000,6884,5354,127946,-486,3527,125679,58,19243,266,0,16499,0.0010000000000000009
688002,8676,-947,127123,7211,-1874,127986,58,19234,238,0,16500,0.0010020000000000584
689000,9957,-769,127583,-6943,-1508,126991,75,19228,307,1,16501,0.0009979999999999434
690000,6141,-2383,128397,-4596,-2975,128658,61,19238,250,1,16502,0.0010000000000000009
691000,5896,2106,126962,7016,3578,121071,59,19239,242,1,16503,0.0010000000000000009
692000,8582,15181,128994,-6410,13760,123952,55,19239,242,1,16504,0.0010000000000000009
693000,14241,-5286,124254,3089,-6557,129122,65,19240,225,1,16505,0.0010000000000000009
694000,2682,1932,127113,-2007,734,124917,65,19232,266,0,16506,0.0010000000000000009
695000,7770,-901,129506,-7834,-644,127314,78,19237,319,0,16507,0.0010000000000000009
696001,11572,-1788,127303,5056,-3841,130016,67,19236,274,0,16508,0.0010010000000000296
697000,3610,-5283,127082,-783,-5810,131311,59,19238,242,0,16509,0.0009989999999999721
698000,6178,14844,126268,164,13761,118551,67,19238,242,0,16510,0.0010000000000000009
699000,3420,12504,127727,-11840,11933,122317,75,19233,274,1,16511,0.0010000000000000009
700000,10895,915,128028,-1729,495,125095,75,19235,307,1,16512,0.0010000000000000009
701000,9156,-6034,128219,17976,-6473,133348,64,19239,262,1,16513,0.0010000000000000009
702000,8599,-587,129066,-13069,-1795,125846,54,19237,221,1,16514,0.0010000000000000009
703000,7132,-2257,129133,-11573,-2240,125825,63,19232,258,1,16515,0.0010000000000000009
704000,4054,-3579,127365,12519,-4998,133440,87,19232,258,0,16516,0.0010000000000000009
705000,6280,11608,127720,19,10293,121130,73,19236,356,0,16517,0.0010000000000000009
706000,3461,3176,125514,-24172,3028,124228,73,19236,299,0,16518,0.0010000000000000009
707000,7217,2331,127703,4839,1363,126036,66,19235,270,0,16519,0.0010000000000000009
708000,10354,-7293,127124,15494,-7182,132613,65,19235,266,0,16520,0.0010000000000000009
709000,8083,-1188,128390,-13774,-2781,126240,95,19233,389,1,16521,0.0010000000000000009
710000,1504,-2497,128420,-7935,-2780,127471,64,19233,389,1,16522,0.0010000000000000009
711000,5970,-1652,128197,11336,-4127,133273,58,19244,262,1,16523,0.0010000000000000009
712000,11241,11666,128563,-9818,11231,118089,58,19240,238,1,16524,0.0010000000000000009
713000,10282,-1274,126713,-2181,-320,126290,56,19233,229,1,16525,0.0010000000000000009
714001,6131,-6822,127284,8071,-6736,129246,85,19234,348,0,16526,0.0010010000000000296
715000,8860,-3185,129659,-3525,-2699,129651,74,19234,303,0,16527,0.0009989999999999721
716000,10489,10363,129788,-7244,9519,122762,67,19234,274,0,16528,0.0010000000000000009
717000,8238,-3059,126712,11466,-681,127163,61,19239,274,0,16529,0.0010000000000000009
718000,7261,-7814,126997,-1872,-9905,131814,84,19235,250,1,16530,0.0010000000000000009
719000,9472,1321,128223,-11651,-671,124620,84,19233,344,1,16531,0.0010000000000000009
720000,9134,5250,127500,8770,2763,125735,64,19237,262,1,16532,0.0010000000000000009
721000,6521,1525,128649,-573,2825,126101,62,19242,254,1,16533,0.0010000000000000009
722003,10104,-7700,126830,-8375,-8806,132408,54,19242,221,1,16534,0.0010029999999999761
723002,8427,4614,127619,4544,817,124308,72,19241,221,1,16535,0.0009989999999999721
724001,6974,-2149,127161,5052,-990,127486,74,19233,295,0,16536,0.0009990000000000832
725000,10018,1741,127452,-4239,-2207,124818,74,19239,303,0,16537,0.0009989999999999721
726000,12063,541,128599,-2390,1738,127750,70,19234,287,0,16538,0.0010000000000000009
727000,10175,3169,128675,4748,854,124922,58,19239,238,0,16539,0.0010000000000000009
728000,9659,-6306,128153,4180,-10260,133666,71,19239,291,1,16540,0.0010000000000000009
729002,7650,-6086,126799,-4756,-4798,127552,54,19234,291,1,16541,0.0010019999999999474
730000,8556,6597,129009,-1115,6877,124349,62,19238,221,1,16542,0.0009980000000000544
731000,9732,2061,127229,6195,2492,127295,62,19239,254,1,16543,0.0010000000000000009
732000,13133,-2877,127303,-5218,-2692,124694,58,19239,238,1,16544,0.0010000000000000009
733000,10067,-1592,126183,835,-3070,129120,65,19232,266,0,16545,0.0010000000000000009
734000,7631,1318,127529,7157,1230,126133,77,19239,315,0,16546,0.0010000000000000009
735000,10711,-1493,128834,-4961,-2888,131624,70,19239,315,0,16547,0.0010000000000000009
736000,8432,-2422,128315,-6324,-1853,125755,62,19240,287,0,16548,0.0010000000000000009
737000,8357,4937,127967,10339,3590,124926,62,19241,254,0,16549,0.0010000000000000009
738000,10972,-3839,126638,350,-4691,130078,65,19236,266,1,16550,0.0010000000000000009
739000,10369,2897,126785,-8657,2799,121891,87,19236,356,1,16551,0.0010000000000000009
740002,7749,4467,128280,4677,3824,127304,60,19241,246,1,16552,0.0010019999999999474
741002,10312,5254,128161,4957,4386,124127,52,19241,246,1,16553,0.0010000000000000009
742002,11629,-3997,127797,-2379,-5228,130043,55,19240,213,1,16554,0.0010000000000000009
743001,7615,-3538,127020,-4793,-4277,128510,55,19238,225,0,16555,0.0009989999999999721
744000,6656,5329,127849,7047,3429,124556,85,19236,348,0,16556,0.0009990000000000832
745000,10499,3628,128035,-1228,3051,127353,73,19236,299,0,16557,0.0010000000000000009
746000,9698,1452,126025,-7990,475,123330,63,19240,258,0,16558,0.0010000000000000009
747000,7794,5820,127130,6492,4737,125679,62,19240,258,0,16559,0.0010000000000000009
748000,11730,2333,126366,637,1672,127307,87,19231,254,1,16560,0.0010000000000000009
749000,7718,1785,128358,-13567,503,126218,87,19235,356,1,16561,0.0010000000000000009
750000,3263,1059,130008,3391,623,128442,68,19238,279,1,16562,0.0010000000000000009
751000,5368,-2885,125422,251,-3397,129870,60,19243,246,1,16563,0.0010000000000000009
752000,10570,8707,128460,-2063,7746,117418,55,19236,225,1,16564,0.0010000000000000009
753001,8222,4438,125753,4025,5313,128711,78,19236,225,0,16565,0.0010009999999999186
754000,8328,-4178,127100,-7108,-6818,127064,71,19232,319,0,16566,0.0009990000000000832
755000,9959,7507,132159,-6305,9418,124276,71,19236,291,0,16567,0.0010000000000000009
756000,9697,-9247,127279,10212,-11059,134765,63,19239,258,0,16568,0.0010000000000000009
757001,356,3367,128130,-2240,2235,122013,55,19236,225,0,16569,0.0010009999999999186
758000,5648,-5085,126110,-11415,-7482,132744,77,19234,315,1,16570,0.0009990000000000832
759000,7590,22304,126652,-4065,19259,112933,59,19234,242,1,16571,0.0010000000000000009
760000,9986,2437,128755,8061,5566,128005,61,19239,242,1,16572,0.0010000000000000009
761000,10085,-6974,125858,-212,-8221,128869,54,19237,250,1,16573,0.0010000000000000009
762000,8360,-6639,129064,-8878,-7219,129820,54,19238,221,1,16574,0.0010000000000000009
763000,5329,-336,129510,1093,-2721,130781,71,19232,291,0,16575,0.0010000000000000009
764000,2612,1770,128480,5888,3470,125743,65,19236,266,0,16576,0.0010000000000000009
765000,6803,5381,128133,-18251,5943,126153,71,19236,291,0,16577,0.0010000000000000009
766000,6096,10743,128917,-7322,11121,120055,62,19240,291,0,16578,0.0010000000000000009
767002,10839,-5225,126129,10927,-4418,128721,74,19238,254,0,16579,0.0010019999999999474
768000,9780,-699,129092,-177,-1976,127150,74,19235,303,1,16580,0.0009980000000000544
769000,5439,-5784,128121,-13402,-6178,129923,101,19237,414,1,16581,0.0010000000000000009
770000,5636,4102,130078,3176,937,126591,63,19236,258,1,16582,0.0010000000000000009
771000,9825,-4060,128004,3982,-1670,130891,55,19236,225,1,16583,0.0010000000000000009
772000,10296,2986,126002,-5203,-2458,118219,64,19240,225,1,16584,0.0010000000000000009
773001,4630,4750,127348,-3441,6662,128394,87,19235,262,0,16585,0.0010009999999999186
774000,7439,-1538,126906,3109,-4964,128956,87,19236,356,0,16586,0.0009989999999999721
775000,11438,2344,129301,-1562,354,127610,73,19236,299,0,16587,0.0010000000000000009
776000,6019,-1628,128034,-2556,-2213,127270,61,19237,250,0,16588,0.0010000000000000009
777000,7272,-833,127878,4121,-3406,127915,65,19237,266,0,16589,0.0010000000000000009
778000,11062,-10020,127015,-493,-9256,132864,84,19234,266,1,16590,0.0010000000000000009
779000,9449,6834,128203,-861,7935,119178,65,19237,344,1,16591,0.0010000000000000009
780002,6771,6320,128834,286,4365,126566,65,19236,266,1,16592,0.0010020000000000584
781001,8391,-3157,127509,-3983,-3822,128738,60,19239,246,1,16593,0.0009989999999999721
782001,9028,-11140,125844,2278,-11786,131386,60,19235,246,1,16594,0.0010000000000000009
783002,5607,-985,127711,5674,-101,126466,84,19228,344,0,16595,0.0010010000000000296
784000,6985,7359,127553,-1930,5660,121782,72,19228,344,0,16596,0.0009979999999999434
785000,11366,-5382,127066,-6266,-5735,131621,67,19236,295,0,16597,0.0010000000000000009
786000,10904,4441,128216,8024,4144,123285,67,19237,274,0,16598,0.0010000000000000009
787000,9670,-2437,127517,5468,-4260,129962,64,19237,262,0,16599,0.0010000000000000009
788000,10295,-1105,128295,-8157,-2015,125733,85,19239,348,1,16600,0.0010000000000000009
789000,7622,-5968,128657,911,-6217,133727,63,19234,258,1,16601,0.0010000000000000009
790001,9881,3478,128517,6452,3469,125839,59,19234,258,1,16602,0.0010010000000000296
791002,13238,7462,127405,789,6366,121197,54,19237,242,1,16603,0.0010010000000000296
792000,11169,-3762,126138,-5070,-4313,128777,54,19237,221,1,16604,0.0009979999999999434
793000,8387,2482,128471,6290,2068,124867,74,19235,303,0,16605,0.0010000000000000009
794000,9594,-1209,128004,2588,-2756,131926,72,19237,295,0,16606,0.0010000000000000009
795000,10062,2770,128806,-9327,2303,123388,70,19239,287,0,16607,0.0010000000000000009
796002,5898,-3379,127765,3294,-4315,130439,60,19239,287,0,16608,0.0010020000000000584
797000,9668,-544,126961,7103,-1652,128762,75,19238,246,0,16609,0.0009979999999999434
798001,10801,3473,127112,-6440,2350,124757,75,19233,307,1,16610,0.0010010000000000296
799005,6186,3069,126132,-4255,1401,124506,65,19239,266,1,16611,0.0010040000000000049
800000,9512,8506,128352,6975,7760,122970,61,19240,250,1,16612,0.0009949999999999681
801001,12487,-1396,127196,-90,-959,129103,54,19236,221,1,16613,0.0010010000000000296
802000,11595,-6164,126818,-2902,-7546,128624,67,19236,221,1,16614,0.0009989999999999721
803000,4816,-1421,128285,3911,-2706,127151,75,19232,274,0,16615,0.0010000000000000009
804000,10300,4292,127658,1299,3253,127244,75,19236,307,0,16616,0.0010000000000000009
805000,9263,7348,128303,-8213,7061,122678,69,19238,283,0,16617,0.0010000000000000009
806000,7399,1473,126765,-872,284,127385,58,19239,238,0,16618,0.0010000000000000009
807000,8643,757,127268,7760,366,125469,69,19236,283,0,16619,0.0010000000000000009
808000,7303,-6356,125969,-7742,-5455,129390,89,19236,365,1,16620,0.0010000000000000009
809000,5618,2684,126674,-1208,-3083,124511,62,19240,365,1,16621,0.0010000000000000009
810000,6967,10103,128197,1241,12117,124346,53,19244,254,1,16622,0.0010000000000000009
811002,14442,1765,126639,2270,-272,127749,53,19238,217,1,16623,0.0010020000000000584
812000,5321,5481,126789,-6902,6209,120635,60,19234,246,1,16624,0.0009979999999999434
813000,7419,-6752,127707,-4758,-6409,130640,89,19239,365,0,16625,0.0010000000000000009
814001,7958,-1312,128254,8385,-1653,128088,69,19239,283,0,16626,0.0010010000000000296
815000,8121,-1678,129050,-10732,-5390,134518,61,19238,283,0,16627,0.0009989999999999721
816000,4318,12508,126675,-1051,8276,119517,61,19237,250,0,16628,0.0010000000000000009
817000,6019,6386,127503,3502,7170,124934,61,19234,250,1,16629,0.0010000000000000009
818000,11660,598,125861,-11531,681,125067,90,19238,369,1,16630,0.0010000000000000009
819000,5540,-4715,128511,1936,-4631,131230,65,19237,266,1,16631,0.0010000000000000009
820000,9200,4040,129902,4955,1298,124336,58,19237,238,1,16632,0.0010000000000000009
821000,8993,-3083,128387,-5271,-6280,131284,58,19235,238,1,16633,0.0010000000000000009
822000,4939,-2468,127039,-6611,-28,125968,83,19234,238,0,16634,0.0010000000000000009
823000,3076,5814,128524,1381,2526,127372,83,19236,340,0,16635,0.0010000000000000009
824000,9573,-1047,125814,-682,361,125656,75,19235,307,0,16636,0.0010000000000000009
825000,6913,9797,128737,-14057,9043,120706,69,19239,283,0,16637,0.0010000000000000009
826000,8390,-1992,127067,12055,-3577,131331,63,19236,258,0,16638,0.0010000000000000009
827000,8755,321,128033,-2227,-1030,126085,80,19236,258,0,16639,0.0010000000000000009
828000,5211,-9385,127937,-17758,-11092,132612,65,19227,328,1,16640,0.0010000000000000009
829000,5067,1332,127950,10248,2779,124469,65,19241,266,1,16641,0.0010000000000000009
830000,8792,6454,129235,2065,3822,126659,59,19239,242,1,16642,0.0010000000000000009
831003,10702,-4357,125767,-13188,-5292,125523,56,19234,229,1,16643,0.0010029999999999761
832000,6454,683,126862,-362,-1993,124256,73,19231,299,0,16644,0.0009970000000000256
833000,5148,1194,128599,11922,-534,131868,70,19231,299,0,16645,0.0010000000000000009
834000,11111,6405,128147,-10098,5650,120287,70,19233,287,0,16646,0.0010000000000000009
835000,8534,-5418,128224,-9158,-7220,132091,70,19233,287,0,16647,0.0010000000000000009
836000,9747,16,127520,16154,-566,126186,59,19238,242,0,16648,0.0010000000000000009
837000,9992,-4069,127198,262,-5257,128427,74,19232,303,1,16649,0.0010000000000000009
838000,6329,-1929,128073,-17373,-1575,126304,58,19240,238,1,16650,0.0010000000000000009
839000,6713,2805,128308,9048,2028,126908,68,19240,238,1,16651,0.0010000000000000009
840000,8390,2884,128835,8336,2167,129565,56,19240,279,1,16652,0.0010000000000000009
841002,10772,1886,127405,-16574,1380,122313,56,19236,229,1,16653,0.0010019999999999474
842000,8362,-9094,126242,8149,-10400,132515,62,19232,254,0,16654,0.0009980000000000544
843000,6399,2692,128387,9595,1849,125141,91,19238,373,0,16655,0.0010000000000000009
844000,11944,1174,128050,-14631,958,126081,72,19236,295,0,16656,0.0010000000000000009
845003,10261,2491,128886,1335,1529,126332,62,19236,295,0,16657,0.0010029999999999761
846002,8446,-2741,127725,10874,-3204,129302,65,19237,254,0,16658,0.0009989999999999721
847000,12083,-4125,127868,-5404,-5580,128202,65,19237,266,1,16659,0.0009980000000000544
848000,9170,-1912,127237,-432,-3557,126719,72,19243,295,1,16660,0.0010000000000000009
849003,9676,-4247,126491,5591,-5690,129615,63,19239,258,1,16661,0.0010029999999999761
850000,10214,10971,128796,-1648,10582,120609,56,19238,229,1,16662,0.0009970000000000256
851000,13568,-2241,124941,-1002,-1256,128106,60,19238,246,1,16663,0.0010000000000000009
852000,7440,-808,127433,4492,-2828,126895,89,19236,246,0,16664,0.0010000000000000009
853000,6491,-3275,128935,-274,-2343,129579,74,19239,365,0,16665,0.0010000000000000009
854000,12036,1079,128359,-2918,-1202,127678,74,19233,303,0,16666,0.0010000000000000009
855000,8916,3577,129280,1439,4071,124977,65,19238,266,0,16667,0.0010000000000000009
856000,9957,-3702,126808,3985,-4890,130595,62,19236,254,0,16668,0.0010000000000000009
857008,10547,1991,126905,-594,243,124643,82,19236,336,1,16669,0.0010080000000000089
858002,7263,2167,127800,-6027,1537,126744,59,19235,336,1,16670,0.0009939999999999394
859000,9065,5176,127955,4968,4820,123829,57,19243,242,1,16671,0.0009980000000000544
860000,10394,910,128528,4356,2989,127209,57,19239,233,1,16672,0.0010000000000000009
861000,12123,-3665,125691,-4929,-4656,128954,55,19234,225,1,16673,0.0010000000000000009
862000,7634,652,127933,2076,-1325,124999,73,19235,299,0,16674,0.0010000000000000009
863000,6850,1883,127072,7874,634,129447,67,19235,274,0,16675,0.0010000000000000009
864000,10156,5342,126557,-8804,1369,122791,65,19236,274,0,16676,0.0010000000000000009
865000,6849,6615,127725,-4933,3898,126580,59,19236,266,0,16677,0.0010000000000000009
866000,7845,-77,125989,8015,-4588,126544,59,19239,242,0,16678,0.0010000000000000009
867002,8811,-123,127840,-2643,-882,126299,77,19227,315,1,16679,0.0010019999999999474
868000,4637,-781,128483,-13045,-363,127364,59,19237,242,1,16680,0.0009980000000000544
869000,5578,2550,127871,6590,-595,129046,60,19242,246,1,16681,0.0010000000000000009
870000,10045,4546,127826,4651,7086,117910,53,19242,246,1,16682,0.0010000000000000009
871000,10604,10141,127636,-7279,4731,127944,67,19236,217,1,16683,0.0010000000000000009
872000,8879,-11755,125877,-1314,-10776,131303,67,19231,274,0,16684,0.0010000000000000009
873000,4573,9134,130881,-5180,9245,122278,77,19237,315,0,16685,0.0010000000000000009
874000,12800,-3506,127550,-4061,-4660,131912,68,19240,279,0,16686,0.0010000000000000009
875000,2576,-931,127470,4884,-2663,126404,59,19236,242,0,16687,0.0010000000000000009
876000,3539,-4817,125222,-2224,-4190,131163,68,19236,242,0,16688,0.0010000000000000009
877006,9449,16063,126872,-11148,17004,113627,76,19228,279,1,16689,0.0010059999999999514
878000,6218,8716,128475,288,5499,127691,76,19237,311,1,16690,0.0009940000000000504
879000,12826,-9643,126577,9853,-10621,132348,63,19238,258,1,16691,0.0010000000000000009
880000,6648,-1352,128338,-11243,-1974,126488,55,19236,225,1,16692,0.0010000000000000009
881000,10381,-916,129656,-5687,-2294,128602,64,19234,262,1,16693,0.0010000000000000009
882000,1845,142,126977,12019,-1779,126513,88,19234,262,0,16694,0.0010000000000000009
883002,7217,5679,129424,-12064,5501,126307,75,19237,360,0,16695,0.0010019999999999474
884001,6954,10697,126563,-9953,9592,119688,75,19237,307,0,16696,0.0009989999999999721
885000,5178,-819,127574,3091,-2011,127888,65,19237,266,0,16697,0.0009990000000000832
886000,11115,-4474,126554,7478,-5600,130246,65,19237,266,0,16698,0.0010000000000000009
887002,4936,-2606,128658,-10226,-3270,127374,95,19232,389,1,16699,0.0010019999999999474
888002,4956,794,128356,-4564,-279,128390,63,19232,389,1,16700,0.0010000000000000009
889000,4413,-3674,127888,6408,-4699,130089,56,19241,258,1,16701,0.0009980000000000544
890000,11858,4500,126383,-4793,3282,123898,56,19240,229,1,16702,0.0010000000000000009
891001,9145,5423,126539,-1909,4586,122360,57,19238,233,1,16703,0.0010009999999999186
892000,4519,-4406,126763,-1095,-6197,130804,85,19236,348,0,16704,0.0009990000000000832
893000,10722,-2880,129105,1141,-2480,130084,71,19234,291,0,16705,0.0009999999999998899
894001,7879,6071,128640,-4399,4255,124764,62,19234,291,0,16706,0.0010010000000000296
895000,8654,1104,128477,2134,2053,124623,63,19239,254,0,16707,0.0009989999999999721
896000,7511,-11799,126494,3218,-12309,134331,63,19237,258,1,16708,0.0010000000000000009
897000,10352,-156,128848,-7444,-1470,126198,86,19230,352,1,16709,0.0010000000000000009
898000,8682,7020,128200,3083,6755,121089,65,19240,266,1,16710,0.0010000000000000009
899000,4829,-2267,129998,-2007,828,127384,62,19238,254,1,16711,0.0010000000000000009
900000,11393,-6879,127104,-2594,-6712,131803,54,19238,221,1,16712,0.0010000000000000009
901000,7388,-1434,126631,409,-3976,128464,70,19238,221,1,16713,0.0010000000000000009
902000,8145,5625,127083,5012,4694,121815,77,19234,287,0,16714,0.0010000000000000009
903000,7891,-3253,126827,-2298,-3294,129137,77,19234,315,0,16715,0.0010000000000000009
904000,13796,1424,127351,-6571,-1003,126599,70,19240,287,0,16716,0.0010000000000000009
905000,10018,3054,128133,10305,2397,126764,61,19237,250,0,16717,0.0010000000000000009
906000,9468,-3669,127108,1784,-3918,128233,70,19237,287,1,16718,0.0010000000000000009
907000,8756,-6104,128196,-8323,-6377,129847,53,19229,287,1,16719,0.0010000000000000009
908000,8123,2645,128502,2685,-1126,129942,63,19242,217,1,16720,0.0010000000000000009
909000,11100,7185,128828,6867,6937,123122,63,19240,258,1,16721,0.0010000000000000009
910002,11306,-236,126536,-1862,509,126031,56,19235,229,1,16722,0.0010020000000000584
911000,11292,-1944,127225,-4654,-2079,127497,68,19235,279,0,16723,0.0009979999999999434
912000,8068,1094,128544,9602,-80,128457,74,19235,303,0,16724,0.0010000000000000009
913001,11015,-346,128954,-928,217,128031,73,19237,303,0,16725,0.0010010000000000296
914001,8474,-2093,128053,-8094,-4253,127668,61,19236,299,0,16726,0.0010000000000000009
915000,6209,2740,127713,4571,-859,126352,61,19239,250,0,16727,0.0009989999999999721
916000,10607,-2974,125780,8291,-1323,127803,65,19233,266,1,16728,0.0010000000000000009
917000,8876,2198,126922,-7483,1736,123871,90,19243,369,1,16729,0.0010000000000000009
918002,7487,3179,126610,-1907,3677,125451,61,19241,250,1,16730,0.0010020000000000584
919001,9474,6516,129381,5129,5565,126387,52,19241,250,1,16731,0.0009989999999999721
920001,13247,-4406,127176,-1237,-6747,129694,56,19242,213,1,16732,0.0010000000000000009
921000,7721,-4473,126854,-554,-4459,127438,56,19241,229,0,16733,0.0009989999999999721
922001,5610,4248,128383,4414,2943,125597,85,19236,348,0,16734,0.0010010000000000296
923000,11071,4516,127900,-4457,4303,125531,70,19235,287,0,16735,0.0009989999999999721
924000,9817,3744,128026,-4338,3124,125078,63,19238,258,0,16736,0.0010000000000000009
925000,7624,1784,127428,5868,272,126408,63,19238,258,0,16737,0.0010000000000000009
926000,10101,-3397,126144,-1511,-4684,128850,91,19236,258,1,16738,0.0010000000000000009
927000,7107,-3068,127292,-4803,-2587,125494,91,19233,373,1,16739,0.0010000000000000009
928000,5147,8008,128238,-1775,7497,125682,63,19235,258,1,16740,0.0010000000000000009
929000,10561,3048,126306,3103,2675,126186,58,19239,238,1,16741,0.0010000000000000009
930000,10555,8818,127383,1361,8143,121491,54,19240,221,1,16742,0.0010000000000000009
931003,6818,-3880,126907,-8337,-5530,130328,80,19240,221,0,16743,0.0010029999999999761
932002,6123,-2516,129444,-982,-3118,128560,69,19235,328,0,16744,0.0009990000000000832
933000,10388,-519,129445,-1104,-807,132855,69,19236,283,0,16745,0.0009979999999999434
934000,8511,7524,128754,-2944,6858,118860,65,19239,266,0,16746,0.0010000000000000009
935002,2115,9674,127946,-1046,8663,123791,59,19233,242,0,16747,0.0010020000000000584
936000,11039,-2862,125516,-3367,-3488,130698,78,19231,319,1,16748,0.0009979999999999434
937000,7452,4726,127357,-1416,3063,120234,57,19231,319,1,16749,0.0010000000000000009
938000,9285,-312,129228,238,-1085,130510,61,19241,233,1,16750,0.0010000000000000009
939000,9933,-1059,128003,5179,-2239,126026,61,19237,250,1,16751,0.0010000000000000009
940000,7176,-6440,127754,-6560,-7638,133244,55,19238,225,1,16752,0.0010000000000000009
941000,3290,4816,127094,-7218,2819,123677,71,19231,291,0,16753,0.0010000000000000009
942002,1467,4432,127520,6778,4536,125396,66,19234,270,0,16754,0.0010020000000000584
943000,9210,4870,127200,-10634,3835,126237,72,19234,270,0,16755,0.0009979999999999434
944000,7953,1732,128039,-6008,2401,122614,64,19238,295,0,16756,0.0010000000000000009
945000,8467,-3831,127813,10479,-5182,131703,64,19236,262,0,16757,0.0010000000000000009
946000,8955,-3487,128093,-2892,-3534,127081,76,19232,311,1,16758,0.0010000000000000009
947000,4931,-5939,128419,-13879,-7703,130558,99,19239,405,1,16759,0.0010000000000000009
948000,5921,8582,129494,4749,7861,124683,61,19241,250,1,16760,0.0010000000000000009
949000,8043,-1278,127439,718,1942,128146,56,19241,229,1,16761,0.0010000000000000009
950000,11327,-105,127022,-10496,-2049,125026,62,19240,229,1,16762,0.0010000000000000009
951000,6305,-2385,126893,6098,-1671,126235,86,19233,254,0,16763,0.0010000000000000009
952000,5983,589,127143,7568,-2985,130198,86,19236,352,0,16764,0.0010000000000000009
953000,10462,3012,128560,-12137,3096,125514,74,19236,303,0,16765,0.0010000000000000009
954000,6526,-1573,127551,-2451,-3004,128535,63,19236,258,0,16766,0.0010000000000000009
955000,9692,1501,128042,10858,1113,125584,68,19236,279,0,16767,0.0010000000000000009
956001,9794,-7190,127271,-2982,-6842,129285,94,19233,279,1,16768,0.0010010000000000296
957000,6125,-2392,128421,-10479,-5399,128662,68,19239,385,1,16769,0.0009989999999999721
958001,9061,2660,128935,6332,4300,126167,68,19240,279,1,16770,0.0010010000000000296
959000,9603,6557,128703,7816,5642,125312,61,19242,250,1,16771,0.0009989999999999721
960002,11988,-6310,126150,-11115,-3024,129316,59,19234,242,1,16772,0.0010019999999999474
961000,7062,-6956,127102,1796,-10295,129451,87,19232,356,0,16773,0.0009980000000000544
962000,9295,728,129142,10797,1894,123718,73,19232,356,0,16774,0.0010000000000000009
963000,9980,4651,129618,-7846,1357,126208,64,19232,299,0,16775,0.0010000000000000009
964000,5212,804,128633,-11849,-4135,131414,64,19238,262,0,16776,0.0010000000000000009
965000,9639,-4193,126466,14787,-4710,130016,61,19236,250,0,16777,0.0010000000000000009
966000,8196,1726,125923,4723,-456,122663,82,19238,336,1,16778,0.0010000000000000009
967000,11023,2124,127575,-3488,-2698,127482,65,19236,266,1,16779,0.0010000000000000009
968000,13117,-658,127316,15438,4679,125450,62,19236,266,1,16780,0.0010000000000000009
969002,14700,4266,128908,-3377,2416,127022,55,19240,254,1,16781,0.0010019999999999474
970000,11535,-497,126666,-7153,-4355,126056,55,19238,225,1,16782,0.0009980000000000544
971000,2031,-5316,127937,9117,-6752,132888,72,19234,295,0,16783,0.0010000000000000009
972000,6354,-3576,127811,-4691,1036,126838,69,19239,283,0,16784,0.0010000000000000009
973000,11126,5865,128181,-7584,6121,121563,71,19240,291,0,16785,0.0010000000000000009
974000,10468,4623,127029,12745,-1694,128481,61,19240,291,0,16786,0.0010000000000000009
975001,11221,-2091,126322,350,-2065,125511,75,19237,250,0,16787,0.0010010000000000296
976000,12108,-208,127986,-7522,-1091,128917,75,19234,307,1,16788,0.0009989999999999721
977001,6398,-691,126894,6378,-1221,126740,60,19241,246,1,16789,0.0010010000000000296
978000,6080,2850,128285,-288,4545,125797,59,19238,242,1,16790,0.0009989999999999721
979000,10555,3891,127332,-6051,-56,127304,52,19242,213,1,16791,0.0010000000000000009
980000,11514,-66,125804,2671,-1147,125411,65,19242,213,1,16792,0.0010000000000000009
981006,7509,4011,128552,5136,3044,126990,74,19238,266,0,16793,0.0010059999999999514
982000,10431,352,127155,-1580,12,126967,74,19240,303,0,16794,0.0009940000000000504
983002,9696,3500,127311,-5172,2952,125666,69,19240,283,0,16795,0.0010019999999999474
984000,7133,3815,128084,1664,70,128144,58,19235,238,0,16796,0.0009980000000000544
985000,9760,1873,127382,3029,1819,123971,66,19230,270,0,16797,0.0010000000000000009
986000,5026,582,128326,-6438,-335,128898,90,19230,270,1,16798,0.0010000000000000009
987000,3380,-1355,126774,-8283,-1608,126539,66,19239,369,1,16799,0.0010000000000000009
988000,7547,-3820,125555,7481,-3293,127831,66,19239,270,1,16800,0.0010000000000000009
989000,9596,11611,129959,399,19207,116997,56,19239,229,1,16801,0.0010000000000000009
990000,14676,10159,124169,-6885,-5175,129165,60,19236,246,1,16802,0.0010000000000000009
991000,4755,-9850,128969,4838,-5767,129150,89,19235,365,0,16803,0.0010000000000000009
992000,8297,972,128499,-5088,-736,126505,70,19235,287,0,16804,0.0010000000000000009
993000,8925,-403,127199,-1525,-1300,130075,59,19239,287,0,16805,0.0010000000000000009
994000,327,-1373,126646,-4638,-2510,126729,61,19242,242,0,16806,0.0010000000000000009
995000,9687,2664,125780,3534,5716,124670,61,19240,250,1,16807,0.0010000000000000009
996000,5623,13119,127911,-12617,14233,118793,90,19237,369,1,16808,0.0010000000000000009
997001,13102,-8784,127794,1055,-4314,129930,64,19236,262,1,16809,0.0010009999999999186
998002,6287,-13542,126783,14778,-11166,134055,59,19236,242,1,16810,0.0010010000000000296
999000,10009,2314,132041,-16883,8322,122772,57,19236,242,1,16811,0.0009980000000000544
1000000,5480,-958,127278,-376,-3462,129917,81,19237,233,0,16812,0.0010000000000000009
1001003,383,-1316,128017,6995,-4762,130758,81,19234,332,0,16813,0.0010029999999998651
1002001,9588,5750,128333,-11208,7672,121216,72,19235,295,0,16814,0.0009980000000000544
1003000,3297,9405,127648,-10834,7274,123218,68,19235,279,0,16815,0.0009989999999999721
1004001,11180,548,127097,5502,-3591,128110,65,19235,266,0,16816,0.0010010000000000296
1005000,7071,-7994,127261,9318,-8703,127674,81,19237,266,0,16817,0.0009989999999999721
1006002,7470,5405,128699,-16108,2355,123135,66,19231,332,1,16818,0.0010020000000001694
1007002,2949,-3880,127355,1418,-1833,134325,66,19234,270,1,16819,0.0009999999999998899
1008000,6152,-7328,127310,2306,-7092,124821,59,19242,242,1,16820,0.0009980000000000544
1009000,13832,5840,128030,-5596,8203,120239,54,19238,221,1,16821,0.0009999999999998899
1010001,4247,6351,126895,478,-4331,128699,72,19228,295,0,16822,0.0010010000000000296
1011000,7730,-5423,127608,-1222,-9640,132524,72,19228,295,0,16823,0.0009989999999999721
1012000,8507,-6678,129189,2262,1770,127822,71,19232,295,0,16824,0.001000000000000112
1013000,10453,8229,129035,-7718,9640,119318,71,19236,291,0,16825,0.0009999999999998899
1014000,6569,5737,127420,6001,-9395,132622,60,19237,246,0,16826,0.001000000000000112
1015000,10073,-10985,126861,-7327,-10870,130825,73,19231,299,1,16827,0.0009999999999998899
1016000,12300,-1906,128641,657,2719,121510,65,19236,266,1,16828,0.001000000000000112
1017004,2665,8884,130129,220,6392,125714,69,19236,266,1,16829,0.0010040000000000049
1018000,9460,434,127066,-3156,-8963,132195,60,19238,283,1,16830,0.0009959999999999969
1019003,9327,-3270,127140,-493,-2932,129404,60,19236,246,1,16831,0.0010029999999998651
1020000,8304,2213,127076,3121,4378,122816,65,19236,266,0,16832,0.0009970000000001367
1021000,7075,2646,126619,2688,-1776,125716,93,19238,381,0,16833,0.0009999999999998899
1022002,10536,-3615,127932,-9254,-4191,131185,71,19238,291,0,16834,0.0010019999999999474
1023003,14095,-2233,128313,5871,3043,123917,61,19238,291,0,16835,0.0010010000000000296
1024002,7044,7905,128941,8560,3051,126182,66,19241,250,0,16836,0.0009989999999999721
1025000,11365,-4822,126789,-6289,-12093,132316,66,19235,270,1,16837,0.0009980000000000544
1026000,6083,-10134,128119,-1684,-2229,127681,74,19240,303,1,16838,0.001000000000000112
1027000,10436,4138,128620,9319,5831,125735,64,19236,262,1,16839,0.0009999999999998899
1028000,10468,7984,127490,3314,6265,121441,54,19239,221,1,16840,0.001000000000000112
1029000,12048,1669,126286,-9546,-6617,130579,61,19239,221,1,16841,0.0009999999999998899
1030000,9524,-7298,126791,7674,-2450,127063,85,19234,250,0,16842,0.001000000000000112
1031000,5952,5908,129855,7076,4820,126330,85,19241,348,0,16843,0.0009999999999998899
1032000,11498,-468,126719,-10136,-7782,130648,73,19238,299,0,16844,0.001000000000000112
1033000,6899,-259,128730,-4167,-3304,125499,65,19235,266,0,16845,0.0009999999999998899
1034000,10585,4696,126803,10841,1949,129790,61,19234,250,0,16846,0.001000000000000112
1035000,11493,-156,125106,-2867,-1304,124072,85,19234,348,1,16847,0.0009999999999998899
1036000,7461,481,128392,-6855,-1141,127321,58,19232,348,1,16848,0.001000000000000112
1037000,8358,280,127835,6278,3508,126137,54,19240,238,1,16849,0.0009999999999998899
1038000,11704,9018,128799,3720,6652,124618,54,19239,221,1,16850,0.001000000000000112
1039000,12310,-2975,126244,-3656,-7825,131310,51,19235,209,1,16851,0.0009999999999998899
1040000,6043,-4267,127147,-29,-1299,123171,71,19236,291,0,16852,0.001000000000000112
1041000,8101,5883,128495,5533,2533,128480,70,19236,287,0,16853,0.0009999999999998899
1042000,11204,3037,127229,-4191,3122,124965,66,19240,287,0,16854,0.001000000000000112
1043001,7645,4394,128115,-4163,2087,125478,58,19239,270,0,16855,0.0010009999999998076
1044000,7661,2213,127143,3116,388,127274,58,19236,238,0,16856,0.0009990000000001942
1045000,11036,-2651,125878,3974,-5109,126315,76,19230,311,1,16857,0.0009999999999998899
1046000,4437,-426,128133,-7197,1375,127390,53,19235,217,1,16858,0.001000000000000112
1047000,6334,3514,127138,-4325,3981,124574,61,19235,250,1,16859,0.0009999999999998899
1048000,11492,6155,126183,5168,6705,125849,53,19244,250,1,16860,0.001000000000000112
1049000,10490,6087,126908,4842,7184,122274,67,19240,217,1,16861,0.0009999999999998899
1050000,4207,-7610,126821,-14953,-12218,132129,67,19235,274,0,16862,0.001000000000000112
1051000,8415,-5689,130234,3227,-2000,128915,79,19236,324,0,16863,0.0009999999999998899
1052000,9583,-333,127075,7796,-2748,124952,68,19237,279,0,16864,0.001000000000000112
1053000,3249,6135,129126,-15908,9921,117769,58,19238,238,0,16865,0.0009999999999998899
1054000,5137,9364,125167,-126,2642,136549,69,19238,238,0,16866,0.001000000000000112
1055000,9745,2056,126099,11187,6521,119362,75,19232,283,1,16867,0.0009999999999998899
1056002,4713,12392,129022,-18435,3765,125030,75,19236,307,1,16868,0.0010019999999999474
1057002,11632,-1297,128241,5002,-4556,130565,64,19236,262,1,16869,0.001000000000000112
1058000,8635,-1524,128100,13557,-5705,131086,55,19238,225,1,16870,0.0009980000000000544
1059000,8647,-7278,127880,-18675,-4053,128165,63,19234,258,1,16871,0.0009999999999998899
1060001,952,2860,126917,-484,8048,122138,86,19234,258,0,16872,0.0010010000000000296
1061000,4266,7647,127274,-7219,1968,129058,75,19235,352,0,16873,0.0009989999999999721
1062001,9454,2538,126817,-15003,4803,121115,75,19236,307,0,16874,0.0010010000000000296
1063000,6312,4211,127787,12063,-3561,130053,65,19236,266,0,16875,0.0009989999999999721
1064000,9282,-3308,127645,4081,-4191,127668,66,19233,270,0,16876,0.001000000000000112
1065000,7358,-3957,128992,-15589,-7061,128774,94,19236,385,1,16877,0.0009999999999998899
1066000,3891,-3420,129276,3065,-342,128665,65,19236,385,1,16878,0.001000000000000112
1067000,6178,3262,129952,4313,6596,125018,58,19240,266,1,16879,0.0009999999999998899
1068001,10641,-2443,126955,-12187,-3131,126302,58,19236,238,1,16880,0.0010010000000000296
1069009,10182,1055,127023,4696,-680,124707,58,19238,238,1,16881,0.0010079999999998979
1070000,5603,-1890,126382,4261,-4619,130830,87,19232,356,0,16882,0.0009910000000001862
1071000,9601,-585,129374,-7638,5134,124011,74,19242,303,0,16883,0.0009999999999998899
1072000,9274,3594,127566,-2354,-1139,130012,63,19242,303,0,16884,0.0009999999999998899
1073000,7457,-1294,127527,6084,1030,124164,62,19234,258,0,16885,0.001000000000000112
1074002,8001,1645,127701,-1719,-2357,128798,62,19238,254,1,16886,0.0010019999999999474
1075000,9015,-9822,127030,-5886,-8762,130705,84,19228,344,1,16887,0.0009980000000000544
1076002,8752,-1006,128492,3097,3549,123725,63,19240,258,1,16888,0.0010019999999999474
1077000,6405,4459,129634,-1204,2222,128870,66,19239,270,1,16889,0.0009980000000000544
1078000,11086,3097,127801,-2862,1333,124298,58,19239,270,1,16890,0.0009999999999998899
1079001,8249,-3297,126457,433,-8265,132396,73,19239,238,1,16891,0.0010010000000000296
1080000,6769,-4889,127647,2664,824,124095,73,19235,299,0,16892,0.0009989999999999721
1081000,9633,5598,127926,947,2589,124515,79,19238,324,0,16893,0.001000000000000112
1082003,10175,71,127745,-4950,-2939,128636,70,19239,287,0,16894,0.0010030000000000872
1083001,7303,2654,127675,5941,-4801,126523,62,19242,254,0,16895,0.0009979999999998324
1084001,9921,-2777,127197,6146,-4912,132350,74,19242,303,1,16896,0.001000000000000112
1085002,8748,221,126946,-6422,-799,124945,59,19231,303,1,16897,0.0010010000000000296
1086000,8462,-669,127853,-701,-1723,128496,65,19243,242,1,16898,0.0009979999999998324
1087000,10384,2549,128256,6095,5595,125364,65,19239,266,1,16899,0.001000000000000112
1088000,13058,5749,127341,1482,3237,124044,55,19238,225,1,16900,0.0009999999999998899
1089002,10332,-2631,127057,-3920,-4396,128565,68,19232,279,0,16901,0.0010020000000001694
1090000,7013,-3193,128353,6128,-2798,128081,76,19232,311,0,16902,0.0009979999999998324
1091000,11049,-877,129395,-1201,-379,129186,74,19236,311,0,16903,0.001000000000000112
1092000,10712,3535,128471,-7024,2933,124875,62,19238,303,0,16904,0.0009999999999998899
1093000,7546,-179,128038,6500,-1564,128168,62,19236,254,0,16905,0.001000000000000112
1094000,10772,-1455,127221,3607,-1285,127799,65,19233,266,1,16906,0.0009999999999998899
1095001,9106,197,126295,-7612,-439,125405,91,19240,373,1,16907,0.0010010000000000296
1096002,6965,2076,127411,2951,2968,125683,60,19240,246,1,16908,0.0010010000000000296
1097000,8779,5776,128160,2064,4773,125723,53,19239,246,1,16909,0.0009980000000000544
1098000,12970,1365,127234,-3251,-1338,127758,57,19240,217,1,16910,0.0009999999999998899
1099000,9441,-3189,127251,3704,-4232,127782,57,19237,233,0,16911,0.001000000000000112
1100000,6265,-3141,126670,4171,-6350,128540,84,19238,344,0,16912,0.0009999999999998899
1101000,11206,2915,128757,-2464,3503,123937,71,19237,291,0,16913,0.001000000000000112
1102000,8091,5617,127246,-6234,3775,126274,60,19240,246,0,16914,0.0009999999999998899
1103000,8423,2804,127739,2360,1610,124867,62,19240,246,0,16915,0.001000000000000112
1104000,8694,2819,127953,5841,-2569,127663,90,19238,254,1,16916,0.0009999999999998899
1105003,7205,-3394,126971,-10418,-3008,129578,90,19236,369,1,16917,0.0010030000000000872
1106000,6853,-2483,125995,-3093,71,124210,62,19238,254,1,16918,0.0009969999999999146
1107000,6831,7995,129126,9129,14932,121927,57,19237,233,1,16919,0.001000000000000112
1108000,14219,10849,125920,-5497,-2657,127539,56,19235,229,1,16920,0.0009999999999998899
1109000,5157,-4551,127168,3706,-2783,128518,77,19235,229,0,16921,0.001000000000000112
1110000,3716,-2712,128231,-8031,901,126297,70,19236,315,0,16922,0.0009999999999998899
1111000,12953,5019,129094,531,2061,127908,70,19237,287,0,16923,0.001000000000000112
1112000,4181,-3925,126216,117,-10175,133438,67,19237,274,0,16924,0.0009999999999998899
1113000,7247,-1763,126318,-308,8190,120618,60,19233,246,0,16925,0.001000000000000112
1114000,5209,10714,126410,-8999,8588,122633,78,19235,319,1,16926,0.0009999999999998899
1115000,10024,9158,127953,-4754,2039,124070,57,19235,319,1,16927,0.001000000000000112
1116000,9781,-2676,128134,15532,-7075,134171,61,19238,233,1,16928,0.0009999999999998899
1117000,7537,-8156,128963,-8299,-1085,127660,61,19236,250,1,16929,0.001000000000000112
1118000,7631,3791,129287,-13680,3254,122128,54,19238,221,1,16930,0.0009999999999998899
1119000,5303,-2216,127062,11020,-9342,135139,75,19231,307,0,16931,0.001000000000000112
1120000,5481,-2505,128414,3346,7825,123121,72,19237,295,0,16932,0.0009999999999998899
1121000,5397,10865,126938,-20992,3832,123557,74,19237,295,0,16933,0.001000000000000112
1122000,7207,391,127739,-1594,4207,123716,63,19241,303,0,16934,0.0009999999999998899
1123000,9179,4151,127358,15450,-4540,131001,63,19236,258,0,16935,0.001000000000000112
1124000,9332,-9253,127399,-8283,-6530,129228,71,19233,291,1,16936,0.0009999999999998899
1125000,4362,2112,129049,-13789,896,124333,103,19240,422,1,16937,0.001000000000000112
1126002,4812,-5587,127140,7967,-7461,134732,63,19241,258,1,16938,0.0010019999999999474
1127002,11666,12231,129360,-1623,11226,118878,56,19241,229,1,16939,0.001000000000000112
1128000,10661,8082,126560,-3178,-762,127388,64,19238,229,1,16940,0.0009979999999998324
1129000,5821,-6165,126583,722,-5130,127188,83,19232,262,0,16941,0.001000000000000112
1130000,4482,-2337,128713,497,-3719,130969,83,19235,340,0,16942,0.0009999999999998899
1131000,11725,-801,128659,-3756,3838,124771,72,19236,295,0,16943,0.001000000000000112
1132000,7277,11055,128056,3292,4502,122818,62,19241,254,0,16944,0.0009999999999998899
1133000,6443,-5138,125797,-509,-11905,134262,65,19241,266,0,16945,0.001000000000000112
1134000,12238,697,128940,-3323,-1291,126890,90,19236,266,1,16946,0.0009999999999998899
1135000,8708,3240,128579,3428,3588,124450,66,19236,369,1,16947,0.001000000000000112
1136002,7562,3158,128288,207,1705,125431,66,19240,270,1,16948,0.0010019999999999474
1137000,7591,-1080,127589,-4018,-4527,131795,61,19240,250,1,16949,0.0009980000000000544
1138001,10687,-4825,127089,-525,-2107,128256,57,19236,233,1,16950,0.0010010000000000296
1139001,7123,2638,127133,5298,1975,124127,81,19236,332,0,16951,0.0009999999999998899
1140000,6481,-368,127698,-1261,-2607,127328,71,19235,332,0,16952,0.0009989999999999721
1141002,12742,-1202,128609,-4760,27,127113,65,19237,291,0,16953,0.0010019999999999474
1142000,9684,978,128716,2988,1660,127273,65,19241,266,0,16954,0.0009980000000000544
1143000,10182,1113,128418,7955,-518,126582,63,19239,258,0,16955,0.001000000000000112
1144003,8514,-5147,127549,-4853,-7276,130569,83,19242,340,1,16956,0.0010029999999998651
1145002,8970,-3409,128103,-3843,-2324,127962,61,19239,250,1,16957,0.0009989999999999721
1146000,9647,4792,128229,9649,4796,125109,59,19239,250,1,16958,0.0009980000000000544
1147001,12478,4482,126950,1554,3164,123983,52,19241,242,1,16959,0.0010010000000000296
1148002,12206,364,126545,-6632,-2195,127652,52,19240,213,1,16960,0.0010010000000000296
1149000,6885,-2063,128087,5435,-3425,129894,74,19234,303,0,16961,0.0009980000000000544
1150000,10020,1355,126819,6421,-1677,127840,71,19236,291,0,16962,0.0009999999999998899
1151000,8701,-228,128503,-8258,-205,126092,72,19236,295,0,16963,0.001000000000000112
1152000,7751,2861,127595,-3760,1669,125833,59,19236,295,0,16964,0.0009999999999998899
1153000,10385,404,126992,11709,-4354,130888,73,19237,242,0,16965,0.001000000000000112
1154000,11190,-2713,126847,-2300,88,124169,73,19230,299,1,16966,0.0009999999999998899
1155000,5974,2512,127362,-2652,3674,124478,59,19242,242,1,16967,0.001000000000000112
1156000,9491,6306,128764,7202,6100,126152,59,19240,242,1,16968,0.0009999999999998899
1157000,13185,3761,127384,1630,-4048,129569,51,19238,209,1,16969,0.001000000000000112
1158000,9817,-5910,126629,-7187,-5340,127665,65,19238,209,1,16970,0.0009999999999998899
1159000,5987,57,128252,5377,1530,124473,73,19235,266,0,16971,0.001000000000000112
1160002,9385,4616,127859,2801,2444,128607,73,19234,299,0,16972,0.0010019999999999474
1161000,11061,2539,127183,-10083,1756,124957,69,19238,283,0,16973,0.0009980000000000544
1162002,6610,2726,126434,3653,2568,124115,58,19241,238,0,16974,0.0010019999999999474
1163000,9547,5145,127084,7106,2098,126496,66,19232,270,0,16975,0.0009980000000000544
1164003,8946,-698,126886,-9514,-4406,128445,89,19232,270,1,16976,0.0010029999999998651
1165000,3732,-3680,127725,-7117,1709,127408,63,19238,365,1,16977,0.0009970000000001367
1166000,4973,3770,128822,6307,6223,127312,63,19244,258,1,16978,0.0009999999999998899
1167000,8989,-4484,124726,713,-1340,124172,54,19237,221,1,16979,0.001000000000000112
1168000,8428,9655,128391,-1929,9783,122335,59,19238,242,1,16980,0.0009999999999998899
1169000,7307,-283,125223,-1565,-10311,132727,89,19243,365,0,16981,0.001000000000000112
1170000,9493,76,130645,-6019,11578,119500,70,19243,365,0,16982,0.0009999999999998899
1171000,12110,7505,127318,-148,-8237,133848,60,19240,287,0,16983,0.001000000000000112
1172002,3766,-1959,126752,7142,-4080,127381,59,19241,246,0,16984,0.0010019999999999474
1173000,1397,238,126064,-9768,-6152,130403,59,19234,242,1,16985,0.0009980000000000544
1174000,8949,1190,127038,-10443,12482,118956,92,19235,377,1,16986,0.0009999999999998899
1175000,8228,21682,128452,5089,13388,120748,68,19239,279,1,16987,0.001000000000000112
1176000,11728,-228,127236,5819,-8121,132352,58,19239,238,1,16988,0.0009999999999998899
1177001,7183,-7521,126490,-11842,-7367,127634,58,19239,238,1,16989,0.0010010000000000296
1178000,7933,-6541,129732,-527,-5361,131245,83,19235,238,0,16990,0.0009989999999999721
1179000,2303,1423,128059,8671,2631,125778,83,19234,340,0,16991,0.001000000000000112
1180000,7666,3178,128069,-11997,1639,127230,75,19240,307,0,16992,0.0009999999999998899
1181003,5238,5850,126939,-14362,7548,121160,68,19241,279,0,16993,0.0010030000000000872
1182000,6911,6196,126699,10278,1283,126650,62,19241,254,0,16994,0.0009969999999999146
1183000,11694,-4915,126949,6069,-1888,127905,79,19236,254,0,16995,0.001000000000000112
1184000,4303,-1755,129800,-9825,-397,126971,63,19231,324,1,16996,0.0009999999999998899
1185000,4959,-5490,127055,-6095,-6396,131814,63,19239,258,1,16997,0.001000000000000112
1186000,7037,336,129717,9124,2276,126934,59,19242,242,1,16998,0.0009999999999998899
1187000,11463,-125,124794,-4659,-2411,127730,54,19236,221,1,16999,0.001000000000000112
1188000,6519,3617,127439,-4897,5103,118807,72,19236,295,0,17000,0.0009999999999998899
1189000,3405,1601,127388,72,-3989,132099,69,19236,295,0,17001,0.001000000000000112
1190000,13712,-3651,128970,219,-826,127815,69,19233,283,0,17002,0.0009999999999998899
1191000,7561,6643,127906,-1597,4124,124647,69,19237,283,0,17003,0.0009999999999998899
1192001,6157,-2515,127428,1139,-4417,129157,59,19240,242,0,17004,0.0010010000000000296
1193000,9548,-6298,126554,1526,-8540,132646,74,19236,303,1,17005,0.0009989999999999721
1194000,9692,-6639,128943,-4813,-4350,122658,60,19240,246,1,17006,0.001000000000000112
1195000,8239,9842,128579,1860,10519,120787,67,19240,246,1,17007,0.0009999999999998899
1196000,5624,5439,129233,-1843,1092,133205,54,19238,274,1,17008,0.001000000000000112
1197000,11528,-7605,126799,-4255,-5573,128512,54,19237,221,1,17009,0.0009999999999998899
1198000,5969,-4267,127924,4323,-3491,129873,63,19231,258,0,17010,0.001000000000000112
1199000,7473,1745,128112,3263,3106,121854,94,19237,385,0,17011,0.0009999999999998899
1200001,11208,5213,128595,-3758,-6540,130497,72,19238,295,0,17012,0.0010010000000000296
1201001,12358,-2828,128001,-4073,837,127423,65,19238,295,0,17013,0.001000000000000112
1202000,11359,2965,127983,10617,-63,125262,67,19237,266,0,17014,0.0009989999999999721
1203000,10524,-1499,126870,-6511,-5576,130051,67,19235,274,1,17015,0.0009999999999998899
1204000,7871,-4899,127793,-2874,-4074,127718,72,19239,295,1,17016,0.001000000000000112
1205003,7581,-2069,127832,9198,1731,129513,64,19235,262,1,17017,0.0010030000000000872
1206002,10660,6409,127776,711,5047,123263,56,19239,229,1,17018,0.0009989999999999721
1207000,12160,2750,125080,-5812,-2350,125049,57,19239,229,1,17019,0.0009979999999998324
1208004,8833,29,127621,4425,-721,127851,91,19237,233,0,17020,0.0010040000000000049
1209002,9138,1442,128506,6422,153,127740,91,19238,373,0,17021,0.0009980000000000544
1210000,11004,225,129334,-7960,-955,128049,74,19234,303,0,17022,0.0009980000000000544
1211000,7638,-344,128502,-856,-1961,126735,63,19240,258,0,17023,0.0009999999999998899
1212000,7424,-1357,127894,7284,-1039,128436,60,19236,246,0,17024,0.001000000000000112
1213000,12312,-1158,126407,-2119,-1722,127395,85,19236,246,1,17025,0.0009999999999998899
1214000,7825,464,127248,-4802,3061,123113,60,19234,348,1,17026,0.001000000000000112
1215000,8140,5997,127660,3889,5998,124979,60,19243,246,1,17027,0.0009999999999998899
1216001,11389,5973,127387,3998,3050,127055,58,19239,238,1,17028,0.0010010000000000296
1217000,11695,-2007,126516,-2074,-8844,131241,51,19234,209,1,17029,0.0009989999999999721
1218000,6399,-4124,127163,1281,-2556,126777,74,19236,303,0,17030,0.001000000000000112
1219001,5236,1082,126891,3515,1770,126961,70,19236,287,0,17031,0.0010010000000000296
1220000,10848,4444,128440,-6837,5333,125220,67,19236,287,0,17032,0.0009989999999999721
1221000,7088,5910,127841,-3923,3414,124479,61,19239,274,0,17033,0.0009999999999998899
1222000,8938,2480,127426,7310,411,127299,61,19238,250,0,17034,0.001000000000000112
1223000,9958,-670,126352,-2960,-6030,127979,77,19230,315,1,17035,0.0009999999999998899
1224000,5579,-5887,128960,-5189,-1120,124940,60,19240,246,1,17036,0.001000000000000112
1225000,7270,9395,129132,1699,9821,125202,61,19240,250,1,17037,0.0009999999999998899
1226000,12287,2756,126315,3321,-119,126727,53,19238,250,1,17038,0.001000000000000112
1227000,9436,8192,126685,-3195,8536,121355,69,19240,217,1,17039,0.0009999999999998899
1228000,5063,-794,126951,-5941,-7876,129994,69,19231,283,0,17040,0.001000000000000112
1229000,5125,-5918,129578,2658,-2414,127558,79,19233,324,0,17041,0.0009999999999998899
1230000,10513,-2625,126953,-3602,-4851,133059,66,19244,270,0,17042,0.001000000000000112
1231002,5160,3001,127629,-240,8681,118484,57,19244,233,0,17043,0.0010019999999999474
1232002,3932,11955,126220,-3830,8345,125747,71,19239,233,0,17044,0.001000000000000112
1233000,11551,-4054,125238,-5194,-1042,127811,78,19232,291,1,17045,0.0009979999999998324
1234003,7753,-537,128815,-307,1845,123249,78,19239,319,1,17046,0.0010030000000000872
1235002,11488,484,129228,2597,-2519,129697,65,19236,266,1,17047,0.0009989999999999721
1236001,7887,-1116,129001,836,-2371,126957,56,19235,229,1,17048,0.0009989999999999721
1237001,7630,-4895,128362,-9837,-5365,132016,65,19235,266,1,17049,0.001000000000000112
1238002,2082,3091,127534,97,5056,122218,85,19235,266,0,17050,0.0010010000000000296
1239003,5321,5261,126792,2226,2028,128161,75,19238,348,0,17051,0.0010009999999998076
1240002,8693,2149,127176,-11637,3335,121959,75,19234,307,0,17052,0.0009990000000001942
1241000,6702,3587,127080,763,799,129800,67,19239,274,0,17053,0.0009979999999998324
1242000,8865,-2576,127907,5654,-3069,126205,65,19234,266,0,17054,0.001000000000000112
1243000,6041,-1562,127469,-4476,-10593,133139,99,19234,405,1,17055,0.0009999999999998899
1244001,2835,-9813,128189,-10866,2646,125512,64,19234,405,1,17056,0.0010010000000000296
1245000,6539,8952,129543,5824,6455,125210,58,19234,262,1,17057,0.0009989999999999721
1246002,9578,3427,127010,-253,-3051,126881,58,19237,238,1,17058,0.0010020000000001694
1247000,11572,-686,126589,-9238,-1711,124699,58,19236,238,1,17059,0.0009979999999998324
1248000,6635,-2263,127672,7509,-5657,132255,83,19232,340,0,17060,0.001000000000000112
1249000,8227,1937,129006,-5935,3390,123201,73,19238,299,0,17061,0.0009999999999998899
1250000,8357,5326,128392,-8561,-5484,129429,65,19238,299,0,17062,0.001000000000000112
1251000,8495,-3026,128049,8960,629,126848,64,19238,266,0,17063,0.0009999999999998899
1252000,9650,1706,127184,4559,-2277,127069,64,19234,262,1,17064,0.001000000000000112
1253000,7095,-5751,127253,-14892,-6439,128874,88,19234,360,1,17065,0.0009999999999998899
1254000,7735,-2890,127017,1436,370,126080,66,19232,270,1,17066,0.001000000000000112
1255000,8068,1813,128738,11846,3701,128651,62,19237,254,1,17067,0.0009999999999998899
1256000,10626,6076,128287,-8802,3906,123083,57,19237,254,1,17068,0.001000000000000112
1257000,10344,-2247,125494,-4798,-9347,130349,72,19236,233,1,17069,0.0009999999999998899
1258000,7794,-7638,128500,12323,-1515,127545,72,19231,295,0,17070,0.001000000000000112
1259000,10796,2671,127880,-2232,2242,124783,77,19234,315,0,17071,0.0009999999999998899
1260000,8851,544,129642,-14633,945,126694,71,19236,291,0,17072,0.001000000000000112
1261003,7206,-242,128254,9498,-4807,131029,60,19239,246,0,17073,0.0010029999999998651
1262002,8124,-5603,127028,10002,-3300,129322,73,19239,246,1,17074,0.0009989999999999721
1263000,9174,2517,127655,-13716,2243,123256,55,19231,299,1,17075,0.0009980000000000544
1264000,11616,-729,126858,4778,-3727,128631,55,19239,225,1,17076,0.001000000000000112
1265000,12818,1998,128937,12822,5870,124565,63,19238,258,1,17077,0.0009999999999998899
1266000,13619,7046,127729,-6503,-478,126377,55,19236,225,1,17078,0.001000000000000112
1267000,7496,-2688,125599,-354,-9307,127092,67,19231,274,0,17079,0.0009999999999998899
1268000,2890,-3781,128920,7400,-4090,132240,77,19231,315,0,17080,0.001000000000000112
1269000,9014,-651,127917,-9030,3730,125132,74,19238,315,0,17081,0.0009999999999998899
1270000,12084,7567,128333,-3337,5460,123274,61,19239,303,0,17082,0.001000000000000112
1271000,10055,941,127019,13150,-2517,128359,61,19235,250,0,17083,0.0009999999999998899
1272000,11932,-2053,126362,-2844,-2171,125845,66,19231,270,1,17084,0.001000000000000112
1273000,9956,-1204,127705,-4847,-1674,128544,92,19237,377,1,17085,0.0009999999999998899
1274000,6459,-30,127010,5695,388,126504,62,19237,254,1,17086,0.001000000000000112
1275000,7091,6308,129517,-1855,5102,125759,52,19239,254,1,17087,0.0009999999999998899
1276000,10990,2610,125811,-4004,-1772,127028,57,19239,213,1,17088,0.001000000000000112
1277000,10323,-2670,126039,3877,-2294,126160,57,19237,233,0,17089,0.0009999999999998899
1278002,7313,4169,128243,3112,3588,125271,85,19235,348,0,17090,0.0010019999999999474
1279001,12620,1687,127223,-2277,-186,126985,71,19239,291,0,17091,0.0009989999999999721
1280000,8858,2569,128316,-4123,2835,126336,65,19239,266,0,17092,0.0009990000000001942
1281000,7279,1833,127364,3150,-311,127752,63,19240,266,0,17093,0.0009999999999998899
1282003,9468,-1816,127437,2690,-411,126102,89,19235,258,1,17094,0.0010030000000000872
1283002,5345,1593,128708,-10621,1386,126468,89,19237,365,1,17095,0.0009989999999999721
1284000,6031,-1233,125823,-5092,-2049,126174,64,19243,262,1,17096,0.0009980000000000544
1285000,9200,-1211,128030,10645,1503,124791,56,19242,229,1,17097,0.0009999999999998899
1286000,10493,18359,128283,-1772,17677,118597,55,19238,225,1,17098,0.001000000000000112
1287000,10727,-6680,124030,-7742,-14621,130700,77,19238,225,0,17099,0.0009999999999998899
1288000,2941,-3445,131044,3597,1946,123471,70,19233,315,0,17100,0.001000000000000112
1289000,12656,5365,127761,-2973,1366,130648,70,19238,287,0,17101,0.0009999999999998899
1290000,3733,-1957,127605,-3129,-1833,125169,65,19237,266,0,17102,0.001000000000000112
1291000,3028,-2536,126544,-4110,-2722,131022,59,19234,242,0,17103,0.0009999999999998899
1292002,9787,1627,126573,3945,16990,113996,75,19227,307,1,17104,0.0010019999999999474
1293000,6736,20052,129524,-13951,4553,126194,56,19227,307,1,17105,0.0009980000000000544
1294000,12576,-5583,125971,6233,-15445,134966,60,19237,229,1,17106,0.001000000000000112
1295000,4949,-9891,127885,7403,1795,124874,60,19244,246,1,17107,0.0009999999999998899
1296000,11228,5272,130238,-11551,2172,126859,55,19239,225,1,17108,0.001000000000000112
1297000,3125,169,126050,12212,-5647,129157,72,19229,295,0,17109,0.0009999999999998899
1298000,3692,-4018,128993,-8563,3254,126932,68,19236,279,0,17110,0.001000000000000112
1299000,7191,8642,127924,-10730,9545,120543,72,19236,279,0,17111,0.0009999999999998899
1300001,5722,6347,128358,-682,-1330,127493,62,19237,295,0,17112,0.0010010000000000296
1301001,10507,-8392,127363,12122,-6066,133530,62,19239,254,0,17113,0.0009999999999998899
1302000,6714,-4172,128947,-10802,243,123146,72,19233,295,1,17114,0.0009990000000001942
1303000,8501,4402,129111,-7930,1562,126850,104,19237,426,1,17115,0.0009999999999998899
1304000,2502,-3041,127538,7559,-7469,133957,66,19239,270,1,17116,0.001000000000000112
1305000,10716,-4068,127644,-4893,2640,122586,55,19239,270,1,17117,0.0009999999999998899
1306001,9864,8658,128448,-1960,7700,121359,63,19238,225,1,17118,0.0010010000000000296
1307000,4891,2713,126344,-985,-6407,130213,63,19236,258,0,17119,0.0009989999999999721
1308000,7700,-10322,127253,4704,-8355,133443,87,19235,356,0,17120,0.001000000000000112
1309000,7558,-2341,128407,-5917,5906,124426,74,19236,303,0,17121,0.0009999999999998899
1310000,9307,10639,128615,-621,7361,120556,62,19240,254,0,17122,0.0009999999999998899
1311002,5925,-666,126741,5261,-9876,134275,66,19240,270,0,17123,0.0010020000000001694
1312002,12376,-12405,127668,-5738,-8016,129321,86,19231,270,1,17124,0.0009999999999998899
1313002,8027,2118,129170,1990,6892,121160,69,19240,352,1,17125,0.001000000000000112
1314000,5912,7444,129022,-1575,2549,127340,69,19238,283,1,17126,0.0009979999999998324
1315000,9992,-3918,127317,-803,-8834,132603,60,19239,246,1,17127,0.001000000000000112
1316000,9371,-4946,127561,-3117,-1830,127965,60,19236,246,1,17128,0.0009999999999998899
1317000,9483,6241,126664,5708,3307,121600,84,19236,344,0,17129,0.001000000000000112
1318000,4135,1012,128463,1779,-2055,128347,71,19232,344,0,17130,0.0009999999999998899
1319000,14055,-4187,127623,-9505,-3855,129204,65,19236,291,0,17131,0.001000000000000112
1320000,10559,1666,129069,8600,4853,123852,65,19240,266,0,17132,0.0009999999999998899
1321001,8552,5066,127746,5101,-575,128779,61,19232,250,0,17133,0.0010010000000000296
1322002,10313,-8314,126936,-6216,-10364,129685,81,19239,332,1,17134,0.0010010000000000296
1323000,6963,-4261,128218,-1996,-1078,128959,61,19239,250,1,17135,0.0009980000000000544
1324000,12488,5804,127550,10078,6391,123884,58,19238,250,1,17136,0.0009999999999998899
1325000,10251,7179,127285,987,3151,124031,55,19239,238,1,17137,0.001000000000000112
1326000,13140,-4091,126461,-9655,-6146,130448,55,19238,225,1,17138,0.0009999999999998899
1327000,6880,-2981,128479,10552,487,124907,75,19234,307,0,17139,0.001000000000000112
1328000,9080,5351,128788,4104,2911,128948,72,19236,295,0,17140,0.0009999999999998899
1329001,9996,-4517,127073,-9992,-4858,128101,68,19237,279,0,17141,0.0010010000000000296
1330000,6264,81,128978,-1161,1747,125936,58,19237,279,0,17142,0.0009989999999999721
1331001,11469,2195,126556,11447,100,128644,71,19236,238,0,17143,0.0010010000000000296
1332000,9553,399,127135,-4987,-577,124279,71,19232,291,1,17144,0.0009989999999999721
1333000,6778,-839,126900,-6549,-3790,126194,67,19234,274,1,17145,0.001000000000000112
1334000,8671,7218,127537,5778,4526,124735,61,19240,250,1,17146,0.0009999999999998899
1335000,13593,9576,127601,3777,5014,130507,53,19239,217,1,17147,0.001000000000000112
1336000,10238,-5648,124625,-4710,-7426,124810,63,19239,217,1,17148,0.0009999999999998899
1337000,6103,-597,128175,1200,25,128125,74,19232,258,0,17149,0.001000000000000112
1338000,9589,4965,127628,5956,3094,125630,74,19240,303,0,17150,0.0009999999999998899
1339000,10292,3202,127491,-5938,1636,126034,69,19241,283,0,17151,0.001000000000000112
1340000,7576,2675,128316,-4285,2550,125986,59,19238,242,0,17152,0.0009999999999998899
1341000,9190,2887,126737,4864,-1567,126925,69,19235,283,0,17153,0.001000000000000112
1342001,10048,-3291,126325,-3173,-5884,127967,91,19235,283,1,17154,0.0010010000000000296
1343000,1943,-450,127808,-11112,5919,122946,60,19243,373,1,17155,0.0009989999999999721
1344000,9356,7155,126480,5123,3163,128344,60,19237,246,1,17156,0.0009999999999998899
1345000,12247,5597,127421,7408,8906,121640,53,19242,217,1,17157,0.001000000000000112
1346000,9083,8550,126466,-11766,-3955,127330,61,19238,250,1,17158,0.0009999999999998899
1347000,6327,-9519,127559,-1928,-8274,130173,92,19235,377,0,17159,0.001000000000000112
1348002,7916,-2173,127643,5776,-3791,131918,72,19235,377,0,17160,0.0010019999999999474
1349001,9107,-3669,127303,-8562,3786,122621,61,19237,295,0,17161,0.0009989999999999721
1350002,918,10233,127162,-3700,15401,118545,61,19240,250,0,17162,0.0010010000000000296
1351001,7500,6262,125860,6405,-533,131791,61,19237,250,1,17163,0.0009989999999999721
1352003,7702,-1363,126669,-8127,119,122415,89,19237,365,1,17164,0.0010019999999999474
1353000,8502,2121,129651,-4407,628,127073,63,19240,258,1,17165,0.0009970000000001367
1354000,10249,-110,128574,12914,-2784,128806,59,19240,258,1,17166,0.0009999999999998899
1355000,8723,-2584,129204,-7230,-5790,130580,58,19238,242,1,17167,0.001000000000000112
1356000,6051,-4735,127543,-12457,-1300,127532,58,19236,238,0,17168,0.0009999999999998899
1357000,-816,5227,128129,8700,6167,124075,81,19232,332,0,17169,0.001000000000000112
1358000,8433,6821,126978,-8467,4847,125064,72,19236,295,0,17170,0.0009999999999998899
1359000,9136,4514,127130,-10720,1232,124311,68,19239,279,0,17171,0.001000000000000112
1360000,7808,-1047,127527,11293,-3512,129252,62,19239,254,0,17172,0.0009999999999998899
1361000,10260,-2097,127281,2755,-4903,129110,82,19235,254,0,17173,0.001000000000000112
1362000,5649,-6099,127854,-15859,-6355,128781,69,19228,336,1,17174,0.0009999999999998899
1363001,3018,-19,128606,2190,2673,127719,69,19235,283,1,17175,0.0010010000000000296
1364000,6104,4056,127533,3232,2238,126956,59,19238,242,1,17176,0.0009989999999999721
1365003,11269,3167,127506,-11397,1968,123033,54,19234,221,1,17177,0.0010030000000000872
1366000,8703,-1351,126507,4358,-4022,128086,73,19234,299,0,17178,0.0009969999999999146
1367000,5191,-3418,129086,6060,1014,127352,73,19233,299,0,17179,0.001000000000000112
1368000,11849,-445,130218,-8603,4173,126653,70,19236,299,0,17180,0.0009999999999998899
1369000,8673,1025,127816,-3835,-784,127451,70,19236,287,0,17181,0.001000000000000112
1370000,8129,1628,128391,7895,1505,124613,62,19243,254,0,17182,0.0009999999999998899
1371000,9749,-2842,126422,1058,-6473,130530,73,19234,299,1,17183,0.001000000000000112
1372000,7501,-5986,127899,-11310,-4554,126215,64,19237,262,1,17184,0.0009999999999998899
1373000,8485,1589,129159,5305,1111,127893,65,19237,262,1,17185,0.001000000000000112
1374000,6713,3082,128300,4889,3638,126309,55,19241,266,1,17186,0.0009999999999998899
1375000,10420,3189,126340,-8120,461,125969,55,19239,225,1,17187,0.001000000000000112
1376002,6082,-6786,125935,1132,-7785,130578,63,19236,258,0,17188,0.0010019999999999474
1377000,8248,-1518,128067,6113,7,125486,98,19235,401,0,17189,0.0009980000000000544
1378000,11717,1911,128625,-3572,1076,126202,72,19235,295,0,17190,0.0009999999999998899
1379000,9238,3620,129175,-7036,2334,124810,62,19235,295,0,17191,0.001000000000000112
1380000,10283,-3421,127618,8759,-6488,131857,66,19235,254,0,17192,0.0009999999999998899
1381000,10392,-4418,127846,5811,-3059,125602,66,19229,270,1,17193,0.001000000000000112
1382000,8883,843,127264,-8704,-1215,128198,68,19240,279,1,17194,0.0009999999999998899
1383000,8743,-899,127790,3952,-1205,125067,62,19240,254,1,17195,0.001000000000000112
1384000,9518,8813,129285,7743,7650,127156,59,19241,242,1,17196,0.0009999999999998899
1385000,12333,3952,126179,-6532,-2713,127080,61,19241,242,1,17197,0.001000000000000112
1386001,6086,-3647,127317,-2251,-6061,130162,88,19238,250,0,17198,0.0010010000000000296
1387000,5720,-2944,128121,10446,-693,128958,88,19236,360,0,17199,0.0009989999999999721
1388000,10920,1797,128926,-7086,3374,123722,71,19236,291,0,17200,0.0009999999999998899
1389000,11667,2838,127576,-5749,-1176,128587,64,19239,262,0,17201,0.001000000000000112
1390001,10431,-1336,127167,9041,-645,126514,60,19238,246,0,17202,0.0010010000000000296
1391001,11429,612,127323,-11260,1010,125173,85,19238,246,1,17203,0.0009999999999998899
1392000,7949,552,127416,1155,-1649,127316,59,19233,348,1,17204,0.0009989999999999721
1393001,6151,757,128074,7111,4539,125853,59,19239,242,1,17205,0.0010010000000000296
1394000,10201,4109,128887,-6735,3448,125732,55,19239,225,1,17206,0.0009989999999999721
1395000,12987,1659,126650,1686,-3309,126337,51,19238,209,1,17207,0.001000000000000112
1396000,8221,-2096,127755,6355,-1854,127813,73,19232,299,0,17208,0.0009999999999998899
1397001,8200,-803,127055,-688,-425,126687,71,19232,299,0,17209,0.0010010000000000296
1398000,9731,2925,127838,-5498,3553,125760,67,19235,291,0,17210,0.0009989999999999721
