t_us,ax,ay,az,ax1,ay1,az1,shunt_raw,bus_raw,curr_raw,pg_rpm,seq,dt
0,13957,5143,122921,-6953,2489,115079,264,19222,1712,1,50853,
1001,17230,20150,125828,26428,18539,119124,264,19193,1081,0,50854,0.001001
2000,4062,-11392,120659,-9453,-11801,127927,339,19199,1388,1,50855,0.000999
2997,10915,5686,128549,-33324,7798,113780,460,19224,1884,1,50856,0.0009969999999999996
3997,4907,-11812,123793,54514,-15238,139053,274,19194,1122,0,50857,0.001
4997,-3025,-3387,120955,-22847,-4778,105089,349,19194,1122,0,50858,0.001
5997,7514,5056,123672,-33693,3601,132511,307,19185,1429,1,50859,0.001
6998,13137,8021,122820,40164,11199,100455,307,19216,1257,0,50860,0.0010010000000000002
7997,17851,39935,126499,-10146,38954,116889,361,19195,1479,0,50861,0.000998999999999999
8998,207,-8399,125276,-18140,-11437,137264,352,19194,1442,1,50862,0.0010010000000000002
9997,10032,-4258,127086,1705,-8945,134881,229,19213,938,1,50863,0.0009989999999999999
10997,5500,-10342,132713,15585,-4701,135340,348,19213,938,0,50864,0.0010000000000000009
11997,6271,13438,137056,-11500,14136,120443,392,19194,1425,1,50865,0.0009999999999999992
12997,7345,-7025,129269,-7545,-16414,146056,392,19197,1606,1,50866,0.0010000000000000009
13997,10965,1131,129926,-102,19659,117896,244,19206,999,0,50867,0.0009999999999999992
14997,17965,13499,132122,6556,-5436,138595,341,19195,1397,0,50868,0.0010000000000000009
15997,510,-11201,131160,-4410,-3658,130966,446,19224,1827,1,50869,0.0010000000000000009
16997,10099,-4986,136905,-6658,-16110,143154,283,19224,1827,0,50870,0.0009999999999999974
17997,2726,-23110,129400,7357,-15786,141492,335,19192,1159,0,50871,0.0010000000000000009
18997,7248,-4677,124701,-8804,-4945,117990,341,19196,1372,1,50872,0.0010000000000000009
20001,16536,16006,127842,20206,19713,120410,341,19219,1397,1,50873,0.001003999999999998
20999,14332,5242,118356,11213,-1445,121756,309,19193,1266,0,50874,0.0009980000000000024
21997,13230,7070,128355,-41500,14883,114368,360,19185,1474,1,50875,0.0009979999999999989
22997,9769,178,125728,23508,-11746,132398,350,19185,1433,1,50876,0.0010000000000000009
23997,2556,-11323,124048,23988,-9316,122674,369,19218,1433,0,50877,0.0009999999999999974
24997,-1337,-3793,124110,-42042,-14168,128957,367,19200,1511,0,50878,0.0010000000000000009
25997,4353,-7262,119234,17423,3926,113523,367,19188,1503,1,50879,0.0010000000000000009
26998,17071,43031,125974,2219,46633,101890,270,19211,1106,0,50880,0.0010009999999999984
27997,12637,17746,125895,-7279,2493,121720,398,19202,1630,0,50881,0.0009989999999999999
28997,945,-5763,125021,-7020,-9430,127184,387,19202,1585,1,50882,0.0010000000000000009
29997,5454,-11172,131911,2071,-16907,145250,247,19213,1585,1,50883,0.0010000000000000009
30998,6403,-3350,131731,-2188,4019,121335,327,19199,1012,0,50884,0.0010009999999999984
31997,12031,3317,135353,4607,-1234,137868,327,19194,1339,1,50885,0.0009989999999999999
32997,3613,-11644,128332,-15229,-7270,132958,466,19225,1909,1,50886,0.0010000000000000009
33998,19172,16454,131982,-8835,16322,121284,261,19193,1069,0,50887,0.0010010000000000019
34997,13243,236,128775,19903,-7826,143108,339,19193,1388,0,50888,0.0009989999999999999
35997,5578,-1910,130771,-5608,-1684,123668,350,19192,1388,1,50889,0.0010000000000000009
36997,5149,-14243,134976,-11034,-19528,151011,303,19223,1433,0,50890,0.000999999999999994
37997,4865,-15483,130932,3981,-12323,137171,303,19192,1241,0,50891,0.0010000000000000009
38997,10074,2175,126293,1189,271,122875,340,19186,1393,1,50892,0.0010000000000000009
39997,12947,7330,125208,996,11237,117376,223,19215,913,1,50893,0.0010000000000000009
40997,17721,17633,122669,24534,11985,118831,376,19200,1540,0,50894,0.0010000000000000009
41997,707,-8624,125944,-23334,-7768,127369,375,19200,1540,1,50895,0.0010000000000000009
42997,13140,4917,128327,-19124,1420,113783,237,19186,1536,1,50896,0.0010000000000000009
43998,3205,-9000,125844,56150,-11843,137800,237,19213,971,0,50897,0.001000999999999995
44997,-2486,-6353,122861,-34157,-8974,118412,356,19195,1458,0,50898,0.0009989999999999999
45999,9385,2238,122275,-19882,3013,117037,413,19218,1692,1,50899,0.0010020000000000029
46997,14087,30663,126752,31619,34095,109611,284,19195,1163,0,50900,0.0009979999999999989
48000,20437,22450,124338,-9599,19614,111232,352,19195,1163,0,50901,0.0010030000000000039
48997,-4243,-16298,121966,-13696,-19362,132986,378,19197,1442,1,50902,0.0009969999999999979
49997,7057,-8046,130518,-4399,-11248,135697,378,19221,1548,1,50903,0.0010000000000000009
50997,10128,-5390,129876,11595,-5391,129756,280,19194,1147,0,50904,0.0010000000000000009
51998,2454,18421,139620,1105,19643,124423,345,19191,1413,1,50905,0.001000999999999995
52998,10348,-18483,128147,-25817,-20614,134650,356,19224,1458,1,50906,0.0010000000000000009
53997,11618,9771,129545,6027,10678,119822,311,19224,1458,0,50907,0.0009989999999999999
54997,15274,11881,130052,18126,7779,137798,357,19200,1274,0,50908,0.0010000000000000009
55997,3697,-6201,127817,-12441,-8788,125681,357,19176,1462,1,50909,0.0010000000000000009
56997,8281,-9304,138333,-10619,-16194,152877,265,19223,1085,0,50910,0.0010000000000000009
57997,10177,-14511,131620,14798,-6288,127801,397,19197,1626,0,50911,0.0010000000000000009
58998,5651,-2161,125750,372,-7069,122163,358,19197,1466,1,50912,0.001000999999999995
59997,9888,51,126948,-3791,-349,130513,245,19197,1466,1,50913,0.0009989999999999999
60997,15042,574,119518,19510,2283,116618,393,19206,1003,0,50914,0.0010000000000000009
61997,10827,21402,130479,-36220,25733,114314,393,19194,1610,1,50915,0.0010000000000000009
62997,17173,8143,127733,37795,-9949,127753,422,19201,1728,1,50916,0.0010000000000000009
63997,-1608,-16445,121392,3559,-20004,129958,264,19195,1081,0,50917,0.0010000000000000009
64997,1191,-20589,122257,-38838,-16931,131981,323,19192,1323,0,50918,0.0010000000000000009
65997,4209,-4135,119778,29308,27131,104245,391,19192,1601,1,50919,0.0010000000000000009
66997,19496,43888,125716,1780,43164,105637,298,19223,1601,0,50920,0.0010000000000000009
67997,11433,13187,121849,-19175,2521,118486,351,19189,1221,0,50921,0.0010000000000000009
68997,1413,-7648,121494,-4512,-12046,134540,351,19192,1438,1,50922,0.0010000000000000009
69998,9999,-10458,129902,12605,-13425,137722,272,19222,1114,1,50923,0.001000999999999988
70997,1517,4336,132338,-3295,5642,121093,334,19196,1368,0,50924,0.0009989999999999999
71997,7944,4458,135568,-7124,-8781,142703,360,19196,1474,1,50925,0.0010000000000000009
72999,1270,-8810,130064,-11720,2469,128390,235,19185,1474,1,50926,0.0010020000000000029
73999,20788,15902,134003,3190,8580,130289,351,19210,962,0,50927,0.0010000000000000009
74997,9549,-650,127779,13530,-2461,131427,351,19200,1438,0,50928,0.0009979999999999989
75997,6226,4372,134485,-17778,-2398,130000,378,19188,1548,1,50929,0.0010000000000000009
76997,9750,-25759,136267,4261,-27060,151178,244,19207,999,0,50930,0.0010000000000000009
77998,5625,-11106,132912,8116,-6241,131596,380,19207,1556,0,50931,0.0010010000000000019
78997,8275,-3852,128358,-12879,-14318,133094,416,19210,1556,1,50932,0.0009989999999999999
79997,9842,3628,121877,9875,14652,107972,260,19218,1704,1,50933,0.0010000000000000009
80999,20379,22017,126229,28997,9553,129589,260,19189,1065,0,50934,0.0010020000000000029
81997,4672,-12645,122430,-33954,-7557,121372,337,19194,1380,1,50935,0.0009979999999999989
82997,9864,11673,128855,-14876,14629,111368,485,19223,1986,1,50936,0.0010000000000000009
83997,6779,-12060,124318,51179,-19118,144360,276,19193,1130,0,50937,0.0010000000000000009
84997,-5705,-6675,119435,-34858,-5391,111289,348,19193,1130,0,50938,0.000999999999999987
85997,10631,-8808,122228,-14824,-8770,131343,294,19191,1425,1,50939,0.0010000000000000009
86997,12187,28133,123121,31336,41756,97180,294,19211,1204,0,50940,0.0010000000000000009
87997,15673,45351,130600,-23178,27629,108722,369,19196,1511,0,50941,0.0010000000000000009
88997,1818,-27258,123305,-12345,-31779,144937,352,19195,1442,1,50942,0.0010000000000000009
89998,4093,-8465,129245,22985,-9972,131324,229,19214,938,1,50943,0.0010010000000000019
90997,4198,-2374,131662,-6559,-2748,132568,363,19214,938,0,50944,0.0009989999999999999
91997,7907,24898,138527,-16604,28137,110341,393,19197,1487,1,50945,0.0010000000000000009
92997,11191,-10773,132242,-860,-19058,156970,393,19199,1610,1,50946,0.0010000000000000009
93997,17165,-14383,124866,4595,-6027,126807,244,19202,999,0,50947,0.0010000000000000009
94997,7707,16592,130808,8978,9447,120560,355,19195,1454,0,50948,0.0010000000000000009
95997,1665,-11594,127622,-8652,-14141,141141,438,19219,1794,1,50949,0.0010000000000000009
96997,15879,-9671,133642,-20457,-9300,136493,262,19219,1794,0,50950,0.0010000000000000009
97997,6323,-8735,133713,31868,-8980,145013,328,19188,1073,0,50951,0.0010000000000000009
98997,5403,-1693,121619,-7545,-3403,118940,328,19196,1343,1,50952,0.0010000000000000009
99999,10870,1743,126555,-7963,-350,145086,375,19220,1536,1,50953,0.001001999999999989
100997,9887,-13667,117459,24504,-15877,112985,305,19185,1249,0,50954,0.0009979999999999989
101997,19234,27958,128034,-30070,33788,104415,358,19185,1466,1,50955,0.0010000000000000009
102999,8450,17792,129859,15685,15049,136907,364,19185,1466,1,50956,0.0010020000000000029
103999,-716,-27350,120361,19927,-28605,125590,350,19221,1491,0,50957,0.0010000000000000009
104997,4205,-25742,117751,-37629,-14108,134413,350,19199,1433,0,50958,0.0009979999999999989
105997,4097,10924,123196,13327,39771,93539,364,19193,1491,1,50959,0.0010000000000000009
106997,22476,47979,125810,11479,31561,111072,250,19211,1024,0,50960,0.0010000000000000009
107997,8343,3730,122548,-8180,-7338,128394,430,19199,1761,0,50961,0.0010000000000000009
108997,7725,-5787,123025,3562,-7011,126790,377,19199,1761,1,50962,0.0010000000000000009
109998,5153,-8332,127580,13171,-6800,137735,249,19218,1544,1,50963,0.0010010000000000019
110997,4837,362,131808,-12507,8234,122166,249,19203,1020,0,50964,0.0009989999999999999
111997,5226,-7152,134162,1320,-13027,144874,344,19199,1409,1,50965,0.0010000000000000009
112997,2126,-555,129585,-10945,13337,125024,482,19226,1974,1,50966,0.0010000000000000009
113997,19679,14857,132052,5104,3388,129459,263,19196,1077,0,50967,0.0010000000000000009
114997,6368,-3359,125977,4057,-4859,133774,338,19196,1384,0,50968,0.000999999999999987
115997,10468,389,133269,-12004,-5374,132947,373,19197,1384,1,50969,0.0010000000000000009
116997,7557,-15219,134308,11346,-20049,146831,302,19221,1528,0,50970,0.0010000000000000009
117999,7387,-8155,131210,-6532,-1442,128766,302,19191,1237,0,50971,0.0010020000000000029
118999,10005,-1045,129825,-7389,-10273,131413,342,19189,1401,1,50972,0.0010000000000000009
119997,9888,-838,121654,19119,13296,112266,256,19217,1049,1,50973,0.0009979999999999989
120997,17632,21176,126387,14429,8690,125996,393,19217,1610,0,50974,0.0010000000000000009
121998,5509,-13517,125119,-34471,-15480,123693,370,19201,1610,1,50975,0.0010010000000000019
122997,14135,14569,133044,2939,12003,113082,229,19183,1515,1,50976,0.0009989999999999999
123997,3681,-7498,125539,40096,-21600,143713,229,19211,938,0,50977,0.0010000000000000009
124997,-5157,-7511,121515,-43933,-5495,109677,363,19197,1487,0,50978,0.0010000000000000009
125997,9223,-2680,122343,-1410,-5147,130504,411,19217,1683,1,50979,0.0010000000000000009
126997,15670,18253,123466,25097,38869,99772,271,19195,1110,0,50980,0.0010000000000000009
127997,13765,41426,128904,-21480,27037,110861,370,19195,1110,0,50981,0.0010000000000000009
128997,-994,-25352,121111,-9917,-30251,144352,397,19197,1515,1,50982,0.0010000000000000009
129998,7954,-6309,127109,6485,-2392,125950,397,19226,1626,1,50983,0.0010010000000000019
130997,6479,-2013,133897,354,-4159,137308,265,19195,1085,0,50984,0.0009989999999999999
131997,11228,8185,133588,-3818,8800,120895,351,19188,1438,1,50985,0.0010000000000000009
132997,2457,-8092,130761,3519,-10487,144201,355,19224,1454,1,50986,0.0010000000000000009
133997,12147,10048,129747,-25291,11825,123016,312,19224,1454,0,50987,0.0010000000000000009
134997,15340,13024,131665,13984,6880,129722,352,19194,1278,0,50988,0.0010000000000000009
135997,2974,-5671,133165,13168,-6636,136953,352,19186,1442,1,50989,0.0010000000000000009
136997,9649,-9776,134941,-23771,-11376,134692,251,19220,1028,0,50990,0.0010000000000000009
137997,5635,-21724,132259,13584,-20340,146200,379,19200,1552,0,50991,0.0009999999999999731
138997,13345,-634,128673,4859,898,122453,362,19206,1483,1,50992,0.0010000000000000009
139997,10064,-6541,120857,-6386,-11651,125710,267,19206,1483,1,50993,0.0010000000000000009
140997,17087,29215,129962,20003,33805,106590,390,19205,1094,0,50994,0.0010000000000000009
141998,4227,-8829,119668,348,-17367,136969,390,19201,1597,1,50995,0.0010010000000000019
142998,5574,-1476,126058,-40439,3776,112713,419,19201,1716,1,50996,0.0010000000000000009
143998,12676,-1339,125913,46680,-6827,134012,250,19198,1024,0,50997,0.0010000000000000009
144998,-4952,-14025,116947,-919,-12679,124012,331,19196,1356,0,50998,0.0010000000000000009
145997,11366,15565,126425,-47496,13354,109413,422,19196,1356,1,50999,0.0009989999999999999
146997,8826,-11862,119249,39180,-8263,100289,295,19222,1728,0,51000,0.0010000000000000009
147997,17498,56420,129206,-5642,57828,108606,295,19187,1208,0,51001,0.0010000000000000009
148997,2893,-10715,127202,-17067,-14291,146366,340,19194,1393,1,51002,0.0010000000000000009
149997,4103,-10985,125320,-6185,-14191,124791,309,19219,1266,1,51003,0.0010000000000000009
150997,7940,-10038,135532,12937,-11561,144998,343,19197,1405,0,51004,0.0010000000000000009
151997,5104,7285,133349,-5409,22479,108522,367,19197,1405,1,51005,0.0010000000000000009
152997,9481,9351,132591,-4275,-17951,152155,230,19177,1503,1,51006,0.0010000000000000009
153997,9112,-14904,129475,-4870,7689,121764,230,19211,942,0,51007,0.0010000000000000009
154997,22080,22880,130923,-10084,8593,130228,351,19199,1438,0,51008,0.0010000000000000009
155997,-4365,-13921,130355,21754,-6465,139833,387,19197,1585,1,51009,0.0010000000000000009
156997,7814,-5305,135780,-23284,-10738,132416,244,19209,999,0,51010,0.0010000000000000009
157997,10247,-25022,130263,23175,-24312,153881,366,19209,1499,0,51011,0.0010000000000000009
158997,3848,-5483,127138,-11283,1674,113386,408,19197,1499,1,51012,0.0010000000000000009
159997,18252,13100,123692,3776,18214,111877,261,19212,1671,1,51013,0.0010000000000000009
160997,10742,12599,124108,35541,-919,133982,261,19191,1069,0,51014,0.0010000000000000009
161997,11527,-5360,125227,-40930,-2364,114173,338,19196,1384,1,51015,0.0010000000000000009
162998,9981,8605,129377,-4690,3493,123837,460,19225,1884,1,51016,0.0010010000000000019
163997,7004,-6340,126231,46617,-10225,131793,273,19225,1118,0,51017,0.0009989999999999999
164997,-1000,-8353,122471,-35514,-12959,122415,349,19193,1118,0,51018,0.0010000000000000009
165997,1912,-10821,120388,-7932,-2786,123582,304,19189,1429,1,51019,0.0010000000000000009
166997,20002,32752,125087,9966,43587,95438,304,19219,1245,0,51020,0.0009999999999999731
167997,16384,36786,127578,2837,13508,119921,356,19189,1458,0,51021,0.0010000000000000009
168997,2542,-14526,121361,-21273,-19665,132570,352,19193,1442,1,51022,0.0010000000000000009
169999,3789,-11952,128812,4099,-13759,137397,232,19193,950,1,51023,0.0010020000000000029
170997,2147,-3625,133391,6435,-463,130699,370,19211,950,0,51024,0.0009979999999999989
171997,12301,10952,136326,-6378,11123,124723,385,19197,1515,1,51025,0.0010000000000000009
172997,-252,-12817,130540,-3790,-13315,143459,385,19203,1577,1,51026,0.0010000000000000009
173997,16910,6232,129946,-17184,14256,121577,241,19205,987,0,51027,0.0010000000000000009
174997,17238,7000,130111,18674,-3460,135125,339,19195,1388,0,51028,0.0010000000000000009
175997,2896,-4214,130995,5093,-3652,131909,445,19214,1823,1,51029,0.0010000000000000009
176997,6190,-12308,134139,-18525,-19912,142858,284,19214,1823,0,51030,0.0010000000000000009
177997,2242,-20991,130269,8591,-14815,141638,329,19183,1163,0,51031,0.0010000000000000009
178999,13142,11082,128327,777,13229,119276,329,19199,1347,1,51032,0.0010020000000000029
179998,11856,-7815,119736,-295,-8385,126256,382,19217,1565,1,51033,0.0009989999999999999
180997,19705,26517,127074,23496,32320,105537,302,19188,1237,0,51034,0.0009989999999999999
181997,1795,-11280,122122,-13457,-19372,138127,363,19193,1487,1,51035,0.0010000000000000009
183001,8846,-3578,127160,-26479,6518,112485,377,19193,1487,1,51036,0.0010040000000000049
183997,7206,-366,128586,51499,-14626,137928,348,19221,1544,0,51037,0.0009959999999999969
184997,-1889,-14078,119666,-19497,-10244,117328,348,19197,1425,0,51038,0.0010000000000000009
185997,8224,22359,127230,-33106,17019,108435,358,19194,1466,1,51039,0.0010000000000000009
186997,12905,-8274,123047,39661,-4219,134848,246,19212,1008,0,51040,0.0010000000000000009
187997,19080,46849,126684,-8717,48033,86699,415,19200,1700,0,51041,0.0010000000000000009
188997,931,-9979,128453,-15540,-18559,144425,384,19200,1700,1,51042,0.0010000000000000009
189997,7567,-17512,123998,-6174,-15948,129926,246,19211,1573,1,51043,0.0010000000000000009
190997,6900,-5481,133147,16938,-7895,138795,246,19200,1008,0,51044,0.0010000000000000009
191998,5798,1806,132081,-9487,6074,127363,348,19194,1425,1,51045,0.0010010000000000019
192997,10308,5664,130214,-9722,3014,126525,456,19228,1868,1,51046,0.0009989999999999999
193997,8531,-12479,128520,3192,-12101,143210,261,19190,1069,0,51047,0.0010000000000000009
194997,20514,24236,131505,-6149,21842,132454,340,19190,1069,0,51048,0.0010000000000000009
195998,-3510,-9911,131499,6282,-14174,138491,392,19196,1393,1,51049,0.0010009999999999741
196997,6590,-2267,138445,-15738,1095,135479,392,19222,1606,0,51050,0.0009989999999999999
197998,6304,-21472,132418,14268,-20792,146576,299,19190,1225,0,51051,0.0010010000000000019
198997,5832,-8127,126917,-3114,-3986,115031,340,19186,1393,1,51052,0.0009989999999999999
199997,16764,12541,126617,-3401,14764,122548,272,19216,1114,1,51053,0.0010000000000000009
200997,12183,2389,121036,27569,226,124480,397,19216,1114,0,51054,0.0010000000000000009
201997,14813,11704,129943,-25980,20600,110493,374,19201,1626,1,51055,0.0010000000000000009
202998,7650,1843,129792,-3947,-21125,139313,374,19184,1532,1,51056,0.0010010000000000019
203997,4696,-16308,123976,18019,-8839,120704,226,19215,926,0,51057,0.0009989999999999999
204998,115,-5068,123765,-34861,-14767,130360,347,19198,1421,0,51058,0.0010010000000000019
205997,3764,-7613,120001,11563,14008,110338,406,19210,1663,1,51059,0.0009989999999999999
206997,19316,39405,124437,1617,43070,103786,286,19210,1171,0,51060,0.0010000000000000009
207999,11087,16660,125171,-6875,919,124579,388,19192,1171,0,51061,0.0010020000000000029
208999,3627,-4520,123394,-9551,-4290,123687,369,19199,1589,1,51062,0.0010000000000000009
209997,1539,-8610,130138,4019,-15673,145640,369,19224,1511,1,51063,0.0009979999999999989
210997,7565,-7217,132995,-4592,779,122745,271,19199,1110,0,51064,0.0010000000000000009
211997,9732,8198,136009,6438,-7304,136136,349,19192,1429,1,51065,0.0010000000000000009
212997,1368,-7347,131158,-18920,-695,131200,352,19192,1442,1,51066,0.0010000000000000009
213997,21328,17104,132453,-5786,16101,120079,305,19228,1442,0,51067,0.0010000000000000009
214997,11557,3603,130819,17793,-6073,144086,348,19197,1249,0,51068,0.0010000000000000009
215997,7544,-3759,131900,-7610,-5536,125813,348,19182,1425,1,51069,0.0010000000000000009
216997,1257,-16173,135432,-2482,-18986,146590,260,19218,1065,0,51070,0.0010000000000000009
217997,7310,-22182,131497,2804,-15370,137231,386,19200,1581,0,51071,0.0010000000000000009
218997,9883,-746,128290,-1623,-195,124128,359,19200,1470,1,51072,0.0010000000000000009
219999,11097,3408,121883,4774,10370,117778,244,19200,1470,1,51073,0.0010020000000000029
220997,18366,22088,124540,22418,15860,116548,381,19207,999,0,51074,0.0009979999999999989
221997,-646,-9194,123632,-24582,-10746,129087,381,19196,1560,1,51075,0.0010000000000000009
222998,10118,-1592,127640,-13073,243,118215,409,19196,1675,1,51076,0.0010010000000000019
223997,5910,-7333,124252,49196,-6316,136448,266,19195,1089,0,51077,0.0009989999999999999
224997,-1402,-4098,121068,-28235,-4461,114587,343,19197,1405,0,51078,0.0010000000000000009
226000,10389,3019,122561,-21574,5865,117180,389,19197,1405,1,51079,0.0010029999999999761
226997,14536,18192,124860,29510,28017,113115,298,19220,1593,0,51080,0.0009969999999999979
227997,17822,31800,126763,-8938,24647,107706,298,19191,1221,0,51081,0.0010000000000000009
228997,1286,-13510,124268,-9971,-23147,138301,348,19194,1425,1,51082,0.0010000000000000009
229997,1996,-8904,130042,-4747,-9180,133151,306,19223,1253,1,51083,0.0010000000000000009
230997,10894,-3317,132039,5339,-3041,130598,319,19201,1307,0,51084,0.0010000000000000009
231997,3689,20602,140402,3128,20048,121929,360,19201,1307,1,51085,0.0010000000000000009
232997,9789,-12973,129654,-18989,-18620,146025,219,19180,1474,1,51086,0.0010000000000000009
233997,11299,-5571,128438,5533,-513,127239,219,19216,897,0,51087,0.0010000000000000009
234997,14581,11926,131590,7565,7817,128675,360,19200,1474,0,51088,0.0010000000000000009
235998,4911,-8346,128284,-7276,-10211,133786,366,19192,1499,1,51089,0.0010010000000000019
236997,7475,-8025,136689,-10049,-6560,140679,237,19209,971,0,51090,0.0009989999999999999
238000,9492,-17375,130232,14167,-17057,144569,375,19209,971,0,51091,0.0010030000000000039
238997,3300,-4763,124389,-407,-7244,124056,415,19200,1536,1,51092,0.0009969999999999979
239997,9485,2886,126189,-4521,770,121374,415,19210,1700,1,51093,0.0010000000000000009
240999,12877,4722,118640,15245,4105,128258,272,19186,1114,0,51094,0.0010020000000000029
241999,15898,21592,129747,-23734,26784,113430,336,19195,1376,1,51095,0.0010000000000000009
242999,13401,10443,129438,11111,8580,133477,475,19220,1945,1,51096,0.0010000000000000009
243997,-1272,-24917,121618,28271,-27077,127725,272,19220,1945,0,51097,0.0009979999999999989
244997,3193,-18645,122727,-38784,-20820,130558,352,19192,1114,0,51098,0.0010000000000000009
245997,3782,3755,121503,7034,2262,101720,352,19186,1442,1,51099,0.0010000000000000009
246997,20113,44529,127683,11492,40112,107647,328,19220,1343,0,51100,0.0010000000000000009
247997,9668,11890,124301,-2490,-5890,124795,358,19191,1466,0,51101,0.0010000000000000009
248998,4422,-8902,123146,-17523,-9958,129859,350,19191,1433,1,51102,0.0010010000000000019
249997,8644,-7008,129052,5446,-9853,137596,220,19191,901,1,51103,0.0009989999999999999
250999,2782,-1436,132211,-9911,5886,123106,354,19220,901,0,51104,0.0010019999999999751
251998,8705,-83,133961,-7289,-6766,142270,391,19196,1450,1,51105,0.0009990000000000276
252997,692,-6101,130353,-11691,5111,127665,391,19196,1601,1,51106,0.0009989999999999721
253997,22994,12790,130606,6716,8798,128370,268,19202,1098,0,51107,0.0010000000000000009
254997,9485,114,127544,6015,-1863,132919,360,19194,1474,0,51108,0.0010000000000000009
255997,7729,2004,133366,-15862,-5936,132459,437,19194,1790,1,51109,0.0010000000000000009
256997,6247,-17221,136099,12270,-23380,146328,268,19219,1790,0,51110,0.0010000000000000009
258000,5041,-10159,133703,-1691,-5687,133572,333,19188,1098,0,51111,0.0010030000000000316
258997,7701,-6886,128057,-11319,-11224,127763,333,19193,1364,1,51112,0.0009969999999999701
259997,9447,5831,123031,19421,16499,114124,370,19220,1515,1,51113,0.0010000000000000009
260997,20371,18342,125560,18907,6719,125256,303,19189,1241,0,51114,0.0010000000000000009
261997,5419,-8554,122526,-38405,-3785,120528,357,19189,1462,1,51115,0.0010000000000000009
262997,12046,4108,130018,7758,4934,116115,361,19186,1462,1,51116,0.0010000000000000009
263997,3376,-6496,125237,39912,-17704,138114,343,19222,1479,0,51117,0.0010000000000000009
264997,-3433,-10119,122455,-44576,-10817,117579,343,19201,1405,0,51118,0.0010000000000000009
265997,10184,-5932,122037,2653,-3099,125163,367,19183,1503,1,51119,0.0010000000000000009
267001,13233,26125,122849,27032,44775,97365,244,19210,999,0,51120,0.0010040000000000049
267999,15931,42165,129581,-29512,24747,111539,396,19196,1622,0,51121,0.0009979999999999989
268999,3583,-26478,122751,-1287,-28676,145670,378,19196,1622,1,51122,0.0010000000000000009
269997,1948,-13662,127101,13303,-10110,133999,246,19208,1548,1,51123,0.0009979999999999989
270997,3743,-453,132190,-2475,2237,126161,246,19201,1008,0,51124,0.0010000000000000009
271997,1876,19848,135277,-20235,18278,122485,339,19198,1388,1,51125,0.0010000000000000009
272997,16896,-17330,130118,-488,-23283,149916,453,19219,1855,1,51126,0.0010000000000000009
273997,11584,8694,131877,15242,18310,116957,256,19196,1049,0,51127,0.0010000000000000009
274997,16553,10331,129652,-16433,-5378,136602,337,19196,1049,0,51128,0.0010000000000000009
275997,2286,-11379,130077,7720,-6450,127478,370,19195,1380,1,51129,0.0010000000000000009
276997,7938,-448,139394,-5410,-6202,148187,370,19221,1515,0,51130,0.0010000000000000009
277997,10726,-22102,132019,-2699,-17125,138185,298,19190,1221,0,51131,0.0010000000000000009
278998,1864,13724,132647,11725,9472,115725,342,19189,1401,1,51132,0.0010009999999999741
279997,14080,-22819,122744,-6422,-25655,139739,299,19216,1225,1,51133,0.0009990000000000276
280997,11538,17957,125771,12636,19671,105215,377,19216,1225,0,51134,0.0010000000000000009
281997,12572,966,127909,-10620,130,132388,371,19195,1544,0,51135,0.0010000000000000009
282997,13037,14524,126076,-4806,17459,103829,371,19183,1520,1,51136,0.0010000000000000009
283997,733,-10703,129471,31850,-19246,140489,230,19216,942,0,51137,0.0010000000000000009
284997,1883,-29502,119051,-27714,-27764,131480,354,19194,1450,0,51138,0.0010000000000000009
285997,983,15097,124259,-9210,17929,105886,402,19209,1646,1,51139,0.0010000000000000009
286997,17740,21455,125167,17129,26218,120198,265,19209,1646,1,51140,0.0010000000000000009
287998,12609,39062,124404,-659,37995,94625,395,19196,1085,0,51141,0.0010009999999999741
288997,3199,-24797,125142,-16205,-27226,148204,395,19191,1618,1,51142,0.0009990000000000276
289997,5934,-4573,127131,-5515,-6381,120179,404,19220,1655,1,51143,0.0010000000000000009
290997,2853,1433,136339,15041,-522,144925,281,19191,1151,0,51144,0.0010000000000000009
291998,8307,14,136366,-9778,3037,120780,351,19192,1438,1,51145,0.0010009999999999741
292997,2363,2600,132254,-2704,2501,143161,366,19192,1499,1,51146,0.0009990000000000276
293997,18540,-271,133496,-7483,12850,122085,301,19221,1499,0,51147,0.0010000000000000009
294999,15635,18333,128729,7085,-396,130953,354,19196,1233,0,51148,0.0010020000000000029
295997,3584,-12603,133008,3387,-10248,140470,354,19181,1450,1,51149,0.0009979999999999989
296997,9625,-12051,135235,-13743,-8770,135358,299,19220,1225,0,51150,0.0010000000000000009
297997,4209,-17833,133123,18943,-18126,146845,379,19201,1552,0,51151,0.0010000000000000009
298997,10866,-5096,129487,-12537,3873,115893,353,19201,1446,1,51152,0.0010000000000000009
299997,9488,-1779,120703,11148,2352,121366,258,19188,1446,1,51153,0.0010000000000000009
300997,17754,13445,124096,28200,18293,119387,387,19204,1057,0,51154,0.0009999999999999454
301997,-607,8851,123562,-34851,-9653,121619,387,19196,1585,0,51155,0.0010000000000000009
302997,9618,-3482,127253,-14261,3442,120162,413,19198,1692,1,51156,0.0010000000000000009
303997,11504,4009,129285,59912,-8067,132804,251,19202,1028,0,51157,0.0010000000000000009
304997,-4307,-17984,119641,-40903,-15026,120142,330,19202,1352,0,51158,0.0010000000000000009
305997,9546,4460,126962,-18772,5470,117326,420,19198,1352,1,51159,0.0010000000000000009
306997,9459,6333,122805,36941,19426,117071,303,19219,1720,1,51160,0.0010000000000000009
307997,17776,45202,128421,-21438,42857,94184,303,19187,1241,0,51161,0.0010000000000000009
308997,4558,-3171,126861,-8004,-26803,143924,348,19197,1425,1,51162,0.0010000000000000009
309997,1023,-26960,123726,5740,-18006,136157,297,19222,1216,1,51163,0.0010000000000000009
310997,7276,2253,135906,-5717,-3025,131305,324,19195,1327,0,51164,0.0010000000000000009
311997,7663,2117,135074,7791,7108,126677,362,19195,1327,1,51165,0.0010000000000000009
312997,7016,4904,131562,-661,1211,134277,232,19181,1483,1,51166,0.0010000000000000009
313997,11019,-8925,128430,-29492,1110,133785,232,19220,950,0,51167,0.0010000000000000009
315000,21759,18411,131417,14883,13866,124369,339,19201,1388,0,51168,0.0010030000000000316
315997,2399,-5678,132185,19944,-14068,138778,365,19188,1495,1,51169,0.0009969999999999701
316999,2760,-12526,133429,-30152,-10647,134694,244,19211,999,1,51170,0.0010020000000000029
317997,7204,-21683,133011,14637,-22785,148536,374,19211,999,0,51171,0.0009979999999999989
318999,8236,-3701,129053,5511,2668,125970,400,19193,1532,1,51172,0.0010020000000000029
319997,13774,9133,123338,-15047,3467,115756,400,19211,1638,1,51173,0.0009979999999999989
321000,17616,14760,124379,28159,19151,118070,256,19189,1049,0,51174,0.0010030000000000316
321997,3312,-187,122671,2433,-5371,127144,334,19197,1368,0,51175,0.0009969999999999701
322998,8016,-6807,125737,-48736,482,119464,498,19221,2040,1,51176,0.0010010000000000296
323997,10849,-2076,127760,53822,-8216,132730,270,19221,2040,0,51177,0.0009989999999999721
324997,-5052,-10198,119666,-1990,-13817,121486,342,19198,1106,0,51178,0.0010000000000000009
325997,11404,6771,126172,-56146,6595,112215,342,19187,1401,1,51179,0.0010000000000000009
326997,10923,5286,122214,45083,9550,125262,304,19219,1245,1,51180,0.0010000000000000009
327997,17789,36532,127133,2702,36751,99493,344,19192,1409,0,51181,0.0010000000000000009
328997,4863,2820,127135,-25939,-3598,125942,350,19193,1433,1,51182,0.0010000000000000009
329999,1394,-15347,125644,-3042,-17908,139328,242,19193,1433,1,51183,0.0010020000000000029
330997,7939,-12959,132430,14774,-13106,137492,375,19212,991,0,51184,0.0009979999999999989
331997,2283,6705,133793,-7379,13035,124461,375,19201,1536,1,51185,0.0010000000000000009
332997,10021,5531,132543,-9472,1765,131976,384,19199,1573,1,51186,0.0010000000000000009
333997,9752,-11597,127311,2811,-8640,137057,248,19207,1016,0,51187,0.0010000000000000009
334997,20445,19198,132281,-6412,15785,122710,367,19194,1503,0,51188,0.0010000000000000009
335999,1937,-10180,129435,9901,-11886,139561,427,19194,1503,1,51189,0.0010020000000000029
336997,3312,3374,136617,-14797,5381,141273,254,19215,1749,1,51190,0.0009979999999999989
337997,9190,-22066,132996,11364,-21951,146027,254,19197,1040,0,51191,0.0010000000000000009
338997,5131,-9369,129913,2529,-8374,116290,322,19197,1319,1,51192,0.0010000000000000009
339997,15389,13445,126535,-8004,11470,119570,390,19222,1597,1,51193,0.0010000000000000009
340997,13320,4812,122508,27428,5623,126128,296,19189,1212,0,51194,0.0010000000000000009
341997,10392,-494,126915,-16842,21209,111973,355,19189,1454,0,51195,0.0010000000000000009
342997,12376,9281,133096,-15727,-12490,133849,378,19189,1454,1,51196,0.0010000000000000009
343997,1608,-15902,124022,41861,-10561,123269,333,19225,1548,0,51197,0.0010000000000000009
344999,-98,-415,127015,-20551,-18030,131289,333,19208,1364,0,51198,0.0010020000000000029
345997,4732,-19314,118969,15730,2827,114362,360,19191,1474,1,51199,0.0009979999999999989
346997,16331,41799,125105,428,56636,95870,244,19208,999,1,51200,0.0010000000000000009
347997,15213,24058,126326,-5832,599,125224,410,19208,1679,0,51201,0.0010000000000000009
348997,3936,-10447,121462,-9714,-6707,124541,372,19202,1679,1,51202,0.0010000000000000009
349997,1929,-9875,127642,1841,-15051,144856,245,19210,1524,1,51203,0.0010000000000000009
350997,4629,-10105,133086,215,3923,121212,245,19202,1003,0,51204,0.0010000000000000009
351999,9266,12571,136092,3804,1561,135275,353,19201,1446,1,51205,0.0010020000000000029
352997,141,-13078,132180,-12841,-14260,137094,452,19225,1851,1,51206,0.0009979999999999989
353997,17543,16303,132449,-6575,20294,117080,268,19225,1098,0,51207,0.0010000000000000009
354997,14376,7185,131869,15915,-8416,144230,335,19190,1098,0,51208,0.0010000000000000009
355997,5241,-1740,132738,-6982,-2043,123916,409,19193,1372,1,51209,0.0010000000000000009
356997,2039,-11407,136004,-3673,-18906,149439,409,19219,1675,1,51210,0.0010000000000000009
357997,6508,-23938,130963,4411,-14958,138755,306,19187,1253,0,51211,0.0010000000000000009
359000,11742,-939,129459,-3768,4368,123840,370,19194,1515,1,51212,0.0010029999999999761
359997,9431,-6096,120396,4064,3459,119029,290,19219,1188,1,51213,0.0009970000000000256
360997,22484,26250,125083,19522,20482,112725,382,19219,1188,0,51214,0.0009999999999999454
361998,1098,-9701,123182,-11024,-15674,135151,368,19202,1565,0,51215,0.0010010000000000296
362997,7822,703,127385,-24729,5330,110492,368,19178,1507,1,51216,0.0009989999999999721
363997,10030,-515,128268,44643,-8314,140451,221,19215,905,0,51217,0.0010000000000000009
364997,-4335,-6789,122488,-11960,-6577,117491,341,19202,1397,0,51218,0.0010000000000000009
365997,10202,1737,121738,-37144,-351,120092,405,19212,1659,1,51219,0.0010000000000000009
366997,12383,7360,123491,31821,25681,112845,274,19212,1659,1,51220,0.0010000000000000009
367997,17634,47802,129147,-2509,39670,100093,383,19196,1122,0,51221,0.0010000000000000009
368997,8425,-22351,124020,-16649,-30978,144947,383,19200,1569,1,51222,0.0010000000000000009
369997,-5966,-9598,126403,3011,-12225,126693,419,19225,1716,1,51223,0.0010000000000000009
370997,10803,-6988,132273,-4933,-7060,137026,259,19198,1061,0,51224,0.0010000000000000009
371998,5880,21808,137925,4169,27239,113523,345,19193,1413,0,51225,0.0010010000000000296
372997,7824,-5697,132930,-4391,-18270,151459,356,19193,1413,1,51226,0.0009989999999999721
373997,12409,-17190,125210,-7404,-8252,128444,303,19228,1458,0,51227,0.0010000000000000009
374997,12555,26032,132405,7103,23779,118505,303,19190,1241,0,51228,0.0010000000000000009
375997,5678,-14860,127532,128,-18446,143609,346,19188,1417,1,51229,0.0010000000000000009
376997,6377,-4197,133887,-16403,405,130145,273,19215,1118,1,51230,0.0010000000000000009
377997,7578,-15932,134391,14223,-17371,150005,371,19201,1520,0,51231,0.0010000000000000009
379000,5972,-13587,123521,4697,-13149,125231,357,19201,1520,1,51232,0.0010030000000000316
379997,7912,4102,127357,359,1949,120551,256,19192,1462,1,51233,0.0009969999999999701
380997,13702,-2300,119286,6469,-2656,134576,256,19208,1049,0,51234,0.0010000000000000009
381997,17645,32681,127307,-18426,40153,97582,379,19199,1552,0,51235,0.0010000000000000009
382997,14032,11730,132091,15373,6811,124389,403,19199,1651,1,51236,0.0010000000000000009
383997,1702,-27849,120364,24047,-28136,121377,241,19202,987,0,51237,0.0010000000000000009
384997,-1737,-18495,123800,-34389,-21941,137224,344,19202,1409,0,51238,0.0010000000000000009
385997,6713,-1004,122867,712,667,94087,408,19191,1409,1,51239,0.0010000000000000009
386997,19934,45920,124873,14779,48505,114128,306,19219,1671,1,51240,0.0010000000000000009
387998,9856,8380,126614,2196,8375,125560,306,19185,1253,0,51241,0.0010010000000000296
388998,3753,-3961,121398,-22548,-5859,122689,343,19196,1405,1,51242,0.0009999999999999454
389997,6010,-5721,130553,3587,-11003,142703,318,19224,1302,1,51243,0.0009990000000000276
390997,4876,-2817,131637,7131,1964,118654,317,19224,1298,0,51244,0.0010000000000000009
391997,4378,849,134471,-5494,-5622,144642,364,19195,1298,0,51245,0.0010000000000000009
392997,967,-11358,131346,-16052,10153,124746,224,19177,1491,1,51246,0.0010000000000000009
393997,21840,13988,130656,11208,7690,128266,224,19220,917,0,51247,0.0010000000000000009
394997,13665,-2090,126683,7110,-856,135327,355,19199,1454,0,51248,0.0010000000000000009
396000,7143,1535,132810,-16864,-4175,128186,362,19197,1483,1,51249,0.0010029999999999761
396999,4709,-16795,132752,10739,-18884,149551,244,19197,999,1,51250,0.0009990000000000276
397997,5408,-9458,133809,2859,-9996,132744,372,19211,999,0,51251,0.0009979999999999989
398998,5608,-4386,128133,-13653,-13878,131720,405,19205,1524,1,51252,0.0010009999999999741
400000,8642,-1111,123343,12095,14280,111353,405,19214,1659,1,51253,0.0010020000000000029
400997,19752,24230,126183,25957,9363,125560,262,19189,1073,0,51254,0.0009970000000000256
401997,2556,-11112,122916,-29897,-6972,121899,327,19197,1339,0,51255,0.0010000000000000009
402997,14874,11876,132133,-4535,10172,113737,489,19223,2003,1,51256,0.0010000000000000009
403997,7248,-13679,127336,43734,-22991,143224,282,19223,2003,0,51257,0.0010000000000000009
404997,-4087,-8156,124148,-40423,-5282,112553,349,19197,1155,0,51258,0.0010000000000000009
405997,9046,-8422,124322,-8439,-10696,130581,349,19193,1429,1,51259,0.0010000000000000009
406997,9268,19587,121448,29308,41070,100683,343,19216,1405,1,51260,0.0010000000000000009
407997,19256,45103,129687,-18252,25873,108700,345,19193,1413,0,51261,0.0010000000000000009
408997,4232,-20377,122067,-8493,-24907,142206,350,19191,1433,1,51262,0.0010000000000000009
409998,2274,-9700,127159,2490,-4761,131634,218,19191,1433,1,51263,0.0010009999999999741
410997,6999,-5639,133254,-7416,-5008,133619,352,19217,893,0,51264,0.0009990000000000276
411997,7092,11429,133635,7589,14998,120964,352,19197,1442,0,51265,0.0010000000000000009
412997,2920,-10606,130440,-158,-14706,146245,382,19191,1565,1,51266,0.0010000000000000009
413998,12089,2374,129983,-29502,12954,118659,260,19203,1065,0,51267,0.0010009999999999741
414997,19019,21277,132882,19082,7218,131128,361,19200,1479,0,51268,0.0009990000000000276
415997,3982,-10527,132809,9678,-9770,136163,430,19200,1479,1,51269,0.0010000000000000009
416997,7623,-9105,135500,-21107,-11726,134738,261,19216,1761,1,51270,0.0010000000000000009
417997,2035,-24631,133052,17684,-25782,153720,261,19191,1069,0,51271,0.0010000000000000009
418997,8214,327,130534,-1441,6769,116491,325,19196,1331,1,51272,0.0010000000000000009
419997,10634,2033,122135,-12668,-4577,127440,372,19220,1524,1,51273,0.0009999999999999454
420997,17502,14604,124527,26774,23168,107787,289,19192,1184,0,51274,0.0010000000000000009
421997,5655,4930,121685,-2806,-5481,128470,358,19192,1184,0,51275,0.0010000000000000009
422997,8775,-9183,126248,-35951,-3631,119866,367,19189,1466,1,51276,0.0010000000000000009
424000,10530,420,128184,49451,-5813,128994,367,19222,1503,0,51277,0.0010030000000000316
424997,-3090,-20061,119194,-1973,-19853,132599,333,19195,1364,0,51278,0.0009969999999999701
425997,10008,18098,126165,-50245,19639,103618,363,19191,1487,1,51279,0.0010000000000000009
426997,10227,508,120691,41008,5722,133866,236,19212,967,1,51280,0.0010000000000000009
427999,17117,44753,125970,416,47358,90101,392,19212,1606,0,51281,0.0010020000000000029
428999,3362,-3637,128479,-21908,-9436,132640,371,19195,1606,1,51282,0.0010000000000000009
429997,3486,-19436,123964,-3680,-20843,138767,252,19207,1520,1,51283,0.0009979999999999989
430997,7618,-4887,136229,11621,-5606,131038,252,19203,1032,0,51284,0.0010000000000000009
431997,3427,4612,133216,-8761,6360,118760,367,19197,1503,0,51285,0.0010000000000000009
432997,10513,6166,132467,-2266,5224,142275,439,19220,1798,1,51286,0.0010000000000000009
433997,7499,-8757,129148,886,-8423,125825,256,19220,1049,0,51287,0.0010000000000000009
434998,22829,22003,132948,-10824,20403,127722,335,19195,1049,0,51288,0.0010010000000000296
435997,1526,-8812,131036,16223,-13523,139815,431,19187,1372,1,51289,0.0009989999999999721
436997,2111,-5745,134998,-16137,-7576,135885,431,19223,1765,1,51290,0.0010000000000000009
437997,7647,-26161,131400,1273,-16069,147407,293,19189,1200,0,51291,0.0010000000000000009
438998,3326,-7631,129803,5514,-1093,120993,342,19190,1401,1,51292,0.0010010000000000296
439997,17922,3687,121967,-5271,16774,111168,308,19190,1261,1,51293,0.0009989999999999721
440997,15897,11592,120864,24044,2847,129019,368,19226,1261,0,51294,0.0010000000000000009
441997,4526,-474,123417,-29674,7008,114037,370,19197,1507,0,51295,0.0010000000000000009
442997,9697,8671,128204,-5565,-5280,124333,370,19176,1515,1,51296,0.0010000000000000009
443997,6413,-8481,124605,42962,-10683,132410,230,19217,942,0,51297,0.0010000000000000009
444997,-3515,-6156,125431,-35494,-12428,120317,349,19193,1429,0,51298,0.0010000000000000009
445998,9879,-8734,120898,-7906,-1626,120034,393,19203,1610,1,51299,0.0010010000000000296
446997,12199,27084,125424,23059,44082,101561,283,19203,1610,1,51300,0.0009989999999999721
447997,18958,32851,128264,-4100,13990,116632,405,19196,1159,0,51301,0.0010000000000000009
448997,2941,-7242,123482,-19842,-16757,132527,405,19201,1659,1,51302,0.0010000000000000009
449997,-567,-13495,130512,1143,-17501,140587,402,19228,1646,1,51303,0.0010000000000000009
450997,7204,-8120,132562,4053,-3872,129022,266,19193,1089,0,51304,0.0010000000000000009
451997,6661,12977,135961,1965,11085,127076,347,19194,1421,0,51305,0.0010000000000000009
452999,5122,-9408,129533,-4590,-11683,139896,376,19194,1421,1,51306,0.0010020000000000029
453999,16045,4657,127899,-18697,18674,119213,291,19224,1540,0,51307,0.0010000000000000009
454997,22998,9261,134063,10893,4515,137204,291,19192,1192,0,51308,0.0009979999999999989
455997,3631,-6409,129530,11202,-7483,129870,346,19187,1417,1,51309,0.0010000000000000009
456997,567,-9674,133537,-18478,-12491,142846,308,19216,1261,1,51310,0.0010000000000000009
457997,4305,-25615,130037,6731,-22705,146082,369,19199,1511,0,51311,0.0010000000000000009
458997,7852,-1669,129160,6710,2081,121520,352,19199,1511,1,51312,0.0010000000000000009
459997,12151,4857,124282,-7321,3414,120651,240,19189,1442,1,51313,0.0010000000000000009
460997,18730,24650,124999,19031,22278,112514,240,19212,983,0,51314,0.0010000000000000009
461997,971,-1111,123965,-4261,-6342,132136,375,19195,1536,0,51315,0.0010000000000000009
462997,11336,-8680,126664,-30972,-1404,116156,399,19195,1634,1,51316,0.0010000000000000009
463998,6916,1602,127914,44807,-4838,132585,244,19201,999,0,51317,0.0010009999999999741
464997,-726,-15552,121623,-1827,-17264,126597,330,19201,999,0,51318,0.0009990000000000276
465997,9626,1040,121745,-42099,4205,109733,421,19198,1352,1,51319,0.0010000000000000009
466997,13178,13087,122892,30593,19726,120122,421,19222,1724,1,51320,0.0010000000000000009
467997,17866,40074,127666,8427,37894,97977,285,19183,1167,0,51321,0.0010000000000000009
468997,5001,-8352,125223,-17797,-18450,137298,340,19195,1393,1,51322,0.0010000000000000009
469997,-2580,-16882,126813,-11294,-16362,134289,330,19220,1352,1,51323,0.0010000000000000009
470997,11960,-3893,133141,9085,-2000,132561,310,19220,1352,0,51324,0.0010000000000000009
471997,3185,12313,135007,4841,19793,124559,363,19196,1270,0,51325,0.0010000000000000009
472997,8346,-1163,131712,-22474,-6951,137588,363,19184,1487,1,51326,0.0010000000000000009
473997,10960,-15694,127414,1423,-12096,136360,238,19220,975,0,51327,0.0010000000000000009
474997,16567,21159,131793,14976,18273,119352,369,19195,1511,0,51328,0.0010000000000000009
475997,7503,-7921,130124,-7818,-10247,138652,364,19193,1491,1,51329,0.0010000000000000009
476997,1955,-1964,133538,-17516,-1739,135504,240,19193,983,1,51330,0.0010000000000000009
477998,9461,-18319,133025,13642,-20590,149705,367,19211,983,0,51331,0.0010009999999999741
478997,5234,-5298,128539,5121,-3929,122816,401,19196,1503,1,51332,0.0009989999999999721
479999,7970,772,126912,-2413,-1351,126518,401,19210,1642,1,51333,0.0010020000000000029
480998,14382,3097,121339,10510,3781,119692,280,19192,1147,0,51334,0.0009990000000000276
482000,11988,14839,127189,-14457,17674,111844,339,19195,1388,0,51335,0.0010020000000000029
482999,16862,12830,130170,-5840,-9284,129848,489,19195,2003,1,51336,0.0009989999999999721
483999,-531,-20713,123360,36634,-23465,131802,270,19223,2003,0,51337,0.0010000000000000009
484997,-2285,-14951,125656,-22314,-19438,131071,349,19195,1106,0,51338,0.0009979999999999989
485998,7065,-8552,121988,-15955,15168,108967,349,19189,1429,1,51339,0.0010010000000000296
486997,13927,40234,123953,17591,45147,104624,353,19220,1446,1,51340,0.0009989999999999721
487998,13462,24664,125328,-10075,5757,118513,333,19189,1364,0,51341,0.0010010000000000296
488997,4212,-6674,121109,-13878,-7904,126997,344,19189,1409,1,51342,0.0009989999999999721
489997,6597,-10009,129599,11142,-14231,140673,233,19185,1409,1,51343,0.0010000000000000009
490997,3645,-8653,131281,-433,1117,123231,368,19216,954,0,51344,0.0010000000000000009
491997,5555,6718,135087,-4485,1914,137235,368,19199,1507,0,51345,0.0010000000000000009
492997,2052,-7538,132293,-12596,-1591,131642,384,19193,1573,1,51346,0.0010000000000000009
493997,19145,14872,132170,-3159,4829,127975,244,19210,999,0,51347,0.0010000000000000009
494997,16959,1234,132017,11714,-7742,136544,355,19196,1454,0,51348,0.0010000000000000009
495999,6120,2591,132447,-11266,-695,125164,412,19196,1454,1,51349,0.0010020000000000029
496997,4219,-10536,136337,-1138,-17321,148589,253,19211,1687,1,51350,0.0009979999999999989
497997,5032,-15421,132575,12819,-14530,139385,253,19193,1036,0,51351,0.0010000000000000009
498997,5058,-5304,131494,-11433,-4867,127588,319,19201,1307,1,51352,0.0010000000000000009
499997,9251,-4636,124315,-3134,8340,114591,382,19225,1565,1,51353,0.0010000000000000009
500997,20551,20246,124409,31877,16014,123103,290,19193,1188,0,51354,0.0010000000000000564
501997,5405,-10093,122060,-18802,-9707,127072,355,19193,1188,0,51355,0.0010000000000000009
502997,12644,4605,127007,-21313,11368,109457,383,19191,1454,1,51356,0.0010000000000000009
503997,6546,1135,129209,47255,-11757,138751,383,19214,1569,0,51357,0.0010000000000000009
504997,-6184,-13773,122560,-25038,-11223,119696,338,19204,1384,0,51358,0.0010000000000000009
505997,10193,-1668,122127,-25585,-5461,124328,370,19184,1515,1,51359,0.0010000000000000009
506997,7337,16105,122011,34264,33166,106759,237,19212,971,1,51360,0.0010000000000000009
507997,21059,48477,128566,-11294,41979,98111,398,19212,971,0,51361,0.0010000000000000009
508997,5743,-16428,125955,-15438,-26152,144875,366,19198,1630,1,51362,0.0009999999999998899
509997,-815,-19297,127023,10351,-16432,134326,366,19203,1499,1,51363,0.0010000000000000009
510997,7382,-4487,131974,4766,-6087,131147,241,19203,987,0,51364,0.0010000000000000009
511997,1438,18951,136956,-9248,25398,114853,343,19193,1405,0,51365,0.0010000000000000009
512997,12330,-3177,133367,-16261,-12708,147430,437,19217,1790,1,51366,0.0010000000000000009
513997,15519,-12648,130147,15012,-5163,131656,259,19217,1790,0,51367,0.0010000000000000009
514997,12615,16547,131646,9614,8216,123560,332,19198,1061,0,51368,0.0010000000000000009
515997,4416,-10025,128713,-16578,-10538,134287,332,19193,1360,1,51369,0.0010000000000000009
516997,6055,-2967,133903,-14164,-2884,139380,389,19225,1593,1,51370,0.0010000000000000009
517997,12791,-16806,133423,23914,-13928,147065,286,19195,1171,0,51371,0.0010000000000000009
518997,1939,7344,129040,1088,5041,115914,344,19191,1409,1,51372,0.0010000000000000009
519997,9511,-14827,125142,-11967,-15432,129629,326,19191,1335,1,51373,0.0010000000000000009
520997,11524,301,120985,19996,1309,126596,365,19220,1335,0,51374,0.0010000000000000009
521997,13461,10439,125350,-15996,15302,117110,362,19200,1495,0,51375,0.0010000000000000009
522999,14237,27121,131710,-6986,25888,107559,362,19176,1483,1,51376,0.0010020000000000584
523999,-41,-12403,124926,39673,-16880,138388,220,19218,901,0,51377,0.0010000000000000009
524997,2312,-31310,123474,-29852,-31676,131720,357,19197,1462,0,51378,0.0009979999999999434
525997,5112,732,124486,-7207,3735,111613,390,19197,1597,1,51379,0.0010000000000000009
526997,12548,32661,124370,20824,34872,101733,266,19204,1597,1,51380,0.0010000000000000009
527997,12469,30562,126365,-8042,29337,121574,406,19201,1089,0,51381,0.0010000000000000009
528997,3051,-12328,125079,-18952,-12860,136871,406,19199,1663,1,51382,0.0010000000000000009
529997,7401,-5649,129106,10336,-8430,129205,415,19229,1700,1,51383,0.0010000000000000009
530997,3961,-5746,133631,6466,-5730,130311,267,19188,1094,0,51384,0.0010000000000000009
531997,8251,3178,134220,-16447,2586,131797,347,19188,1421,0,51385,0.0010000000000000009
532998,4027,-6452,131084,5234,-1598,138675,387,19191,1421,1,51386,0.0010010000000000296
533999,15443,7992,131133,-6574,13693,123215,289,19224,1585,0,51387,0.0010010000000000296
534998,14859,8971,130186,10340,-2030,132021,289,19188,1184,0,51388,0.0009989999999999721
535997,5952,-6941,130850,-10686,-5355,133987,350,19189,1433,1,51389,0.0009989999999999721
536997,6470,-9649,133152,5153,-11000,143709,324,19220,1327,1,51390,0.0010000000000000009
537998,4176,-17551,132628,6628,-14282,140779,353,19200,1446,0,51391,0.0010010000000000296
538997,7077,466,131514,-13513,-8483,122718,350,19200,1446,1,51392,0.0009989999999999721
539997,10692,-2121,123775,9131,3288,117660,236,19189,1433,1,51393,0.0010000000000000009
540997,20288,17628,124176,21880,14349,123115,236,19207,967,0,51394,0.0010000000000000009
541997,3154,-477,123868,-24020,-4942,121640,380,19198,1556,0,51395,0.0010000000000000009
542997,10720,6852,127045,-10594,12680,111594,397,19200,1626,1,51396,0.0010000000000000009
543997,10416,-113,129180,49513,-16318,140583,244,19207,999,0,51397,0.0010000000000000009
544997,-6073,-22909,122863,-32090,-16188,119440,334,19207,999,0,51398,0.0010000000000000009
545997,8109,-2206,125121,-26036,-2994,124135,436,19197,1368,1,51399,0.0010000000000000009
546997,9867,14534,121894,33716,32164,106448,436,19217,1786,1,51400,0.0010000000000000009
547997,17806,50996,128266,-3011,38440,102815,299,19182,1225,0,51401,0.0010000000000000009
548997,3053,-15817,123380,-23623,-29055,143979,345,19197,1413,1,51402,0.0010000000000000009
550000,1891,-12827,125667,1593,-5873,127062,328,19220,1343,1,51403,0.0010029999999999761
550997,8024,-1460,132468,9497,4574,133729,304,19220,1343,0,51404,0.0009970000000000256
552018,9084,5139,134187,-11652,8742,122998,358,19194,1245,0,51405,0.0010210000000000496
552999,8953,-10535,129462,12720,-12757,143467,358,19183,1466,1,51406,0.0009810000000000096
553997,4638,239,130820,-14842,8597,127650,260,19223,1065,0,51407,0.0009979999999999434
554997,22561,19355,131727,-10333,12401,122587,366,19201,1499,0,51408,0.0010000000000000009
555997,3989,-5259,130675,25024,-10790,139738,360,19187,1474,1,51409,0.0010000000000000009
556997,4332,-2335,133822,-17769,-6391,135532,238,19187,1474,1,51410,0.0010000000000000009
557998,3787,-20510,130526,4136,-22130,142339,366,19211,975,0,51411,0.0010010000000000296
559000,5523,-6556,131842,11635,-793,127978,366,19198,1499,1,51412,0.0010019999999999474
559997,13429,-102,125793,-12435,-9013,129611,386,19209,1581,1,51413,0.0009970000000000256
560997,15490,9952,124817,13313,22607,105244,258,19196,1057,0,51414,0.0010000000000000009
561998,9891,18920,127116,11352,7213,131402,346,19196,1417,0,51415,0.0010010000000000296
562997,6522,-27037,119657,-39694,-19031,122541,478,19196,1417,1,51416,0.0009989999999999721
563997,9994,12558,131845,27366,7353,120226,275,19220,1958,0,51417,0.0010000000000000009
564997,2210,-22215,118715,30134,-25463,141397,275,19191,1126,0,51418,0.0010000000000000009
566000,6559,19676,126033,-58182,22525,90466,347,19190,1421,1,51419,0.0010029999999999761
566997,9065,-6029,120961,20619,-8959,146895,361,19219,1479,1,51420,0.0009970000000000256
567997,15569,31679,121313,17680,40992,90965,333,19191,1364,0,51421,0.0010000000000000009
568997,5107,25513,130885,-23691,15615,120627,351,19191,1438,1,51422,0.0010000000000000009
569997,-1146,-31855,122923,-9543,-31540,145394,211,19183,1438,1,51423,0.0010000000000000009
570997,10297,463,133541,9584,234,125713,357,19217,864,0,51424,0.0010000000000000009
571997,2771,-8864,134077,-3313,-6213,144578,357,19195,1462,0,51425,0.0010000000000000009
573002,9562,20630,131297,-4695,18118,131489,374,19200,1532,1,51426,0.0010050000000000336
573997,5360,-14620,131044,1881,-15055,141162,240,19206,983,0,51427,0.0009949999999999681
574997,25327,12505,131571,-13467,12934,117089,367,19206,1503,0,51428,0.0010000000000000009
575997,5850,3563,132830,22377,913,145504,411,19197,1503,1,51429,0.0010000000000000009
576997,-1515,-6543,132747,-14169,-7818,129803,268,19208,1683,1,51430,0.0010000000000000009
577997,10590,-17567,131961,-15203,-24994,154396,268,19194,1098,0,51431,0.0010000000000000009
578997,-1172,-17953,129797,24846,-5201,127932,336,19193,1376,1,51432,0.0010000000000000009
579997,17609,8389,123946,-13920,20010,101217,406,19224,1663,1,51433,0.0010000000000000009
580997,20336,16566,124345,13243,3715,135403,289,19190,1184,0,51434,0.0010000000000000009
581997,1846,-8478,119442,20481,-1297,115177,360,19190,1184,0,51435,0.0010000000000000009
582997,10188,6548,125260,-26526,7903,119056,384,19198,1474,1,51436,0.0010000000000000009
583997,5110,-933,128867,49747,-12861,132292,384,19221,1573,0,51437,0.0010000000000000009
584998,3194,-4091,125192,-25172,-9062,117384,322,19196,1319,0,51438,0.0010010000000000296
585997,4543,-13136,121577,-19572,-13312,130884,356,19181,1458,1,51439,0.0009989999999999721
586997,6060,14119,124078,20436,39918,98676,230,19219,942,1,51440,0.0010000000000000009
587997,23805,46195,128996,4750,26559,113256,407,19219,942,0,51441,0.0010000000000000009
588997,4306,-7514,124719,-14922,-15530,132578,367,19201,1667,1,51442,0.0010000000000000009
589997,2097,-11998,127265,-12349,-16894,133907,367,19203,1503,1,51443,0.0010000000000000009
590997,3633,-9389,132348,11306,-4657,135361,239,19203,979,0,51444,0.0010000000000000009
591997,8149,11286,134208,-3975,13319,121131,348,19194,1425,0,51445,0.0010000000000000009
592997,6357,-6255,131512,1900,-13791,143133,425,19213,1741,1,51446,0.0010000000000000009
593997,7758,1059,129063,-18092,11745,122405,254,19213,1741,0,51447,0.0010000000000000009
594997,22946,11974,132429,4980,5721,132897,328,19195,1040,0,51448,0.0010000000000000009
595997,3182,-6717,129759,17234,-785,132872,328,19190,1343,1,51449,0.0010000000000000009
596997,5280,-3247,134018,-19406,-7913,137542,408,19223,1671,1,51450,0.0010000000000000009
597997,3885,-27531,128699,10298,-23628,147140,280,19195,1147,0,51451,0.0010000000000000009
598999,5297,-3111,130735,1849,3416,121879,338,19188,1384,1,51452,0.0010019999999999474
599999,13498,-1150,123479,-7392,-6459,127507,347,19188,1384,1,51453,0.0010000000000000009
600997,18024,17671,123814,19235,27545,106641,351,19217,1421,0,51454,0.0009980000000000544
601997,10531,12959,122299,1561,-7133,133062,351,19195,1438,0,51455,0.0010000000000000009
602997,6790,-14679,123896,-34196,-877,115923,366,19180,1499,1,51456,0.0010000000000000009
603997,10114,10507,130924,40914,-4092,130837,224,19216,917,0,51457,0.0010000000000000009
604997,-2887,-25021,119475,9253,-21530,132062,356,19197,1458,0,51458,0.0010000000000000009
605997,9202,18171,125618,-52203,18945,101753,387,19197,1458,1,51459,0.0010000000000000009
606997,9683,-3474,121894,32799,-3481,135030,264,19200,1585,1,51460,0.0010000000000000009
607998,16461,40074,124953,3762,45103,90504,264,19203,1081,0,51461,0.0010009999999999186
608997,4910,5948,128107,-17899,-9726,135025,407,19197,1667,1,51462,0.0009990000000000832
609997,-1328,-21848,123932,-6985,-20086,133925,419,19227,1716,1,51463,0.0010000000000000009
610997,13347,-2721,134192,9850,-5375,134066,261,19195,1069,0,51464,0.0010000000000000009
611997,2621,-3045,130883,-4793,4049,131282,342,19195,1401,0,51465,0.0010000000000000009
612997,9722,14059,132970,-9202,11459,123375,411,19197,1401,1,51466,0.0010000000000000009
613999,3829,-12610,128521,-2969,-11506,146789,281,19224,1683,0,51467,0.0010019999999999474
614998,22652,12050,130952,912,12797,117299,281,19197,1151,0,51468,0.0009989999999999721
615997,5592,-1016,130428,13518,-3941,139679,348,19189,1425,1,51469,0.0009990000000000832
616997,2121,-5590,132998,-25901,-6867,133025,349,19213,1429,1,51470,0.0010000000000000009
617997,9178,-14796,131649,7499,-16739,144068,347,19213,1421,0,51471,0.0010000000000000009
618997,-1410,-5030,134097,12538,-6401,135588,353,19197,1421,1,51472,0.0010000000000000009
619997,15590,990,123669,-15272,2517,110300,233,19189,1446,1,51473,0.0010000000000000009
620997,15028,9859,125283,24396,8707,135464,233,19211,954,0,51474,0.0010000000000000009
621997,6180,-3396,120914,390,-1720,107087,388,19198,1589,0,51475,0.0010000000000000009
622997,14118,20649,128026,-38466,21344,121228,391,19193,1601,1,51476,0.0010000000000000009
623997,3881,-14179,126018,44641,-16259,140429,246,19193,1008,0,51477,0.0010000000000000009
624997,1474,-16696,124619,5930,-18499,119546,343,19207,1008,0,51478,0.0010000000000000009
625997,4447,-8705,121502,-37423,3214,121805,448,19197,1405,1,51479,0.0010000000000000009
626997,10083,26886,125923,16095,45308,97603,448,19221,1835,1,51480,0.0010000000000000009
627997,19739,34956,125080,7061,8328,120947,283,19178,1159,0,51481,0.0009999999999998899
628999,1403,-9197,124483,-14551,-11515,129595,339,19196,1388,1,51482,0.0010020000000000584
629997,3428,-6360,128074,1196,-5496,132747,334,19222,1368,1,51483,0.0009979999999999434
630997,6432,-6558,129593,6288,-3792,133286,298,19222,1368,0,51484,0.0010000000000000009
631997,9937,2021,134041,-1025,4863,129702,363,19193,1221,0,51485,0.0010000000000000009
632997,1394,-8846,129496,-5246,-9575,138032,363,19184,1487,1,51486,0.0010000000000000009
633997,10658,10395,132022,-15488,20428,118535,284,19222,1163,0,51487,0.0010000000000000009
634997,21661,10965,132427,13103,-8299,137310,359,19199,1470,0,51488,0.0010000000000000009
635997,5869,-8413,128961,2670,-5729,129398,360,19186,1474,1,51489,0.0010000000000000009
636997,3829,877,136116,-11935,-11254,140573,236,19186,1474,1,51490,0.0010000000000000009
637999,2075,-21234,129286,8735,-23301,145088,373,19225,967,0,51491,0.0010020000000000584
638997,7061,-1689,132297,515,8039,121407,373,19197,1528,1,51492,0.0009979999999999434
639997,11594,-5356,122762,-3369,-9987,131060,387,19202,1585,1,51493,0.0010000000000000009
640997,18269,12624,122856,16501,32148,104829,275,19195,1126,0,51494,0.0010000000000000009
641997,6446,8047,124275,1870,-13579,138543,358,19197,1466,0,51495,0.0010000000000000009
642997,6837,-18831,118972,-34218,-1021,113611,462,19197,1466,1,51496,0.0010000000000000009
643997,10086,15176,130950,34325,3594,128735,257,19221,1892,0,51497,0.0010000000000000009
644997,571,-23570,119623,15362,-23964,132194,257,19190,1053,0,51498,0.0010000000000000009
645998,5017,15874,123244,-54934,18031,103850,344,19194,1409,1,51499,0.0010010000000000296
646997,11737,-923,121337,30609,351,133643,355,19221,1454,1,51500,0.0009989999999999721
647997,16569,40116,121804,12923,51878,86913,320,19188,1311,0,51501,0.0010000000000000009
648998,11056,9701,129533,-19575,-13173,139698,344,19188,1311,1,51502,0.0010010000000000296
649997,-6986,-27006,123880,-5978,-15541,131088,238,19186,1409,1,51503,0.0009989999999999721
650997,13570,4117,132989,1880,-5210,133167,238,19218,975,0,51504,0.0010000000000000009
651997,3734,-3017,132059,5135,3678,128255,366,19200,1499,0,51505,0.0010000000000000009
652997,6799,20995,135077,-18152,8375,127214,377,19188,1544,1,51506,0.0010000000000000009
653997,6535,-22748,129832,-970,-21247,148063,240,19210,983,0,51507,0.0010000000000000009
654997,16101,19470,133967,11305,21891,111325,352,19210,983,0,51508,0.0010000000000000009
655998,10878,-1945,129836,360,-11218,144847,395,19198,1442,1,51509,0.0010010000000000296
656997,1910,-4087,131990,-20967,1509,126190,395,19209,1618,1,51510,0.0009989999999999721
657997,11741,-12271,135044,11118,-17595,148723,249,19200,1020,0,51511,0.0010000000000000009
658997,3405,-14106,129336,6695,-8378,132540,337,19198,1380,1,51512,0.0010000000000000009
659997,9631,-1516,124574,-4903,-1330,113495,411,19222,1683,1,51513,0.0010000000000000009
660997,13469,-813,120301,16956,-1671,138583,279,19222,1143,0,51514,0.0010000000000000009
661997,9238,5507,121304,-10554,11050,106031,352,19191,1143,0,51515,0.0010000000000000009
662997,14062,25329,127613,-18055,24569,117096,380,19190,1442,1,51516,0.0010000000000000009
663997,294,-4280,123090,38607,-7692,130782,380,19223,1556,0,51517,0.0010000000000000009
664997,-1059,-17705,126859,-8288,-19239,122368,302,19193,1237,0,51518,0.0010000000000000009
665997,7296,-15180,122354,-26517,-12523,134702,355,19181,1454,1,51519,0.0010000000000000009
666997,7420,30582,127359,17515,35669,96816,227,19181,930,1,51520,0.0010000000000000009
667997,18824,34455,127537,5842,33208,118428,407,19213,930,0,51521,0.0010000000000000009
668997,4885,-3290,124771,-19150,-5481,127860,361,19205,1667,1,51522,0.0010000000000000009
669997,5921,-10186,129688,302,-11493,139768,361,19207,1479,1,51523,0.0010000000000000009
670997,8336,-8725,129157,9462,-9840,123928,244,19206,999,0,51524,0.0010000000000000009
671997,9414,6996,135056,-7502,6737,135610,379,19192,1552,0,51525,0.0010000000000000009
672997,1501,-10731,129677,-2997,-6939,134898,417,19207,1708,1,51526,0.0010000000000000009
673997,10284,8099,130140,-12008,15824,124552,252,19207,1708,0,51527,0.0010000000000000009
674997,19985,3010,131663,11216,-2591,134979,322,19197,1032,0,51528,0.0010000000000000009
675997,5652,2710,127292,5972,930,125235,322,19197,1319,1,51529,0.0010000000000000009
676999,5051,-7746,133010,-4367,-14344,147545,482,19219,1974,1,51530,0.0010020000000000584
677998,4178,-19968,130045,15090,-14480,139397,295,19188,1208,0,51531,0.0009989999999999721
678997,5219,-36,131906,-10158,2575,125700,342,19193,1401,1,51532,0.0009989999999999721
679997,7563,-5804,125240,-4499,-14600,124115,352,19193,1401,1,51533,0.0010000000000000009
680999,21130,15507,125104,29221,24402,111511,343,19218,1442,0,51534,0.0010020000000000584
681997,11015,8264,122508,-247,-11782,135360,343,19194,1405,0,51535,0.0009979999999999434
682997,1913,-9403,120548,-41943,4140,109318,370,19181,1515,1,51536,0.0010000000000000009
683997,10041,15025,130070,36347,1843,131353,295,19224,1208,1,51537,0.0010000000000000009
684997,4255,-17015,121591,21759,-14798,127886,347,19197,1421,0,51538,0.0010000000000000009
685997,1894,1594,121401,-53370,3983,112826,375,19197,1421,1,51539,0.0010000000000000009
686997,8917,-6323,121782,21856,3533,125959,260,19202,1536,1,51540,0.0010000000000000009
687997,15522,42871,122664,12786,52229,87832,260,19203,1065,0,51541,0.0010000000000000009
688997,14986,17411,131922,-21678,-13376,139801,400,19197,1638,1,51542,0.0010000000000000009
689997,-981,-30567,121754,10064,-20412,132916,410,19228,1679,1,51543,0.0010000000000000009
690997,5053,1414,132074,-5283,-4336,136378,256,19187,1049,0,51544,0.0010000000000000009
691997,8488,-158,131573,-12706,17119,120813,331,19187,1049,0,51545,0.0010000000000000009
692997,5839,23739,134780,4975,6463,134156,423,19193,1356,1,51546,0.0010000000000000009
693997,11554,-31279,127859,2799,-25639,150431,423,19220,1732,0,51547,0.0010000000000000009
694997,10192,16180,130799,-4656,22907,107111,314,19188,1286,0,51548,0.0010000000000000009
695999,10884,2475,130301,-1079,-9674,145144,351,19191,1438,1,51549,0.0010019999999999474
697001,8207,263,133016,-9775,-4059,127318,355,19221,1454,1,51550,0.0010020000000000584
698000,9735,-6784,134401,11706,-13076,146687,332,19221,1454,0,51551,0.0009989999999999721
698997,1926,-9710,130977,-4587,-9567,131828,346,19195,1360,1,51552,0.0009970000000000256
699997,8558,-5735,124715,7330,-2955,114535,346,19187,1417,1,51553,0.0010000000000000009
700997,11903,-916,122256,14962,-6386,142022,221,19214,905,0,51554,0.0010000000000000009
701998,14986,4862,121636,-23665,19851,100463,382,19198,1565,0,51555,0.0010010000000000296
702998,12120,33630,129122,848,27609,114022,382,19193,1565,1,51556,0.0010000000000000009
703997,1035,-17560,122384,30619,-23038,139173,239,19193,979,1,51557,0.0009989999999999721
704997,2200,-24184,123241,-18980,-23439,120831,370,19213,979,0,51558,0.0010000000000000009
705998,1425,-14100,122609,-9094,-11700,135604,441,19200,1515,1,51559,0.0010010000000000296
706997,10958,34008,126811,9794,42017,91612,441,19220,1806,1,51560,0.0009989999999999721
707997,15141,35908,126005,1857,27576,118951,295,19185,1208,0,51561,0.0010000000000000009
708997,5482,-5700,120499,-16200,-1966,125484,337,19198,1380,1,51562,0.0010000000000000009
709997,6621,-1736,128493,2680,-4773,124619,355,19198,1454,1,51563,0.0010000000000000009
710997,8347,-8430,130682,5292,-7963,139834,289,19222,1454,0,51564,0.0010000000000000009
711999,10859,1334,133821,-5954,1686,122357,355,19189,1184,0,51565,0.0010019999999999474
712999,120,-10437,131430,-2033,-11175,145951,355,19188,1454,1,51566,0.0010000000000000009
713999,10906,12044,130120,-12130,12234,121408,303,19217,1241,1,51567,0.0010000000000000009
714998,17095,5658,133993,15339,3928,130210,339,19200,1388,0,51568,0.0009990000000000832
715997,7805,2861,129341,-913,-119,124628,354,19200,1450,1,51569,0.0009989999999999721
716997,5362,-5567,135082,-14689,-5929,146029,226,19180,1450,1,51570,0.0010000000000000009
717997,3855,-12481,130969,11149,-15115,138907,373,19213,926,0,51571,0.0010000000000000009
718997,5936,-8206,131058,-3525,-8419,129942,373,19200,1528,0,51572,0.0010000000000000009
719997,8018,-17613,124743,-1662,9022,117152,374,19204,1532,1,51573,0.0010000000000000009
720997,23292,23592,125016,14513,16335,120139,256,19202,1049,0,51574,0.0010000000000000009
721997,6274,-4017,117752,15029,-2706,123667,366,19195,1499,0,51575,0.0010000000000000009
722997,6417,4453,121856,-42121,11685,111237,446,19195,1499,1,51576,0.0010000000000000009
723997,10003,3912,126667,14109,-9325,136095,272,19214,1827,1,51577,0.0010000000000000009
724997,-4104,-12340,122911,-17102,-18379,121509,272,19197,1114,0,51578,0.0010000000000000009
725997,4638,-4322,122043,-33348,-9095,126772,341,19192,1397,1,51579,0.0010000000000000009
726997,5112,5356,122293,41719,32154,106229,368,19217,1507,1,51580,0.0010000000000000009
727997,16739,54035,126115,-18060,41961,101223,313,19189,1282,0,51581,0.0010000000000000009
728997,14139,-1041,126493,-13235,-22176,138554,346,19189,1282,1,51582,0.0010000000000000009
729997,-2928,-22743,125460,16063,-16310,135764,240,19190,1417,1,51583,0.0010000000000000009
730997,10898,-6102,130644,-10802,-5684,131209,240,19222,983,0,51584,0.0010000000000000009
731997,1872,10350,135090,-9717,17385,119936,361,19200,1479,0,51585,0.0010000000000000009
732997,11628,116,132651,10383,-19158,149008,368,19189,1507,1,51586,0.0010000000000000009
733997,5900,-7577,127353,-1114,8579,121166,236,19215,967,1,51587,0.0010000000000000009
734997,18140,23070,134751,-20825,14036,127037,351,19215,967,0,51588,0.0010000000000000009
735997,11183,-13075,126478,20511,-17163,141701,393,19194,1438,1,51589,0.0010000000000000009
736997,2820,-3670,133127,-5535,5911,129335,393,19201,1610,1,51590,0.0010000000000000009
737997,9010,-10007,133012,-10663,-20063,149444,271,19198,1110,0,51591,0.0010000000000000009
739002,774,-16106,126912,8760,-8200,124812,356,19199,1458,0,51592,0.0010049999999999226
739997,9426,10195,131158,-2794,819,129212,433,19226,1773,1,51593,0.0009950000000000792
740999,21559,-8244,120544,9568,1929,114332,281,19226,1773,0,51594,0.0010019999999999474
741997,8345,36203,128162,11271,23815,117614,355,19186,1151,0,51595,0.0009980000000000544
742997,6736,-24187,120726,-36689,-27209,134729,355,19191,1454,1,51596,0.0010000000000000009
743997,10606,13970,128062,21177,23844,104561,412,19221,1687,1,51597,0.0010000000000000009
744997,2798,-6777,127567,38828,-21236,149276,305,19198,1249,0,51598,0.0010000000000000009
745997,1601,-6460,119967,-56981,3484,97489,354,19181,1450,1,51599,0.0010000000000000009
747000,6023,8371,123986,11101,2750,134428,249,19181,1020,1,51600,0.0010029999999999761
747997,16935,12165,120712,24116,27360,101948,404,19210,1020,0,51601,0.0009969999999999146
748997,8042,46191,128849,-20125,29793,104704,356,19201,1655,1,51602,0.0010000000000000009
749997,-310,-36539,126202,-11054,-42963,158063,356,19203,1458,1,51603,0.0010000000000000009
750997,11761,-3444,128274,4983,2973,117626,234,19209,958,0,51604,0.0010000000000000009
751997,4505,-3584,135857,3449,-5216,145886,355,19194,1454,0,51605,0.0010000000000000009
752997,8190,11185,130257,-9553,13454,113845,408,19194,1671,1,51606,0.0010000000000000009
753997,3235,-5457,128939,-1,-7581,145028,252,19204,1671,1,51607,0.0010000000000000009
754997,21454,456,130675,-8447,6332,128784,323,19200,1032,0,51608,0.0010000000000000009
755997,11841,15297,130011,19853,8768,122897,323,19197,1323,1,51609,0.0010000000000000009
756997,-1213,-17006,131994,-13105,-19160,148146,442,19224,1810,1,51610,0.0010000000000000009
757997,11244,-7586,131723,-13005,-9132,127954,268,19193,1098,0,51611,0.0010000000000000009
758997,-134,-12674,131447,24499,-14230,149000,337,19193,1380,0,51612,0.0010000000000000009
759997,12410,-1089,124078,-15472,-2225,117822,351,19193,1380,1,51613,0.0010000000000000009
760997,19992,18808,127600,10029,19403,106766,330,19219,1438,0,51614,0.0010000000000000009
761997,11967,4852,121800,30072,1810,137555,330,19194,1352,0,51615,0.0010000000000000009
762997,5013,-363,119466,-45696,358,111526,361,19183,1479,1,51616,0.0010000000000000009
763997,6236,4382,128048,280,754,137670,268,19222,1098,1,51617,0.0010000000000000009
764997,7455,-16829,122936,56176,-19021,113398,359,19201,1470,0,51618,0.0010000000000000009
765997,1183,-4543,121699,-46399,-8483,130056,378,19201,1470,1,51619,0.0010000000000000009
766997,4276,-8251,120250,-7016,-6845,109279,256,19201,1548,1,51620,0.0010000000000000009
767997,17347,48446,120975,19074,46660,101160,256,19205,1049,0,51621,0.0010000000000000009
768999,7630,17297,129900,-8665,-12220,134861,399,19199,1634,1,51622,0.0010020000000000584
769997,-427,-18238,122064,-17821,-21010,131864,400,19219,1638,1,51623,0.0009979999999999434
770997,7099,-9704,131266,5156,-9388,141108,271,19191,1110,0,51624,0.0010000000000000009
771997,10614,2137,132393,-4819,16655,116289,336,19191,1110,0,51625,0.0010000000000000009
772997,7781,9604,130823,7282,-4711,139116,444,19192,1376,1,51626,0.0010000000000000009
773997,2316,-12599,129321,-16692,-3823,134474,444,19225,1818,1,51627,0.0010000000000000009
774997,23090,12086,131678,-6722,14394,121535,275,19195,1126,0,51628,0.0010000000000000009
775997,7365,6600,130404,26140,-10496,140431,346,19191,1417,1,51629,0.0010000000000000009
776997,2836,-5233,134554,-18861,-7424,130983,367,19224,1503,1,51630,0.0010000000000000009
777997,4866,-17601,128865,759,-26127,148886,324,19224,1503,0,51631,0.0010000000000000009
778997,3725,-9792,132685,9003,-1855,129899,348,19193,1327,0,51632,0.0010000000000000009
779997,14168,7832,125294,-4900,-3468,121834,348,19182,1425,1,51633,0.0010000000000000009
780997,16281,520,121623,7585,18033,112283,220,19215,901,0,51634,0.0010000000000000009
781997,15678,21326,124639,14577,10700,126785,391,19201,1601,0,51635,0.0010000000000000009
782998,2102,-19223,120842,-42333,-11610,123474,384,19190,1573,1,51636,0.0010010000000000296
783997,15580,8856,129749,21695,5681,121127,241,19190,1573,1,51637,0.0009989999999999721
784999,1341,-17546,122382,43114,-23014,138268,349,19209,987,0,51638,0.0010020000000000584
785999,1738,7967,122462,-66020,14045,99745,349,19198,1429,1,51639,0.0010000000000000009
786997,7871,3864,125331,18114,-1598,135535,440,19222,1802,1,51640,0.0009979999999999434
787999,15496,22277,119312,23158,34413,100597,276,19187,1130,0,51641,0.0010020000000000584
788998,12093,36040,128819,-19237,18764,114921,340,19200,1393,0,51642,0.0009989999999999721
789997,-5242,-23259,124533,-11673,-24012,141850,321,19200,1393,1,51643,0.0009989999999999721
790997,13615,-5563,130585,5174,-7454,132476,289,19228,1315,0,51644,0.0010000000000000009
791997,3238,-12188,133866,2421,-3438,137443,289,19189,1184,0,51645,0.0010000000000000009
792997,7822,16335,132796,-9053,11194,117380,357,19185,1462,1,51646,0.0010000000000000009
793999,2737,-10013,128206,2422,-13690,143434,328,19218,1343,1,51647,0.0010020000000000584
794997,17931,10403,133716,-10239,16270,121137,348,19197,1425,0,51648,0.0009979999999999434
795999,15446,5336,129095,14648,-7601,137416,358,19197,1466,1,51649,0.0010020000000000584
796999,-1912,-6978,132996,-5687,-2845,131638,226,19181,1466,1,51650,0.0010000000000000009
797997,12144,-8312,132634,-12865,-14282,140951,378,19217,926,0,51651,0.0009979999999999434
798997,-1756,-23160,128297,16003,-17392,142745,378,19201,1548,0,51652,0.0010000000000000009
799997,11127,-2566,125090,-9705,-503,118507,374,19198,1532,1,51653,0.0010000000000000009
800997,21488,17618,125604,15022,14548,116037,270,19197,1106,0,51654,0.0010000000000000009
801997,8044,2444,119444,15574,-347,125517,375,19197,1536,0,51655,0.0010000000000000009
802998,10752,6706,123719,-44351,6294,116889,444,19196,1536,1,51656,0.0010010000000000296
803997,2811,-3952,123916,20471,-7592,130022,255,19215,1818,1,51657,0.0009989999999999721
804997,6203,-4391,123446,36983,-8445,127651,255,19193,1044,0,51658,0.0010000000000000009
805997,292,-8531,119703,-43322,-9100,122765,339,19196,1388,1,51659,0.0010000000000000009
806997,7668,2998,123755,2381,9617,116122,342,19217,1401,1,51660,0.0010000000000000009
807997,20796,46244,123669,16108,48084,101969,310,19217,1270,0,51661,0.0010000000000000009
808997,6765,9257,127260,-9670,3797,120548,342,19190,1270,0,51662,0.0010000000000000009
809997,1091,-16247,126349,-15459,-18360,130327,273,19190,1401,1,51663,0.0010000000000000009
810997,4930,-7000,133875,7205,-10813,139368,273,19215,1118,0,51664,0.0010000000000000009
812000,10412,-130,131339,-3769,712,121113,373,19202,1528,0,51665,0.0010029999999999761
812997,5291,6686,131586,2865,3792,139594,372,19188,1524,1,51666,0.0009970000000000256
813997,5607,-7140,129109,-10605,-7195,126250,233,19215,954,1,51667,0.0010000000000000009
814997,22548,13912,132331,-8961,10041,128465,355,19215,954,0,51668,0.0010000000000000009
815997,5413,-1533,128895,20377,-6675,137246,387,19197,1454,1,51669,0.0010000000000000009
816997,6687,-5199,131516,-10805,-4318,131313,387,19201,1585,1,51670,0.0010000000000000009
817997,2330,-17299,129732,-11935,-20991,148253,245,19208,1003,0,51671,0.0010000000000000009
818997,7033,-12041,129664,12477,-2981,127187,353,19192,1446,0,51672,0.0010000000000000009
819997,11085,1700,124386,-6872,-3974,121770,442,19226,1810,1,51673,0.0010000000000000009
820997,17519,16355,123859,16413,20072,114135,273,19226,1810,0,51674,0.0010000000000000009
821997,12272,17840,124095,-997,-5341,128542,350,19193,1118,0,51675,0.0010000000000000009
822997,5870,-12662,123366,-33870,-4488,120961,350,19193,1433,1,51676,0.0010000000000000009
823997,10295,5788,132954,39950,-7405,131013,420,19224,1720,1,51677,0.0010000000000000009
824997,-1892,-15816,120816,10132,-15000,126802,289,19190,1184,0,51678,0.0010000000000000009
825997,1864,8388,124951,-56151,12145,108904,351,19185,1438,1,51679,0.0010000000000000009
826997,13617,-1245,122906,30456,7452,126868,225,19185,1438,1,51680,0.0010000000000000009
827997,17437,32285,122013,13839,41278,97827,403,19213,922,0,51681,0.0010000000000000009
828997,9902,16058,127309,-22560,-10011,130865,403,19198,1651,0,51682,0.0010000000000000009
829997,-4111,-22949,123028,-5313,-16679,134305,357,19200,1462,1,51683,0.0010000000000000009
830997,12720,-2333,131415,7845,-4976,134252,230,19213,942,0,51684,0.0010000000000000009
831997,6091,-318,131767,-1081,12093,125986,359,19197,1470,0,51685,0.0010000000000000009
832997,3005,16494,132708,-19340,6656,130696,407,19197,1470,1,51686,0.0010000000000000009
833997,7545,-20182,127212,1010,-15453,142175,252,19210,1667,1,51687,0.0010000000000000009
834997,16028,10307,130208,12977,20589,117807,252,19199,1032,0,51688,0.0010000000000000009
835999,9616,6117,130980,-2298,-5204,138073,334,19197,1368,1,51689,0.0010019999999999474
836998,3569,-5391,133761,-18575,-3512,129447,458,19224,1876,1,51690,0.0009989999999999721
837997,12254,-9892,133597,16646,-21874,148035,265,19190,1085,0,51691,0.0009990000000000832
839000,361,-11267,132490,2971,-5326,130548,333,19190,1364,0,51692,0.0010029999999999761
839999,6812,-3447,123754,-6114,-4128,115347,343,19196,1364,1,51693,0.0009989999999999721
840997,14097,6963,124790,18639,1187,134715,331,19221,1405,0,51694,0.0009980000000000544
841997,12212,-4025,118059,-7343,4807,112927,331,19196,1356,0,51695,0.0010000000000000009
842997,12200,25766,125327,-23061,24846,114251,364,19181,1491,1,51696,0.0010000000000000009
843997,4106,-11725,120830,38968,-15564,132969,292,19218,1196,1,51697,0.0010000000000000009
844997,658,-15180,122321,-6450,-16596,121875,367,19218,1503,0,51698,0.0010000000000000009
845999,2717,-18439,118228,-24005,-20089,136823,377,19200,1503,1,51699,0.0010019999999999474
846999,6767,18690,124737,13856,32236,97162,261,19202,1544,1,51700,0.0010000000000000009
848003,20604,47150,125021,2089,38425,108966,261,19203,1069,0,51701,0.0010040000000000049
848997,5216,-557,124295,-15954,-2942,125505,389,19197,1593,0,51702,0.0009940000000000504
849997,8768,-5568,126412,-615,-10621,132219,397,19219,1626,1,51703,0.0010000000000000009
850997,7357,-11938,128544,8845,-12041,139406,254,19219,1040,0,51704,0.0010000000000000009
851997,11392,8895,134207,-7819,11163,117556,329,19194,1040,0,51705,0.0010000000000000009
852998,2119,-7458,129704,1187,-11225,145435,470,19196,1347,1,51706,0.0010009999999999186
853997,5533,2916,129141,-16303,6448,126460,470,19225,1925,1,51707,0.0009990000000000832
854997,18464,10516,131634,6460,4898,128905,272,19199,1114,0,51708,0.0010000000000000009
855997,5242,3237,128204,6992,337,133118,341,19194,1397,1,51709,0.0010000000000000009
856998,9254,-4715,135292,-13537,-6147,131206,363,19220,1487,1,51710,0.0010009999999999186
857997,3729,-20311,130503,7943,-22935,139328,339,19220,1487,0,51711,0.0009990000000000832
858997,6862,-2834,131168,-1265,-2655,125581,347,19194,1388,0,51712,0.0010000000000000009
859997,7968,-6299,125321,-6330,-8797,127229,347,19185,1421,1,51713,0.0010000000000000009
860997,18320,12056,125015,12359,12894,111695,219,19213,897,0,51714,0.0010000000000000009
861997,15290,11407,123176,16147,-8390,133184,375,19197,1536,0,51715,0.0010000000000000009
862997,3337,-12215,119804,-27506,8681,109864,380,19191,1556,1,51716,0.0010000000000000009
863997,8658,10278,128359,-7643,-1785,132529,235,19191,1556,1,51717,0.0010000000000000009
864997,3935,-17840,120820,44754,-17560,125932,359,19216,962,0,51718,0.0010000000000000009
865997,-270,5875,122129,-32869,3031,114194,359,19194,1470,1,51719,0.0009999999999998899
866997,10610,74,119497,23032,5960,124505,429,19216,1757,1,51720,0.0010000000000000009
867998,13979,38161,121764,9070,54819,88314,288,19185,1180,0,51721,0.0010010000000000296
868997,13773,26485,130626,-25599,-16968,139847,335,19195,1372,0,51722,0.0009989999999999721
869997,735,-34846,122187,9894,-22365,133192,347,19195,1372,1,51723,0.0010000000000000009
870997,8345,-803,131644,5160,-7496,136673,286,19223,1421,0,51724,0.0010000000000000009
871999,3037,-1472,132765,-17812,14662,120558,286,19195,1171,0,51725,0.0010020000000000584
872999,7404,21777,136353,-12953,1143,135216,357,19193,1462,1,51726,0.0010000000000000009
873997,11536,-22035,127890,25576,-15376,143993,350,19218,1433,1,51727,0.0009979999999999434
874997,9912,19771,131904,-14548,18956,114454,326,19195,1335,0,51728,0.0010000000000000009
875997,15939,-5832,127364,-3433,-15847,141068,352,19195,1335,1,51729,0.0010000000000000009
876997,810,-1853,132317,10484,8649,128427,227,19178,1442,1,51730,0.0010000000000000009
877997,14360,-17475,131333,-14628,-17658,149905,227,19217,930,0,51731,0.0010000000000000009
878997,3598,-10320,128808,4163,414,121691,391,19202,1601,0,51732,0.0010000000000000009
879997,4797,-2268,123087,15903,-11449,131385,370,19200,1515,1,51733,0.0010000000000000009
880997,15766,-6860,119880,-2876,3134,120574,248,19201,1016,0,51734,0.0010000000000000009
881997,7856,20086,121245,-3866,19179,114670,356,19201,1016,0,51735,0.0010000000000000009
882997,17789,8234,124022,-8563,5889,120074,437,19193,1458,1,51736,0.0010000000000000009
883997,3548,12566,125183,23135,1053,121185,437,19219,1790,1,51737,0.0010000000000000009
884997,48,-30432,123880,3176,-36084,142935,249,19193,1020,0,51738,0.0010000000000000009
885999,33,-4836,122106,-28659,4334,112203,334,19191,1368,1,51739,0.0010020000000000584
886997,8351,16392,126666,9942,18316,117081,362,19216,1483,1,51740,0.0009979999999999434
887997,22915,33608,122821,9999,36323,101824,305,19216,1249,0,51741,0.0010000000000000009
888997,9867,8532,123217,-9250,-3943,125040,352,19183,1249,0,51742,0.0010000000000000009
889997,4758,-18585,123800,-12464,-16756,132238,249,19191,1442,1,51743,0.0010000000000000009
890997,8623,2186,131165,13566,-4935,131878,249,19220,1020,0,51744,0.0010000000000000009
891997,7588,-11517,131102,-3372,-8901,139151,364,19202,1491,0,51745,0.0010000000000000009
892997,2521,7627,131992,-11371,5306,124680,369,19181,1511,1,51746,0.0010000000000000009
893997,2882,-2015,128914,-7729,-2183,140363,229,19181,938,1,51747,0.0010000000000000009
894997,20942,12079,130243,5654,16799,120925,364,19212,938,0,51748,0.0010000000000000009
895997,7200,4554,128584,4972,-4371,135166,387,19197,1491,1,51749,0.0010000000000000009
896997,6406,-8842,133096,-14236,-6677,134318,387,19202,1585,1,51750,0.0010000000000000009
897997,7004,-11719,131957,6763,-14461,141597,251,19202,1028,0,51751,0.0010000000000000009
898997,4947,-15718,131597,1008,-14562,141703,375,19200,1536,0,51752,0.0010000000000000009
899999,7673,4148,126353,-9938,-773,119610,434,19225,1778,1,51753,0.0010020000000000584
900997,17045,5444,124439,13067,6232,120009,273,19225,1778,0,51754,0.0009979999999999434
901997,18566,20812,124820,24557,19551,119084,347,19187,1118,0,51755,0.0010000000000000009
902997,3068,-5843,122770,-35510,-8094,123439,347,19195,1421,1,51756,0.0010000000000000009
903997,12294,7234,128963,-9152,7392,116696,454,19221,1859,1,51757,0.0010000000000000009
904997,-905,-11586,122213,56022,-18014,133520,285,19198,1167,0,51758,0.0010000000000000009
905997,-807,-11192,121193,-47606,-12848,113594,353,19181,1446,1,51759,0.0010000000000000009
906997,9212,1567,122093,-8136,1754,123772,251,19181,1446,1,51760,0.0010000000000000009
907997,14572,28843,119949,32669,27949,94420,384,19215,1028,0,51761,0.0010000000000000009
908997,13794,35226,129200,-26115,35695,127504,384,19194,1573,0,51762,0.0010000000000000009
909997,-3713,-24047,122127,-5038,-24566,140441,355,19199,1454,1,51763,0.0010000000000000009
910997,10579,-3533,130853,3980,-8147,131844,236,19211,967,0,51764,0.0010000000000000009
912000,9782,-6440,133039,-4594,5076,129961,357,19196,1462,0,51765,0.0010029999999999761
912997,6428,11324,130618,7114,5503,128454,403,19196,1462,1,51766,0.0009970000000000256
913997,3466,-8859,128981,-16268,-6294,139453,268,19195,1651,1,51767,0.0010000000000000009
914997,18324,8987,130385,-9765,17045,119779,268,19201,1098,0,51768,0.0010000000000000009
915997,12762,10082,131494,29218,-7027,139963,350,19202,1433,1,51769,0.0010000000000000009
916997,1151,-6182,130975,-22668,-8238,130661,460,19225,1884,1,51770,0.0010000000000000009
917997,9826,-14253,133153,-2844,-24812,145216,259,19191,1061,0,51771,0.0010000000000000009
918997,4418,-19905,128928,16159,-10593,138797,336,19191,1061,0,51772,0.0010000000000000009
919997,10486,11004,128915,-10868,8644,114597,347,19197,1376,1,51773,0.0010000000000000009
920997,17126,2156,121216,5689,7784,117104,347,19225,1421,0,51774,0.0010000000000000009
921998,15041,24455,125906,22839,17896,123007,319,19193,1307,0,51775,0.0010010000000000296
922997,-470,-22422,120656,-36233,-17868,128836,358,19184,1466,1,51776,0.0009989999999999721
923997,10003,2360,126592,5241,12136,114065,326,19219,1335,1,51777,0.0010000000000000009
924997,5602,-4140,124410,56726,-17934,138093,369,19219,1335,0,51778,0.0010000000000000009
925997,-837,-2188,119290,-57983,5868,103289,373,19202,1511,1,51779,0.0010000000000000009
926997,8587,7370,124986,2866,-1231,133559,373,19200,1528,1,51780,0.0010000000000000009
927997,11625,8163,119412,28566,27928,106020,254,19208,1040,0,51781,0.0010000000000000009
928997,14155,47796,127184,-21865,32717,105119,393,19202,1610,0,51782,0.0010000000000000009
929997,-1850,-20361,124968,-8159,-28792,146989,386,19214,1581,1,51783,0.0010000000000000009
930997,11339,-9342,127599,2774,-4141,127715,248,19214,1016,0,51784,0.0010000000000000009
931997,6671,-9218,133587,4786,-6277,140335,326,19198,1016,0,51785,0.0010000000000000009
932998,8834,15894,133254,-11313,16306,114982,436,19194,1335,1,51786,0.0010010000000000296
933999,7618,-3057,130379,5729,-17155,146146,436,19222,1786,1,51787,0.0010009999999999186
934997,11534,-3768,132308,-8986,2117,128588,268,19194,1098,0,51788,0.0009980000000000544
935997,15139,16251,131306,10667,4441,126904,341,19193,1397,1,51789,0.0010000000000000009
936997,-3037,-6652,133042,-721,-6593,137960,357,19193,1462,1,51790,0.0010000000000000009
937997,14440,-8652,132270,-18835,-14761,136735,319,19223,1462,0,51791,0.0010000000000000009
938997,1458,-20878,129001,14067,-16565,145861,347,19191,1307,0,51792,0.0010000000000000009
939997,10157,-5746,123571,-3304,1169,115510,347,19183,1421,1,51793,0.0010000000000000009
940997,22479,19266,124629,10171,13062,120280,221,19215,905,0,51794,0.0010000000000000009
941997,8987,-12256,116984,15087,-13707,131543,382,19191,1565,0,51795,0.0010000000000000009
942997,13649,17898,124395,-41305,19749,108337,377,19191,1544,1,51796,0.0010000000000000009
943997,2894,-1678,124152,24477,-9195,133631,244,19187,1544,1,51797,0.0010000000000000009
944997,-1205,-5771,122858,16958,-6215,121661,373,19211,999,0,51798,0.0010000000000000009
945997,3973,-13395,119711,-37732,-21655,134328,373,19196,1528,1,51799,0.0010000000000000009
946997,251,4306,121714,16466,15138,109542,429,19216,1757,1,51800,0.0010000000000000009
947997,26943,52043,127879,-5948,51300,97857,275,19189,1126,0,51801,0.0010000000000000009
948997,9644,80,123606,2791,-3578,127663,343,19195,1405,0,51802,0.0010000000000000009
950001,2103,-5785,125482,-8297,-7700,125635,363,19195,1405,1,51803,0.0010040000000000049
950998,8596,-15506,130190,-4718,-20118,141013,281,19224,1487,0,51804,0.0009970000000000256
951997,5898,6686,132648,6663,6971,124011,281,19193,1151,0,51805,0.0009989999999999721
952997,7932,-1140,132324,2473,-4556,143698,356,19191,1458,1,51806,0.0010000000000000009
953999,2182,-6086,127033,-19621,-5646,117886,363,19220,1487,1,51807,0.0010019999999999474
954997,20975,19019,132960,-5940,17921,137856,324,19194,1327,0,51808,0.0009980000000000544
955998,6967,-4763,127633,21728,-9528,127178,355,19194,1327,1,51809,0.0010009999999999186
956997,8701,2281,133752,-10851,-7882,140201,222,19178,1454,1,51810,0.0009990000000000832
957997,4089,-22158,130642,-5412,-24114,147580,222,19215,909,0,51811,0.0010000000000000009
958999,5765,-13220,128472,8239,6533,123652,399,19194,1634,0,51812,0.0010019999999999474
959997,10274,4970,127698,-7042,-9878,132715,367,19197,1503,1,51813,0.0009980000000000544
960997,15817,3023,122520,17496,23993,104700,266,19204,1089,0,51814,0.0010000000000000009
961997,14623,25687,125365,168,-529,130226,373,19204,1089,0,51815,0.0010000000000000009
962999,7837,-20749,122072,-29279,-13761,120276,433,19194,1528,1,51816,0.0010019999999999474
963999,6037,11822,129104,25556,6343,121447,433,19210,1773,1,51817,0.0010000000000000009
964997,4988,-17676,124054,19876,-25875,140382,254,19192,1040,0,51818,0.0009980000000000544
965999,-1013,5934,120994,-35884,18705,98029,328,19192,1343,1,51819,0.0010019999999999474
966997,7442,10099,124228,3091,4494,133373,381,19222,1560,1,51820,0.0009980000000000544
967997,17697,14875,120115,15186,39084,92903,303,19222,1560,0,51821,0.0010000000000000009
968997,11040,32907,130027,-11404,-514,131753,351,19185,1241,0,51822,0.0010000000000000009
969997,2722,-35646,121582,811,-31607,139703,351,19191,1438,1,51823,0.0010000000000000009
970997,2856,3345,129062,599,5743,123745,264,19220,1081,0,51824,0.0010000000000000009
972000,7669,-4093,132758,-14251,2478,135375,349,19191,1429,0,51825,0.0010029999999999761
972997,9366,23804,134102,-6089,19131,118744,363,19183,1487,1,51826,0.0009970000000000256
973997,10347,-16266,129246,13381,-20941,153680,217,19183,1487,1,51827,0.0010000000000000009
974997,9338,-444,127299,1247,11250,112302,347,19217,889,0,51828,0.0010000000000000009
975997,9466,10331,130021,-8124,-858,136538,347,19198,1421,1,51829,0.0010000000000000009
976997,5890,-8150,134279,-7493,-3084,136598,382,19197,1565,1,51830,0.0010000000000000009
977997,12954,-1113,135143,9426,-5846,135416,249,19205,1020,0,51831,0.0010000000000000009
978997,1983,-8618,132218,-5234,-17086,140214,379,19201,1552,0,51832,0.0010000000000000009
979997,8707,-15465,122357,369,-13945,119513,419,19201,1716,1,51833,0.0010000000000000009
980997,10640,5927,125345,22380,2192,133616,263,19222,1716,0,51834,0.0010000000000000009
981997,15186,6599,123534,-16415,12310,107824,343,19189,1077,0,51835,0.0010000000000000009
982997,15120,34972,126689,-11180,28687,110817,343,19195,1405,1,51836,0.0010000000000000009
983997,855,-15096,124303,29893,-23519,142815,478,19224,1958,1,51837,0.0010000000000000009
984997,1717,-27326,120998,-12931,-22127,121417,282,19195,1155,0,51838,0.0009999999999998899
985997,-696,-9089,121710,-17254,-7918,132808,351,19195,1438,1,51839,0.0010000000000000009
986997,12369,19506,123593,14296,28557,99226,270,19192,1438,1,51840,0.0010000000000000009
987997,19180,37541,123343,1416,31339,112169,371,19219,1106,0,51841,0.0010000000000000009
988997,9814,-4784,123823,-17813,-7076,127040,371,19193,1520,0,51842,0.0010000000000000009
989997,4365,473,123239,425,-2741,121789,354,19197,1450,1,51843,0.0010000000000000009
990997,4305,-3625,129933,3992,-4782,141802,252,19211,1032,0,51844,0.0010000000000000009
991997,10643,1480,131973,-6471,2860,121021,368,19202,1507,0,51845,0.0010000000000000009
992997,1831,-2139,130857,177,-2419,140799,397,19202,1507,1,51846,0.0010000000000000009
993997,9190,816,130883,-16540,3677,127537,246,19198,1626,1,51847,0.0010000000000000009
994997,17782,7404,129902,12217,5830,127075,246,19203,1008,0,51848,0.0010000000000000009
995998,6302,466,129674,3693,-7058,138238,354,19201,1450,1,51849,0.0010010000000000296
996997,6540,-833,135286,-12236,-856,126026,450,19225,1843,1,51850,0.0009989999999999721
997997,4380,-12280,135072,6079,-14627,149025,261,19193,1069,0,51851,0.0010000000000000009
998997,6371,-9765,131335,696,-10142,134814,330,19193,1069,0,51852,0.0010000000000000009
999998,5522,-8775,123293,-6978,-11454,122294,360,19196,1352,1,51853,0.0010010000000000296
1000997,19465,16468,126240,8369,16780,115472,360,19218,1474,0,51854,0.0009989999999999721
1001997,19507,7368,120432,25697,5118,130802,316,19186,1294,0,51855,0.001000000000000112
1002997,7498,-7588,123381,-26712,-6616,111698,363,19187,1487,1,51856,0.0009999999999998899
1003997,11047,10682,127423,-4396,-5427,132633,347,19218,1421,1,51857,0.001000000000000112
1004997,-4703,-18857,120268,40125,-14820,123966,358,19218,1421,0,51858,0.0009999999999998899
1005997,2677,-2070,123569,-43407,-5007,123175,370,19202,1466,1,51859,0.001000000000000112
1006997,6429,-7114,118228,1911,11897,113088,370,19187,1515,1,51860,0.0009999999999998899
1008000,15816,52140,125908,22174,57338,91676,250,19205,1024,0,51861,0.0010030000000000872
1008997,14167,17982,125273,-14576,-17886,137277,396,19200,1622,0,51862,0.0009969999999999146
1009997,-1370,-25403,121597,734,-14722,131209,382,19213,1565,1,51863,0.001000000000000112
1010997,10921,-2810,132637,-2279,-7070,138013,248,19213,1565,0,51864,0.0009999999999998899
1011998,4331,-2561,131526,-1059,10477,120776,335,19200,1016,0,51865,0.0010010000000000296
1012997,7031,8707,133148,1021,-7068,138100,335,19196,1372,1,51866,0.0009989999999999721
1013997,3643,-15703,127885,-12714,-5879,134636,468,19228,1917,1,51867,0.001000000000000112
1014997,17009,25213,132204,-1341,22709,117021,261,19194,1069,0,51868,0.0009999999999998899
1015997,12724,1668,131101,20345,-14479,143542,339,19190,1388,1,51869,0.001000000000000112
1016997,2827,-7562,130199,-18643,-910,124602,386,19190,1388,1,51870,0.0009999999999998899
1017997,8610,-14745,135178,404,-25869,155304,334,19216,1581,0,51871,0.001000000000000112
1018997,3398,-22787,127229,11482,-4997,129796,349,19196,1368,0,51872,0.0009999999999998899
1019997,11663,15784,128285,-6951,7335,119001,349,19185,1429,1,51873,0.001000000000000112
1020997,16942,-5566,121744,12015,2966,121702,238,19217,975,0,51874,0.0009999999999998899
1021997,12003,26846,124446,15594,20144,117354,387,19194,1585,0,51875,0.001000000000000112
1022997,3953,-19286,123221,-41644,-20496,132234,373,19194,1528,1,51876,0.0009999999999998899
1023997,13625,10506,127283,12964,14026,109018,233,19182,1528,1,51877,0.001000000000000112
1024998,3199,-5813,125677,50025,-23541,146109,354,19216,954,0,51878,0.0010009999999998076
1026000,1484,-10347,121107,-61957,5289,102582,354,19199,1450,1,51879,0.0010020000000001694
1026997,9537,15278,125829,11729,6311,125987,409,19205,1675,1,51880,0.0009969999999999146
1027997,13647,15118,122718,24873,28011,107411,283,19191,1159,0,51881,0.001000000000000112
1028997,15987,40972,128178,-24905,22989,106388,366,19191,1499,0,51882,0.0009999999999998899
1029997,-4479,-31852,124726,-7861,-38219,153151,386,19198,1499,1,51883,0.001000000000000112
1031000,10499,-1757,130298,3411,304,122346,268,19226,1581,0,51884,0.0010029999999998651
1031997,4894,-6273,132301,6835,-7423,140316,268,19195,1098,0,51885,0.0009970000000001367
1032997,8143,14486,134311,-14856,13270,119083,349,19192,1429,1,51886,0.0009999999999998899
1033997,6798,-7654,128939,-3734,-12250,143245,360,19221,1474,1,51887,0.001000000000000112
1034998,13553,785,128714,-3471,8883,125753,308,19221,1261,0,51888,0.0010009999999998076
1035997,14933,15046,129758,12016,13818,124273,347,19193,1261,0,51889,0.0009990000000001942
1036997,-152,-12915,130178,-5500,-15164,142495,229,19186,1421,1,51890,0.0009999999999998899
1037997,13929,-12689,133527,-12877,-11226,137408,229,19217,938,0,51891,0.001000000000000112
1038997,1603,-15559,132605,16017,-15073,143230,372,19201,1524,0,51892,0.0009999999999998899
1039998,9979,-3897,121232,-9296,-4669,121325,357,19201,1462,1,51893,0.0010010000000000296
1040997,15221,15041,127798,11271,9639,117309,243,19210,995,0,51894,0.0009989999999999721
1042000,10732,-1642,118780,19246,-4719,130020,376,19210,995,0,51895,0.0010030000000000872
1043000,12981,23071,126949,-39379,25055,105290,419,19197,1540,1,51896,0.0009999999999998899
1043999,3243,-2363,128351,14263,-7628,130507,419,19201,1716,1,51897,0.0009989999999999721
1044997,2154,-16375,120762,27835,-19176,132683,256,19199,1049,0,51898,0.0009980000000000544
1045997,660,-16293,119656,-40105,-20387,127475,324,19196,1327,1,51899,0.0009999999999998899
1046997,10557,3656,123341,12805,8251,96735,407,19219,1667,1,51900,0.001000000000000112
1047997,22311,44855,123962,12324,44675,113509,298,19219,1667,0,51901,0.0009999999999998899
1048997,11107,2125,123527,-8161,-262,127643,347,19190,1221,0,51902,0.001000000000000112
1049997,650,-5713,121866,-16913,-8706,130690,347,19194,1421,1,51903,0.0009999999999998899
1050997,5359,-9726,131670,6326,-13921,139319,284,19221,1163,0,51904,0.001000000000000112
1052002,6925,6008,132978,1745,5609,121319,334,19199,1368,0,51905,0.0010049999999999226
1053003,3734,2509,132673,1079,-10348,143029,364,19176,1491,1,51906,0.0010010000000000296
1053997,5904,-6057,126790,-15290,13337,121693,220,19176,1491,1,51907,0.0009939999999999394
1054997,19500,15713,131439,-8511,5314,131040,355,19217,901,0,51908,0.001000000000000112
1055997,10111,-1797,128967,8806,-5693,134436,355,19201,1454,0,51909,0.0009999999999998899
1056997,5549,-4660,133659,-16119,-4529,132574,380,19201,1556,1,51910,0.001000000000000112
1057997,3444,-17008,133774,4416,-25066,148365,248,19207,1016,0,51911,0.0009999999999998899
1059000,7893,-12811,130033,3957,-1088,126536,391,19197,1601,0,51912,0.0010030000000000872
1059997,7548,6740,128689,-3705,-9243,129552,415,19197,1601,1,51913,0.0009969999999999146
1060997,12672,2879,122408,7920,14512,108709,265,19216,1700,1,51914,0.001000000000000112
1061997,20707,26900,127208,21408,9552,126585,265,19192,1085,0,51915,0.0009999999999998899
1062997,3559,-19749,122585,-35631,-16845,129270,343,19196,1405,1,51916,0.001000000000000112
1063997,10823,5570,127469,-1379,14136,112667,454,19219,1859,1,51917,0.0009999999999998899
1064997,3218,-5189,127055,52118,-20958,144086,291,19196,1192,0,51918,0.001000000000000112
1065997,-3040,-7743,119254,-45918,2799,105998,351,19196,1438,1,51919,0.0009999999999998899
1066997,10341,1503,123060,-5698,-1037,129070,299,19189,1438,1,51920,0.001000000000000112
1067998,13943,18083,120971,28051,40067,99071,369,19211,1225,0,51921,0.0010010000000000296
1068999,16802,45906,128560,-28785,20939,112583,369,19192,1511,0,51922,0.0010010000000000296
1069997,3585,-26247,122512,7428,-34682,148343,360,19192,1474,1,51923,0.0009979999999998324
1070997,4361,-7104,127278,7909,-1500,127950,231,19213,946,0,51924,0.001000000000000112
1071997,7260,-8552,131029,-17742,-347,133425,369,19213,1511,0,51925,0.0009999999999998899
1072997,7915,27539,137771,-5011,25983,115050,387,19196,1511,1,51926,0.001000000000000112
1073997,11189,-13538,131487,2428,-26026,157327,261,19198,1585,1,51927,0.0009999999999998899
1074997,7907,-9859,126132,-17,1045,116599,261,19203,1069,0,51928,0.001000000000000112
1075997,8683,21770,133411,635,6140,130412,367,19200,1503,0,51929,0.0009999999999998899
1076999,4045,-11203,129984,-8500,-9432,136049,442,19220,1810,1,51930,0.0010020000000001694
1077999,14125,-189,137746,-3698,-2895,135123,264,19220,1081,0,51931,0.0009999999999998899
1078997,7142,-15446,132872,11784,-15574,145319,327,19189,1081,0,51932,0.0009980000000000544
1079997,7683,-10491,121186,-3892,-4987,112538,377,19201,1339,1,51933,0.0009999999999998899
1080997,8234,2463,126968,17934,2074,135406,377,19223,1544,1,51934,0.001000000000000112
1081997,12616,-11460,117556,-8735,-6417,121075,298,19190,1221,0,51935,0.0009999999999998899
1082997,17844,34621,126753,-14672,38462,103330,359,19184,1470,1,51936,0.001000000000000112
1083997,1776,-316,125739,31182,-13962,139054,375,19221,1536,1,51937,0.0009999999999998899
1084997,1521,-25533,117371,-14594,-24655,121231,350,19221,1536,0,51938,0.001000000000000112
1085997,-453,-15980,121069,-21011,-17517,138738,366,19198,1433,0,51939,0.0009999999999998899
1086997,11439,16547,121371,24089,25142,101335,366,19194,1499,1,51940,0.001000000000000112
1087997,19458,46719,126718,3341,44401,102191,248,19211,1016,0,51941,0.0009999999999998899
1088997,7904,-2967,123819,-22685,-6031,130724,409,19197,1675,0,51942,0.001000000000000112
1089997,5868,-2092,122578,-5110,-2224,120059,379,19214,1552,1,51943,0.0009999999999998899
1090997,4907,-6410,131449,15798,-11649,143235,249,19214,1552,1,51944,0.001000000000000112
1091997,9960,-1146,132827,-5945,-3927,120970,344,19195,1020,0,51945,0.0009999999999998899
1092999,572,-4438,133858,-2671,-6397,143735,344,19198,1409,1,51946,0.0010020000000001694
1093999,8850,3638,131294,-16676,4454,120023,462,19226,1892,1,51947,0.0009999999999998899
1094999,17875,14328,128760,10377,10683,134559,263,19190,1077,0,51948,0.001000000000000112
1095997,6387,-5692,128676,3070,-9190,130743,340,19194,1393,0,51949,0.0009979999999998324
1096997,9692,-1811,130737,-16724,-3075,136003,379,19194,1393,1,51950,0.001000000000000112
1097997,5025,-17180,135639,14934,-15659,147443,302,19220,1552,0,51951,0.0009999999999998899
1098997,9229,-9777,129066,1185,-4842,124995,302,19195,1237,0,51952,0.001000000000000112
1099997,5319,-8692,124756,-15967,-11195,128376,342,19183,1401,1,51953,0.0009999999999998899
1100997,16387,11350,125267,15784,24600,113086,259,19216,1061,1,51954,0.001000000000000112
1101997,17887,16451,122950,18998,-8089,128647,396,19202,1622,0,51955,0.0009999999999998899
1102997,6044,-10387,124259,-26636,612,116284,375,19202,1622,1,51956,0.001000000000000112
1103997,9479,16700,130179,35651,2632,124014,230,19178,1536,1,51957,0.0009999999999998899
1104997,-1790,-15135,122582,10623,-21729,131423,230,19211,942,0,51958,0.001000000000000112
1106004,-750,-4096,125270,-46651,-4132,119398,360,19199,1474,0,51959,0.0010069999999999801
1106997,7234,-8946,118700,26653,3392,122645,408,19211,1671,1,51960,0.0009930000000000216
1107997,15807,40242,125252,668,61752,85995,270,19195,1106,0,51961,0.0009999999999998899
1108997,18768,29173,128038,-21615,-5363,133686,372,19195,1106,0,51962,0.001000000000000112
1109998,1561,-33055,120063,9419,-28099,137369,403,19197,1524,1,51963,0.0010010000000000296
1110997,6609,1172,132207,-3916,-248,131630,403,19222,1651,1,51964,0.0009989999999999721
1111997,6405,-5051,132046,-4175,1338,128545,273,19192,1118,0,51965,0.0009999999999998899
1112997,5513,11617,133860,4672,4728,129677,351,19192,1438,1,51966,0.001000000000000112
1113998,5300,-14338,129399,-17428,-12680,144618,375,19220,1536,1,51967,0.0010010000000000296
1115000,17893,16155,130966,-2641,27270,112003,306,19220,1253,0,51968,0.0010019999999999474
1115997,13160,12316,129569,23148,-7973,143118,356,19193,1253,0,51969,0.0009969999999999146
1116997,3625,-17411,129495,-18612,-8129,130315,248,19184,1458,1,51970,0.001000000000000112
1117997,9828,-12918,136082,-4205,-18428,148191,248,19213,1016,0,51971,0.0009999999999998899
1118997,2515,-21014,131846,12849,-15559,138472,378,19201,1548,0,51972,0.001000000000000112
1119997,9276,11879,127064,-13078,6590,111753,357,19187,1462,1,51973,0.0009999999999998899
1120997,13539,-2363,123826,10432,-1157,128418,266,19187,1089,1,51974,0.001000000000000112
1121997,14906,23170,124132,26331,21398,112015,385,19204,1089,0,51975,0.0009999999999998899
1123000,4303,-2468,124279,-41784,-9333,127144,418,19196,1577,1,51976,0.0010030000000000872
1123997,13875,175,128797,4081,2623,116356,418,19205,1712,1,51977,0.0009969999999999146
1124999,3036,-12270,124044,58077,-21687,142087,252,19198,1032,0,51978,0.0010019999999999474
1125997,-4188,-16034,120817,-60245,-7502,114297,334,19194,1368,0,51979,0.0009980000000000544
1126997,7494,14985,124731,-1897,15204,113680,416,19194,1704,1,51980,0.001000000000000112
1127997,16180,17315,123911,35446,22594,116079,286,19225,1704,0,51981,0.0009999999999998899
1128997,17226,32823,125353,-23590,27853,101719,343,19190,1171,0,51982,0.001000000000000112
1129997,-2807,-18381,123851,-12748,-28728,145679,343,19191,1405,1,51983,0.0009999999999998899
1130997,8030,-9203,127110,7826,-5757,130239,305,19219,1249,1,51984,0.001000000000000112
1131997,7749,1333,132122,9867,-352,132296,335,19195,1372,0,51985,0.0009999999999998899
1132997,7082,7222,135641,-10561,10881,127071,363,19182,1487,1,51986,0.001000000000000112
1133997,7818,-4234,129210,-7732,-7262,136409,232,19182,1487,1,51987,0.0009999999999998899
1134997,13758,-2578,129437,-5297,2363,131410,347,19219,950,0,51988,0.001000000000000112
1135997,15781,16351,130385,12531,11034,122398,347,19194,1421,0,51989,0.0009999999999998899
1136997,-3234,-5190,131081,-1270,-13234,138439,373,19190,1528,1,51990,0.001000000000000112
1137997,11682,-11878,139474,-21013,-9536,140775,249,19210,1020,0,51991,0.0009999999999998899
1138999,3591,-12315,131944,21429,-13803,140629,375,19200,1536,0,51992,0.0010019999999999474
1139998,8648,-3621,125762,-4046,-6223,126812,405,19200,1536,1,51993,0.0009989999999999721
1140999,15633,11822,125722,-4483,9145,113496,260,19215,1659,1,51994,0.0010010000000000296
1141997,13414,-4333,120916,29959,-6094,117076,260,19189,1065,0,51995,0.0009980000000000544
1142997,15531,14992,129143,-33511,19802,109014,335,19199,1372,1,51996,0.001000000000000112
1143997,6232,929,126632,5697,-2921,137849,503,19227,2060,1,51997,0.0009999999999998899
1144997,-978,-19133,120602,31248,-21849,121582,272,19196,1114,0,51998,0.001000000000000112
1145997,2826,-16645,118182,-40840,-11089,130237,346,19196,1114,0,51999,0.0009999999999998899
1146999,4675,5822,120654,6965,32934,99931,308,19187,1417,1,52000,0.0010019999999999474
1147999,23757,45273,125048,12614,27766,109481,308,19218,1261,0,52001,0.001000000000000112
1148997,9912,14714,121390,-2984,-7475,125945,351,19191,1438,0,52002,0.0009980000000000544
1149997,1039,-6125,126078,-20173,-9882,130784,356,19189,1458,1,52003,0.0009999999999998899
1150997,7228,-10910,131206,7880,-11900,139822,245,19213,1003,1,52004,0.001000000000000112
1151997,796,2256,133755,-6440,7682,122062,378,19213,1003,0,52005,0.0009999999999998899
1152997,7914,-2422,134744,-2571,-10200,142322,388,19197,1548,1,52006,0.001000000000000112
1153999,4703,-8342,127718,-12128,10400,124296,388,19197,1589,1,52007,0.0010019999999999474
1154997,21713,18493,134544,7164,6314,129957,269,19206,1102,0,52008,0.0009980000000000544
1155997,10045,-2083,128291,10786,-5841,133627,373,19200,1528,0,52009,0.0009999999999998899
1156998,5213,2633,133346,-16357,-4604,132325,430,19223,1761,1,52010,0.0010010000000000296
1157997,5161,-20647,135014,2762,-26121,150804,252,19223,1032,0,52011,0.0009989999999999721
1158999,7680,-15698,129753,3673,-100,129660,324,19192,1032,0,52012,0.0010019999999999474
1159997,9964,3148,129945,-8017,-889,130120,386,19199,1327,1,52013,0.0009980000000000544
1160997,11731,-6112,117721,5929,7203,110239,386,19221,1581,1,52014,0.001000000000000112
1161997,18730,30037,126895,25310,23656,120964,294,19194,1204,0,52015,0.0009999999999998899
1162997,4099,-20489,121513,-26798,-23984,132396,354,19193,1450,1,52016,0.0009999999999998899
1163997,8781,7042,129045,-15327,19307,105526,375,19193,1536,1,52017,0.001000000000000112
1164997,6283,-1915,128738,54014,-26683,148787,335,19223,1536,0,52018,0.0009999999999998899
1165997,-5074,-12878,118843,-33338,84,104131,365,19198,1372,0,52019,0.001000000000000112
1166997,8321,11086,125439,-19417,628,129315,365,19182,1495,1,52020,0.0009999999999998899
1167997,11058,3739,122661,33105,24763,107971,239,19210,979,0,52021,0.001000000000000112
1168997,17954,53190,128706,-21794,38758,100469,399,19197,1634,0,52022,0.0009999999999998899
1169999,4062,-25667,123629,-1748,-36353,152555,373,19197,1528,1,52023,0.0010020000000001694
1170997,601,-10990,124005,-2221,-5005,119805,244,19212,1528,1,52024,0.0009979999999998324
1171998,11764,-6003,134901,2667,-11480,141103,350,19204,999,0,52025,0.0010010000000000296
1172997,3599,21841,137009,-226,26566,111057,350,19193,1433,1,52026,0.0009989999999999721
1173999,12651,-8830,133716,-16502,-21881,153192,444,19224,1818,1,52027,0.0010020000000001694
1174997,7651,-14941,124141,5922,-950,125112,257,19193,1053,0,52028,0.0009979999999998324
1175999,13955,28029,132050,6862,19293,122804,333,19194,1364,0,52029,0.0010020000000001694
1176997,5590,-15049,127572,-2374,-11812,141514,405,19194,1364,1,52030,0.0009979999999998324
1177997,9275,772,137435,-10379,-1287,132058,315,19216,1659,0,52031,0.001000000000000112
1178997,8915,-25938,131956,11492,-24472,151888,315,19192,1290,0,52032,0.0009999999999998899
1179997,4978,-5948,122882,-3285,-6655,116500,348,19186,1425,1,52033,0.001000000000000112
1180999,11127,10845,130034,12573,5841,125257,279,19216,1143,1,52034,0.0010019999999999474
1181997,13879,-5719,116760,701,-9332,129148,379,19201,1552,0,52035,0.0009980000000000544
1182997,17544,33071,129279,-21626,38898,100680,368,19201,1552,1,52036,0.0009999999999998899
1183997,7478,3930,128891,26115,-5233,132520,217,19175,1507,1,52037,0.001000000000000112
1184997,2168,-19759,119807,-51,-19047,125940,217,19217,889,0,52038,0.0009999999999998899
1185997,-1030,-18922,121955,-27935,-25790,137511,353,19197,1446,0,52039,0.001000000000000112
1186997,5718,1126,120379,17411,6852,112593,395,19200,1618,1,52040,0.0009999999999998899
1187997,21318,45173,127231,-227,49066,96947,281,19195,1151,0,52041,0.001000000000000112
1188997,7775,1008,124500,-3221,-4303,124726,382,19195,1151,0,52042,0.0009999999999998899
1189997,8415,-3493,119966,-17361,-4024,125131,415,19201,1565,1,52043,0.001000000000000112
1190997,3824,-7331,130897,6987,-12445,142820,415,19228,1700,1,52044,0.0009999999999998899
1191997,5767,2120,131763,4362,1575,118215,260,19197,1065,0,52045,0.001000000000000112
1192999,2883,-2897,133612,-4694,-15580,148035,355,19193,1454,1,52046,0.0010019999999999474
1193997,5449,-7340,128346,-13920,14112,121055,391,19227,1601,1,52047,0.0009980000000000544
1194997,22985,15316,130360,1850,7989,128687,293,19227,1601,0,52048,0.0009999999999998899
1195997,9797,641,127068,11074,-639,133679,347,19195,1200,0,52049,0.001000000000000112
1196997,9723,-1949,133570,-15583,-10732,133090,347,19184,1421,1,52050,0.0009999999999998899
1198000,3636,-20236,133594,13472,-21431,149272,276,19213,1130,0,52051,0.0010030000000000872
1198999,6070,-6381,133907,-6591,-3267,129026,371,19197,1520,0,52052,0.0009989999999999721
1199997,7660,-3571,128575,-8366,-15048,130961,351,19194,1438,1,52053,0.0009980000000000544
1200997,9518,2753,123007,17290,19712,111427,239,19194,979,1,52054,0.0009999999999998899
1201997,19318,21690,125956,17716,3258,127970,368,19212,979,0,52055,0.001000000000000112
1202999,4366,-11862,124100,-36126,-7111,120499,405,19197,1507,1,52056,0.0010019999999999474
1203997,13280,8318,130797,-1225,8571,116883,405,19197,1659,1,52057,0.0009980000000000544
1204997,7574,-14141,127157,43594,-13405,140911,263,19196,1077,0,52058,0.0009999999999998899
1205997,-5870,-6439,119970,-45355,-3582,112139,346,19199,1417,0,52059,0.001000000000000112
1206997,10268,-5470,122311,776,-4008,127798,444,19199,1818,1,52060,0.0009999999999998899
1207997,12785,17719,120444,28378,40614,98107,289,19223,1818,0,52061,0.001000000000000112
1208997,15270,44578,128965,-33761,21829,113371,346,19186,1184,0,52062,0.0009999999999998899
1209997,5985,-20213,123245,1829,-29809,142538,346,19195,1417,1,52063,0.001000000000000112
1210997,-103,-6147,127266,13494,-6443,132949,319,19223,1307,1,52064,0.0009999999999998899
1211997,6594,-6699,131994,-4931,-3913,130280,314,19195,1286,0,52065,0.001000000000000112
1212997,3200,20725,138056,-15599,22718,117491,359,19195,1470,1,52066,0.0009999999999998899
1213997,12296,-8725,132935,-10454,-24125,155195,263,19186,1470,1,52067,0.001000000000000112
1214997,12665,-4945,128481,19714,13457,115659,358,19225,1077,0,52068,0.0009999999999998899
1215997,12266,15134,129438,-1472,-4254,133600,358,19199,1466,0,52069,0.001000000000000112
1216997,3610,-16551,127641,-8989,-11934,130802,373,19193,1528,1,52070,0.0009999999999998899
1217997,10035,751,136948,-1983,-6389,143597,245,19208,1003,0,52071,0.001000000000000112
1218997,9564,-16420,132737,8762,-11296,140185,381,19193,1560,0,52072,0.0009999999999998899
1219997,3617,8231,127737,-6079,1544,114193,396,19193,1560,1,52073,0.001000000000000112
1220997,11174,-11529,124288,11671,-11412,137308,260,19210,1622,1,52074,0.0009999999999998899
1222000,9447,2255,120218,7515,6698,118044,260,19195,1065,0,52075,0.0010030000000000872
1222997,19026,17006,128833,-29215,22357,112818,334,19193,1368,1,52076,0.0009969999999999146
1223998,11363,16152,129933,24231,8306,117412,487,19220,1995,1,52077,0.0010010000000000296
1224998,3179,-22025,123935,10780,-29530,139434,281,19194,1151,0,52078,0.001000000000000112
1225998,841,-22827,122237,-34954,-23325,127327,346,19194,1151,0,52079,0.0009999999999998899
1226997,4663,9772,124424,17269,14045,114592,339,19189,1417,1,52080,0.0009989999999999721
1227997,21505,36508,125008,6417,39393,106322,339,19217,1388,0,52081,0.001000000000000112
1228997,9106,22597,125753,-6850,16826,114153,350,19185,1433,0,52082,0.0009999999999998899
1229997,5615,-16922,121015,-15979,-16090,137282,361,19187,1479,1,52083,0.001000000000000112
1230997,4262,240,129725,7753,-1653,127773,220,19214,901,1,52084,0.0009999999999998899
1231998,5132,-4667,132078,1620,-8650,133713,369,19214,901,0,52085,0.0010010000000000296
1232998,5455,-2126,134628,-3085,-40,130205,377,19197,1511,1,52086,0.001000000000000112
1233999,1619,-815,133055,-10993,-1360,134512,377,19196,1544,1,52087,0.0010009999999998076
1234997,20032,7221,131458,-6942,8370,127748,261,19207,1069,0,52088,0.0009980000000000544
1235997,9818,6126,128229,11302,457,137220,381,19198,1560,0,52089,0.001000000000000112
1236997,7151,-6007,133159,-7226,-6506,132727,421,19207,1724,1,52090,0.0009999999999998899
1237997,6443,-10738,134770,-2894,-8516,142809,259,19207,1724,0,52091,0.001000000000000112
1238997,7298,-18904,131581,12904,-18685,135546,326,19191,1061,0,52092,0.0009999999999998899
1239997,10334,-5089,127825,-9993,-5593,121933,326,19200,1335,1,52093,0.001000000000000112
1240998,9973,-1291,120586,905,16135,115881,404,19225,1655,1,52094,0.0010010000000000296
1241997,17138,21576,125035,26904,7230,125502,291,19196,1192,0,52095,0.0009989999999999721
1243000,3785,-7056,123631,-15467,-10833,122479,356,19193,1458,1,52096,0.0010029999999998651
1243997,14222,7241,129781,6871,5392,117840,375,19193,1458,1,52097,0.0009970000000001367
1244997,7121,2529,128177,39007,-20845,137342,325,19225,1536,0,52098,0.0009999999999998899
1245997,-3841,-13492,122824,-46426,-9156,117279,325,19198,1331,0,52099,0.001000000000000112
1246997,8797,-2163,125426,6379,-3910,126447,359,19188,1470,1,52100,0.0009999999999998899
1247997,12145,16915,122866,17409,44456,98226,240,19211,983,0,52101,0.001000000000000112
1248997,18541,48943,129483,-21165,25718,110447,414,19199,1696,0,52102,0.0009999999999998899
1249997,1717,-25387,125213,-3104,-33796,147493,367,19199,1503,1,52103,0.001000000000000112
1250997,3824,-13052,126809,-763,-2944,129040,247,19210,1503,1,52104,0.0009999999999998899
1251998,5570,-391,135955,92,-3015,134040,356,19203,1012,0,52105,0.0010010000000000296
1252999,8054,6513,133554,4050,5775,124881,356,19195,1458,1,52106,0.0010010000000000296
1253998,3897,-5803,131107,-14523,-12906,142702,441,19222,1806,1,52107,0.0009989999999999721
1254997,14140,520,128644,-14922,14954,121763,257,19193,1053,0,52108,0.0009989999999999721
1255997,20243,22096,131145,26998,7901,129246,333,19193,1364,0,52109,0.001000000000000112
1256997,1464,-8466,131078,-5755,-11425,136425,424,19199,1364,1,52110,0.0009999999999998899
1257997,6252,-16649,134488,-18350,-15780,138378,286,19220,1737,0,52111,0.001000000000000112
1258997,5750,-20760,132959,19185,-17620,146914,286,19187,1171,0,52112,0.0009999999999998899
1259997,8779,257,129101,-5915,9450,116567,341,19189,1397,1,52113,0.001000000000000112
1260998,8421,4386,122697,-4529,-11863,124892,300,19219,1229,1,52114,0.0010009999999998076
1261997,18421,14287,126798,36392,22717,113253,368,19219,1507,0,52115,0.0009990000000001942
1262997,2195,5397,122515,-13994,-9479,128992,368,19195,1507,1,52116,0.0009999999999998899
1263997,8909,-6490,128173,-41875,689,116297,222,19172,1507,1,52117,0.001000000000000112
1264997,11062,4893,127525,64728,-7559,133684,222,19218,909,0,52118,0.0009999999999998899
1265997,-2219,-18406,118562,-23238,-11049,123495,371,19196,1520,0,52119,0.001000000000000112
1266997,11546,8014,125239,-37829,9688,110026,395,19199,1618,1,52120,0.0009999999999998899
1267998,8019,-2933,121794,42899,5975,129867,262,19203,1073,0,52121,0.0010010000000000296
1268998,22448,43116,126482,-14263,45747,89320,387,19203,1073,0,52122,0.0009999999999998899
1269998,3114,3848,127770,-13481,-13845,137789,430,19199,1585,1,52123,0.001000000000000112
1270997,3693,-23724,123651,-1744,-19554,137864,430,19224,1761,1,52124,0.0009989999999999721
1271997,7057,-2386,134890,11636,-5374,133083,264,19192,1081,0,52125,0.001000000000000112
1272997,2632,5954,136451,-10035,9921,130944,341,19197,1397,1,52126,0.0009999999999998899
1273997,10393,3411,129588,-1508,-1342,130067,409,19221,1675,1,52127,0.001000000000000112
1274999,6957,-11668,129867,-7809,-4329,138180,289,19221,1675,0,52128,0.0010019999999999474
1275997,23783,19649,130300,-8737,16426,122458,348,19196,1184,0,52129,0.0009980000000000544
1276997,-1313,-7508,131476,22694,-12104,136046,348,19187,1425,1,52130,0.0009999999999998899
1277997,5463,-7219,135477,-20859,-9024,136736,317,19220,1298,0,52131,0.001000000000000112
1278997,6583,-23940,130599,5499,-23090,146571,381,19202,1560,0,52132,0.0009999999999998899
1279997,4678,-4397,129630,6175,-4659,129958,355,19190,1454,1,52133,0.001000000000000112
1280997,18284,11645,124306,-7237,12657,108317,236,19190,1454,1,52134,0.0009999999999998899
1281998,14094,11123,121700,26822,7895,127802,368,19211,967,0,52135,0.0010010000000000296
1282997,7482,-5177,126375,-11665,485,118107,368,19197,1507,1,52136,0.0009989999999999721
1283997,9788,5757,128589,-26513,5571,131228,401,19201,1642,1,52137,0.0009999999999998899
1284997,5855,-11952,127322,43660,-12659,126201,256,19205,1049,0,52138,0.001000000000000112
1285997,-2595,-6600,123549,-14308,-11919,125950,369,19194,1511,0,52139,0.0009999999999998899
1286997,4261,-10900,120218,-27424,-10136,113341,438,19194,1511,1,52140,0.001000000000000112
1287997,16361,34211,125428,18702,45360,101155,283,19223,1794,0,52141,0.0009999999999998899
1288997,16651,27513,125575,11017,-2773,123006,283,19188,1159,0,52142,0.001000000000000112
1289997,3565,-6871,122050,-17409,-9781,127000,341,19196,1397,1,52143,0.0009999999999998899
1290997,2037,-8780,129089,-8333,-15506,143906,324,19226,1327,1,52144,0.001000000000000112
1291997,4547,-7874,132911,9028,2512,123335,306,19198,1253,0,52145,0.0009999999999998899
1292997,9752,11178,136202,-1029,2156,133811,359,19198,1253,1,52146,0.001000000000000112
1293997,2432,-11325,129336,-7998,-5702,135117,286,19181,1470,1,52147,0.0009999999999998899
1294997,16601,10543,130326,-11412,14081,121192,286,19219,1171,0,52148,0.001000000000000112
1295999,18543,7985,133992,18429,-7336,141736,360,19205,1474,0,52149,0.0010019999999999474
1296997,2941,-4179,131129,-1665,-4972,126585,363,19195,1487,1,52150,0.0009980000000000544
1297997,3481,-8222,136030,-14119,-19990,148339,240,19211,983,0,52151,0.0009999999999998899
1298997,3413,-26382,130593,5622,-16871,136890,356,19211,1458,0,52152,0.001000000000000112
1299997,11060,5262,129747,3131,10175,120752,391,19202,1458,1,52153,0.0009999999999998899
1300997,10288,-9175,120233,1944,-16,122165,274,19210,1601,1,52154,0.001000000000000112
1301998,18562,25898,125417,20137,29127,108684,274,19192,1122,0,52155,0.0010010000000000296
1302998,2987,-8542,119941,-15674,-20209,136414,337,19194,1380,0,52156,0.0009999999999998899
1303997,9609,-2687,126306,-22840,14034,108684,481,19228,1970,1,52157,0.0009989999999999721
1304997,9401,-1901,126256,52648,-20595,144393,261,19228,1069,0,52158,0.001000000000000112
1305997,-3644,-14924,118076,-27975,-5917,110209,343,19190,1069,0,52159,0.0009999999999998899
1306998,7529,22046,125968,-21518,10361,117938,347,19191,1405,1,52160,0.0010010000000000296
1307997,9893,-3788,122615,31667,13194,119749,347,19214,1421,1,52161,0.0009989999999999721
1308997,19736,48322,129933,-13479,43700,94867,333,19193,1364,0,52162,0.001000000000000112
1309997,1665,-12790,126276,-9992,-30529,148138,347,19194,1421,1,52163,0.0009999999999998899
1310997,4422,-12106,126259,-6839,-4739,124012,240,19214,983,1,52164,0.001000000000000112
1311999,9552,-9417,134899,18322,-14520,144696,393,19214,983,0,52165,0.0010019999999999474
1312997,3839,2750,133256,-7391,16425,118525,382,19198,1610,1,52166,0.0009980000000000544
1313997,9712,8198,133254,-14631,-3226,137306,382,19191,1565,1,52167,0.0009999999999998899
1314997,9758,-10513,128950,-5450,-6416,137807,241,19211,987,0,52168,0.001000000000000112
1315997,22613,13212,129270,13275,9222,119419,353,19199,1446,0,52169,0.0009999999999998899
1316997,-2910,-3693,130757,5042,-6766,140942,415,19202,1700,1,52170,0.001000000000000112
1317997,7541,-8893,133885,-32487,-4064,135408,255,19202,1700,0,52171,0.0009999999999998899
1318997,9734,-17941,132359,24898,-18697,146519,341,19196,1044,0,52172,0.001000000000000112
1319999,4823,-3257,129556,2083,-2779,126688,341,19195,1397,1,52173,0.0010019999999999474
1320998,14155,4750,124914,-14942,8001,108699,427,19224,1749,1,52174,0.0009989999999999721
1321997,8498,2346,124056,32416,-3650,137290,289,19190,1184,0,52175,0.0009989999999999721
1322997,11162,449,126094,-20720,8566,110125,358,19189,1466,0,52176,0.001000000000000112
1323997,13718,19421,131580,-12603,17738,113209,395,19189,1466,1,52177,0.0009999999999998899
1324997,4886,-6785,128392,45878,-11458,137419,312,19222,1618,0,52178,0.001000000000000112
1325997,-1815,-16080,124574,-30680,-20296,120643,312,19196,1278,0,52179,0.0009999999999998899
1326997,5481,-9893,124549,-13720,-6728,128091,357,19184,1462,1,52180,0.001000000000000112
1327997,15482,35122,124520,21433,41482,98339,234,19213,958,1,52181,0.0009999999999998899
1328997,13650,23807,125304,3913,19518,111627,428,19200,1753,0,52182,0.001000000000000112
1329997,2208,-9347,125374,-25675,-11579,130501,367,19200,1753,1,52183,0.0009999999999998899
1330997,5410,-5770,127506,2946,-10318,140848,244,19201,1503,1,52184,0.001000000000000112
1331997,5472,-9933,132897,9901,-9548,123340,244,19208,999,0,52185,0.0009999999999998899
1332997,8266,7759,135429,-7447,8922,138293,364,19196,1491,1,52186,0.001000000000000112
1333997,2259,-9927,133087,-441,-9974,131826,426,19216,1745,1,52187,0.0009999999999998899
1334997,18584,19877,134198,-9624,22097,124414,259,19196,1061,0,52188,0.001000000000000112
1336000,14750,1288,128456,5609,-10206,138079,327,19196,1339,0,52189,0.0010029999999998651
1336998,4630,-4301,131170,3895,922,126693,441,19197,1339,1,52190,0.0009980000000000544
1337997,4027,-8981,135217,-11620,-22217,150259,441,19219,1806,1,52191,0.0009989999999999721
1338997,8864,-23846,131414,9566,-12254,132427,296,19196,1212,0,52192,0.001000000000000112
1339997,7794,8319,132328,-5624,2513,123570,340,19193,1393,1,52193,0.0009999999999998899
1340997,11096,-6885,121316,5988,631,117245,319,19216,1307,1,52194,0.001000000000000112
