t_us,ax,ay,az,ax1,ay1,az1,shunt_raw,bus_raw,curr_raw,pg_rpm,seq,dt
0,13858,12647,132114,8830,4986,127302,636,19154,2605,0,34821,
1001,7955,-6063,129267,8959,-9510,133793,611,19163,2502,1,34822,0.001001
2000,4980,-7222,132384,-18225,-4725,129674,876,19184,3588,1,34823,0.000999
2999,16137,-4261,130126,12688,-7124,138741,611,19143,2502,1,34824,0.0009989999999999999
3999,8952,-1420,128793,3965,533,126373,664,19143,2502,0,34825,0.001
5000,15526,999,121841,459,5978,114956,717,19168,2720,1,34826,0.0010010000000000002
5999,13822,9332,123271,17831,-4040,128009,717,19127,2937,1,34827,0.0009989999999999999
6999,12971,-16491,115770,7067,-12500,125539,482,19166,1974,0,34828,0.001
7998,20668,3273,128738,-21766,8674,113590,794,19174,3252,0,34829,0.0009989999999999999
8998,11172,4869,122889,44337,1630,122023,692,19134,2834,0,34830,0.0009999999999999992
9998,-4220,220,124638,-22733,-3290,118141,772,19134,2834,1,34831,0.0010000000000000009
10998,7953,-7380,121035,-26549,-9079,129624,671,19187,3162,0,34832,0.0009999999999999992
11998,5560,5721,119168,29381,8321,114597,671,19141,2748,0,34833,0.0010000000000000009
12998,15036,25343,122873,-13731,24355,100672,626,19153,2564,1,34834,0.0009999999999999992
14000,9585,-8702,124598,-14236,-14254,129915,869,19193,3559,1,34835,0.0010019999999999994
14998,4492,-11869,120610,19245,-13013,133698,616,19147,2523,1,34836,0.0009980000000000006
16000,-1291,2804,130173,-26103,4747,126613,723,19147,2523,0,34837,0.0010020000000000012
16999,630,20756,129651,-17234,20588,115893,705,19170,2961,1,34838,0.0009989999999999999
17998,1891,3571,128466,4877,-3742,139139,705,19163,2887,1,34839,0.0009989999999999999
18998,6268,-9495,128940,-10749,-6667,133733,518,19172,2122,0,34840,0.0009999999999999974
19999,6289,693,132709,-17240,1786,126485,790,19178,3236,0,34841,0.0010010000000000019
20998,5131,-4927,131401,15202,-5814,138755,689,19139,2822,1,34842,0.0009989999999999999
21998,4599,2176,134266,-20039,1459,133888,660,19139,2703,1,34843,0.0010000000000000009
22998,12533,-2890,131597,-3258,-3796,144262,627,19191,2703,0,34844,0.0009999999999999974
24000,7733,5957,130916,5881,3254,129408,571,19136,2568,0,34845,0.0010020000000000029
24999,10289,-7342,130442,-3749,-6316,131768,571,19158,2339,1,34846,0.0009989999999999999
26000,6953,-4277,132400,-2104,-3737,131889,850,19174,3481,1,34847,0.0010009999999999984
26998,17069,-4782,127072,9080,-6827,136463,615,19141,2519,0,34848,0.0009979999999999989
27998,8390,1173,128599,-2811,780,127206,673,19141,2756,0,34849,0.0010000000000000009
28998,16590,-930,119793,2351,-4200,124479,707,19171,2756,1,34850,0.0010000000000000009
30001,12659,5676,124649,23375,5178,123142,460,19129,2896,1,34851,0.0010030000000000004
30998,14901,-14416,119432,2589,-13508,125551,460,19173,1884,0,34852,0.0009969999999999979
31998,19046,1454,126021,-21888,2484,118048,789,19167,3232,0,34853,0.0010000000000000009
33001,12076,9935,122850,34739,7296,117250,685,19139,2806,0,34854,0.001002999999999997
33998,-3329,2058,123677,5541,3452,122605,764,19139,3129,1,34855,0.0009970000000000048
35001,8096,-3033,119928,-38170,-5455,121819,630,19187,3129,0,34856,0.001002999999999997
35998,9413,5957,124180,14311,5598,117560,566,19153,2580,0,34857,0.0009969999999999979
37013,14362,23070,121720,13979,22860,108187,566,19152,2318,1,34858,0.001015000000000002
37998,3932,-10902,124804,-13442,-4869,123382,853,19189,3494,1,34859,0.0009849999999999998
38998,6164,-10533,120678,-10693,-17476,132015,605,19150,2478,0,34860,0.0010000000000000009
39998,2683,8261,132120,-1712,9205,126237,738,19169,3023,0,34861,0.0010000000000000009
41000,2404,16659,129365,-9077,15131,121646,699,19169,3023,1,34862,0.001001999999999996
41998,-3771,-39,128277,-9467,2034,139913,511,19157,2863,1,34863,0.0009980000000000058
42998,6550,-11337,128347,-13579,-13189,128498,511,19163,2093,0,34864,0.0010000000000000009
43998,9065,9191,135434,-8036,8517,129675,785,19178,3215,0,34865,0.000999999999999994
44998,6923,-2079,129567,10984,-2277,137348,691,19144,2830,1,34866,0.0010000000000000009
45999,851,1310,136093,-12982,-3012,135312,684,19190,2801,1,34867,0.0010010000000000019
46998,14460,-9358,130741,-12697,3844,140543,624,19190,2801,0,34868,0.0009989999999999999
48000,10974,4615,130909,11606,279,128101,550,19135,2556,0,34869,0.0010020000000000029
49000,8355,-5544,130451,8186,-6569,132143,550,19153,2253,1,34870,0.000999999999999994
50000,5289,-9004,129536,-12213,-8427,132560,842,19176,3449,1,34871,0.0010000000000000009
50998,16102,-17,128897,18860,863,132631,597,19149,2445,0,34872,0.0009979999999999989
51998,9742,-97,128993,-421,-2179,129949,741,19181,3035,0,34873,0.0010000000000000009
52998,12184,-2528,120392,-2684,1685,115880,704,19181,3035,1,34874,0.0010000000000000009
53998,14022,14401,122937,25896,4761,126432,441,19121,2883,1,34875,0.0010000000000000009
54998,10441,-17097,117976,5436,-13386,124488,441,19169,1806,0,34876,0.0010000000000000009
55998,17794,-388,124691,-26364,4440,114735,773,19164,3166,0,34877,0.0010000000000000009
56999,10785,3139,125010,48989,3009,124219,686,19139,2810,1,34878,0.001000999999999995
57998,-2729,7426,123339,-19926,4355,113792,798,19187,3268,1,34879,0.0009989999999999999
58998,10731,-6906,120875,-26516,-9016,130668,628,19187,3268,0,34880,0.0010000000000000009
59998,3167,-601,119595,24093,-2352,117453,542,19132,2572,0,34881,0.0010000000000000009
60998,16311,27812,124911,-3382,31074,99378,542,19158,2220,1,34882,0.0010000000000000009
62001,6092,3104,127885,-11070,-4579,128406,833,19184,3412,1,34883,0.0010030000000000039
62998,8351,-23381,120142,10711,-23058,138547,616,19148,2523,0,34884,0.0009969999999999979
63998,-2829,7909,130030,-21117,9138,123854,766,19174,3137,0,34885,0.0010000000000000009
64998,2701,23679,130125,-11737,22039,116437,706,19174,2892,1,34886,0.0010000000000000009
65998,589,2542,128356,3083,-4680,136328,470,19134,2892,1,34887,0.0010000000000000009
66999,5275,-18807,128571,-12420,-16994,137795,762,19164,1925,0,34888,0.0010010000000000019
68000,9312,4348,135334,-13263,6165,125656,762,19162,3121,0,34889,0.001000999999999988
68998,5071,7927,130354,20531,6112,132823,676,19143,2769,1,34890,0.0009980000000000128
69998,3446,-4058,135366,-26813,-5781,138708,712,19187,2916,1,34891,0.000999999999999987
71000,11945,-5208,129416,-3204,-5986,141074,618,19187,2531,0,34892,0.0010020000000000029
71998,8101,5932,132320,8973,3428,133286,535,19134,2531,0,34893,0.0009979999999999989
72998,11638,-5900,131392,3538,-5145,127024,806,19145,2191,1,34894,0.0010000000000000009
73998,3189,-7179,131317,-9277,-6454,132669,806,19157,3301,1,34895,0.0010000000000000009
74998,19044,-10371,125190,3056,-13604,138947,578,19157,2367,0,34896,0.0010000000000000009
75998,6405,4719,128382,4979,5614,121000,754,19174,3088,0,34897,0.0010000000000000009
76998,17542,-397,119847,4851,-3784,128530,694,19174,2842,1,34898,0.0010000000000000009
77998,8072,1576,121679,18659,-318,120548,456,19130,2842,1,34899,0.0010000000000000009
78998,14731,-7935,125096,-6211,-5846,122847,767,19169,1868,0,34900,0.0010000000000000009
79998,23958,1409,126195,-14392,2463,121045,767,19154,3141,0,34901,0.0010000000000000009
80998,6135,6845,124988,47910,5528,117938,676,19142,2769,1,34902,0.0010000000000000009
81998,-2937,-3655,123185,-19627,-3431,124838,919,19209,3764,1,34903,0.0010000000000000009
83000,7410,1348,119866,-29823,-976,116921,616,19139,2523,0,34904,0.001001999999999989
83998,12151,12769,124123,20468,11807,119902,572,19139,2523,0,34905,0.0009979999999999989
84998,13701,9874,120959,7557,11557,110762,823,19163,2343,1,34906,0.0010000000000000009
85998,-1415,-4621,125880,-16216,-2521,120965,823,19165,3371,1,34907,0.0010000000000000009
86998,12526,-10651,124135,-6972,-14146,136330,588,19160,2408,0,34908,0.0010000000000000009
87998,-2170,15449,130369,3312,12774,120367,850,19182,3481,0,34909,0.0010000000000000009
88998,3160,19271,132804,-15158,17854,127975,682,19140,2793,1,34910,0.0010000000000000009
89998,-867,-4706,127704,-14612,-4079,131928,442,19140,2793,1,34911,0.0010000000000000009
91000,6926,-3793,131080,3207,-5720,134850,750,19170,1810,0,34912,0.0010020000000000029
91999,7987,2621,135116,-14578,2881,127565,750,19153,3072,0,34913,0.0009989999999999999
92998,7041,173,131211,-663,2324,135675,674,19145,2761,1,34914,0.0009989999999999999
93998,758,-1668,137599,-2272,-8137,142734,825,19194,3379,1,34915,0.0010000000000000009
94999,12746,-4117,130170,-10827,852,133340,598,19141,2449,0,34916,0.0010010000000000019
95998,6873,3912,133188,1539,-2347,133720,530,19141,2449,0,34917,0.0009989999999999999
97000,10813,-7824,129317,4790,-7642,130878,812,19158,2171,1,34918,0.001001999999999989
97998,5904,-6648,130282,-7395,-2314,129660,812,19158,3326,1,34919,0.0009980000000000128
98998,15996,566,128910,13543,-2100,137164,581,19160,2380,0,34920,0.000999999999999987
99998,6838,-3496,127436,-875,-5528,126688,793,19178,3248,0,34921,0.0010000000000000009
100998,15760,-5406,120631,9353,16390,112597,681,19131,2789,1,34922,0.0010000000000000009
102000,11603,14945,123309,24571,-2489,130267,452,19131,2789,1,34923,0.0010020000000000029
102998,14161,-25066,117551,-6829,-12676,118024,743,19175,1851,0,34924,0.0009979999999999989
103999,17320,11137,128276,-3422,8308,118809,743,19153,3043,0,34925,0.0010010000000000019
104998,8343,-5682,121337,41350,-883,123145,670,19140,2744,1,34926,0.0009989999999999999
105998,-4838,15197,126941,-36186,10851,109210,939,19205,3846,1,34927,0.0010000000000000009
107000,9654,-13309,118172,-3621,-16235,140278,605,19142,2478,0,34928,0.0010020000000000029
107998,3334,15795,118913,12447,18154,100865,584,19142,2478,0,34929,0.0009979999999999989
108998,16667,24947,128230,-949,22586,110958,805,19156,2392,1,34930,0.0010000000000000009
109998,3039,-12923,123666,-6264,-14778,129867,805,19163,3297,1,34931,0.0010000000000000009
110999,9663,-11812,126518,2251,-9794,132737,585,19157,2396,0,34932,0.0010010000000000019
111998,-3037,9675,130819,-17738,13639,124285,880,19177,3604,0,34933,0.0009989999999999999
112998,5849,26925,131266,-3146,22732,114090,678,19134,2777,1,34934,0.0010000000000000009
113998,-3282,-10470,127085,-2680,-22461,145554,434,19134,1778,1,34935,0.000999999999999987
115001,10169,-3903,133020,-15154,550,125180,736,19173,1778,0,34936,0.0010030000000000039
115998,8130,7485,135238,5087,6286,131709,672,19156,3014,0,34937,0.0009969999999999979
116998,4594,1610,135167,6779,1025,133047,672,19145,2752,1,34938,0.0010000000000000009
117998,2608,-5722,133421,-26340,-9044,140955,853,19196,3494,1,34939,0.0010000000000000009
119000,11310,-2949,131712,7254,-3104,140086,603,19139,2470,0,34940,0.0010020000000000029
119998,9245,9574,131090,4780,5757,127658,537,19139,2199,0,34941,0.0009979999999999989
120998,11343,-15978,129648,4540,-16301,130739,799,19155,2199,1,34942,0.0010000000000000009
121999,6561,51,133483,-5969,152,130615,580,19162,3272,1,34943,0.0010010000000000019
122998,17161,-11239,125720,10194,-12748,141529,580,19157,2376,0,34944,0.0009989999999999999
123998,3980,4357,127411,-3836,4594,119505,797,19193,3264,0,34945,0.0010000000000000009
124999,19851,1767,123368,10029,1149,123202,683,19129,2797,1,34946,0.0010010000000000019
125999,8401,1924,121321,20020,-1237,126070,530,19129,2171,1,34947,0.0010000000000000009
127000,20747,-7938,127143,-8695,-4692,120058,728,19177,2171,0,34948,0.0010010000000000019
127998,14724,-3563,123890,-5562,-3314,118928,666,19158,2982,0,34949,0.0009979999999999989
128998,4039,9076,122481,42790,6874,117867,666,19145,2728,1,34950,0.0010000000000000009
129998,-6245,-9833,121586,-30159,-10755,126525,938,19206,3842,1,34951,0.0010000000000000009
131000,9135,4972,118391,-21959,1621,119740,603,19142,2470,0,34952,0.0010020000000000029
131998,11503,12450,123093,22120,10705,118101,599,19164,2453,0,34953,0.0009979999999999989
132998,11892,16008,124937,6298,16776,104863,796,19164,2453,1,34954,0.0010000000000000009
133998,1325,-12784,125599,-20210,-10620,130651,580,19168,3260,1,34955,0.0010000000000000009
134998,11737,-9379,125153,125,-12999,135084,580,19153,2376,0,34956,0.0010000000000000009
135998,-2540,22452,132373,-2764,19817,122235,870,19185,3563,0,34957,0.0009999999999999731
136998,1376,11156,130575,-16430,11457,127811,680,19130,2785,1,34958,0.0010000000000000009
137998,-1979,-3527,129512,-17006,-4278,135155,474,19183,1941,1,34959,0.0010000000000000009
139000,9554,-5167,132652,6088,-6962,131897,715,19183,1941,0,34960,0.0010020000000000029
139998,8388,8973,132688,-13333,7625,125518,662,19149,2928,0,34961,0.0009979999999999989
140998,7714,-3288,133273,3050,-9014,138631,662,19146,2711,1,34962,0.0010000000000000009
142014,1213,-181,134999,-11033,-1280,137499,868,19197,3555,1,34963,0.0010160000000000169
142998,14502,339,134538,-10575,-1170,135623,596,19144,2441,0,34964,0.0009839999999999849
143998,3354,588,131654,4665,-3472,131462,596,19161,2441,0,34965,0.0010000000000000009
144998,11071,-6384,131088,-5238,-10722,133337,785,19161,2441,1,34966,0.0010000000000000009
145998,5800,-8459,129377,-2804,-30,129475,551,19139,3215,1,34967,0.0010000000000000009
146998,19724,4155,129465,19246,5736,130889,551,19159,2257,0,34968,0.0010000000000000009
147998,4331,-6681,126416,-4904,-11759,130395,839,19185,3436,0,34969,0.0010000000000000009
148998,14144,-4059,123738,9746,10470,109580,672,19135,2752,1,34970,0.0010000000000000009
149998,10416,9942,121374,23953,-6504,136031,592,19180,2425,1,34971,0.0010000000000000009
151000,15008,-22023,122170,-10355,-6704,113935,727,19180,2425,0,34972,0.0010020000000000029
151998,15861,14746,128173,3128,9602,116427,660,19162,2978,0,34973,0.0009979999999999989
152998,9187,-6511,121212,33051,-2757,127221,660,19145,2703,1,34974,0.0010000000000000009
153998,-6386,15752,126219,-31286,10763,107026,932,19191,3817,1,34975,0.0010000000000000009
154998,9902,-25956,116688,2449,-19150,144234,596,19142,2441,0,34976,0.0010000000000000009
155998,3915,21880,121637,7559,26483,94289,667,19164,2732,0,34977,0.0010000000000000009
156998,15609,21948,126469,5780,15381,118137,776,19164,3178,1,34978,0.0010000000000000009
158000,2067,-14335,122703,-10518,-13268,130255,562,19151,3178,1,34979,0.0010020000000000029
158999,10621,-10680,127008,1930,-8986,130093,838,19166,2302,0,34980,0.0009989999999999999
159998,-2998,8002,130428,-11661,14214,124139,838,19186,3432,0,34981,0.0009989999999999999
160998,7506,31227,133830,-3140,27398,111569,670,19133,2744,1,34982,0.0010000000000000009
161998,-4324,-14346,126568,-4800,-23338,150655,496,19171,2031,1,34983,0.0010000000000000009
163020,11366,-206,132666,-14101,4327,122465,700,19171,2867,0,34984,0.0010219999999999951
163998,8709,5574,136546,8673,5298,132819,646,19157,2867,0,34985,0.0009780000000000066
164998,5484,3697,134628,2850,3721,131919,883,19159,2646,1,34986,0.0010000000000000009
166000,3712,-8455,135137,-21041,-9667,140870,883,19205,3617,1,34987,0.0010019999999999751
166998,12357,-601,133739,8050,154,138496,591,19147,2421,0,34988,0.0009979999999999989
167998,8766,9913,130814,7445,1772,126764,615,19162,2519,0,34989,0.0010000000000000009
168998,6341,-15121,133245,769,-14748,133758,757,19162,3100,1,34990,0.0010000000000000009
169998,6472,2884,132756,-9728,3655,129462,529,19144,3100,1,34991,0.0010000000000000009
171000,17288,-13476,129775,14713,-14379,140786,820,19170,2167,0,34992,0.0010020000000000029
171998,4908,6347,126397,-834,6279,117949,820,19185,3358,0,34993,0.0009979999999999989
172998,21728,1729,125192,8415,1970,121419,658,19141,2695,1,34994,0.0010000000000000009
173998,7650,1230,119355,25469,-3506,127344,606,19173,2482,1,34995,0.0010000000000000009
175000,19485,-12648,125377,-11634,-10685,120665,711,19151,2912,0,34996,0.0010020000000000029
175998,16816,2126,124354,-4990,2473,117951,645,19151,2912,0,34997,0.0009979999999999989
176998,4472,5394,123950,47900,6288,120995,895,19146,2642,1,34998,0.0010000000000000009
177998,-5079,-12463,118445,-34216,-15879,127145,895,19197,3666,1,34999,0.0010000000000000009
179000,7000,3280,121070,-16224,1642,118904,603,19153,2470,0,35000,0.0010020000000000029
179998,11277,20029,121657,18907,13571,114469,642,19154,2629,0,35001,0.0009979999999999989
180998,12850,21042,129375,3531,25414,102752,779,19149,3191,1,35002,0.0010000000000000009
181998,34,-25764,122055,-9221,-26275,138463,553,19149,3191,1,35003,0.0010000000000000009
182998,10283,-5009,126652,-2512,-10371,117506,799,19164,2265,0,35004,0.0010000000000000009
183998,-2940,21935,131090,-7682,19569,120201,799,19179,3272,0,35005,0.0010000000000000009
184998,4511,15188,132337,-7379,15778,129797,663,19140,2715,1,35006,0.0010000000000000009
186001,918,-9536,129110,-20548,-10393,138041,526,19174,2154,1,35007,0.0010030000000000039
186998,6874,-3601,133722,3384,4727,131091,702,19149,2875,0,35008,0.0009969999999999979
187998,7186,10301,134643,-6671,2815,127507,644,19149,2875,0,35009,0.0010000000000000009
189000,2698,-3392,133675,1191,-5798,138312,877,19145,2638,1,35010,0.0010020000000000029
189998,4912,3220,137900,-15725,1304,137973,877,19203,3592,1,35011,0.0009979999999999989
191000,18991,-4819,132963,-3426,-7553,136129,593,19154,2429,0,35012,0.0010020000000000029
192000,9337,4353,131539,14186,3381,125614,641,19164,2625,0,35013,0.0010000000000000009
192998,6696,-1173,131865,-14495,-10762,135383,769,19138,3150,1,35014,0.0009979999999999989
193998,3857,-15431,130585,-3206,-9264,136622,521,19138,3150,1,35015,0.0010000000000000009
194998,15339,569,132181,23585,3069,127937,808,19163,2134,0,35016,0.0010000000000000009
195999,5563,1824,128778,-6915,-4639,126322,808,19183,3309,0,35017,0.0010009999999999741
196998,17839,-4948,123157,3009,7425,108582,659,19139,2699,1,35018,0.0009989999999999999
198000,16712,11506,123282,40010,-2350,133908,606,19178,2482,1,35019,0.0010020000000000029
198998,17188,-17380,119255,-15003,-9396,115182,692,19148,2834,0,35020,0.0009979999999999989
199998,16740,12512,128944,-5876,13025,113806,645,19148,2834,0,35021,0.0010000000000000009
200998,4047,-8420,124761,41937,-8222,133267,883,19141,2642,1,35022,0.0010000000000000009
201998,-9313,2865,121420,-34460,2636,109304,883,19189,3617,1,35023,0.0010000000000000009
203000,6578,-12722,123232,-4929,-13207,136672,577,19149,2363,0,35024,0.0010020000000000029
203999,7212,18412,118073,13174,23213,98430,674,19169,2761,0,35025,0.0009989999999999999
204998,15711,25074,126435,5688,20513,112654,763,19146,3125,1,35026,0.0009989999999999999
205998,3507,-7778,125860,-13622,-7159,129309,545,19146,2232,1,35027,0.0010000000000000009
206998,10561,-16222,126628,1457,-16938,134587,813,19166,2232,0,35028,0.0010000000000000009
207998,-8269,6294,132746,-10667,14003,125826,657,19171,3330,0,35029,0.0010000000000000009
208998,10718,22819,134721,-6667,21640,118557,657,19142,2691,1,35030,0.0010000000000000009
210007,-2582,-8816,125476,2680,-15983,142470,552,19174,2261,1,35031,0.0010090000000000099
210998,11445,1843,133279,-18561,3068,126678,687,19150,2814,0,35032,0.0009909999999999919
212000,11830,1595,133366,4795,3697,131153,637,19150,2609,0,35033,0.0010020000000000029
213000,4276,7962,136120,6912,7540,131349,871,19154,2609,1,35034,0.0010000000000000009
213998,3414,-12250,135466,-18893,-13393,143781,571,19194,3567,1,35035,0.0009979999999999989
215000,11635,-1098,133662,4631,-547,137323,571,19155,2339,0,35036,0.0010020000000000029
215998,11607,7586,130962,12184,367,131771,650,19163,2662,0,35037,0.0009979999999999989
216999,6173,-5011,129998,2589,-5578,126887,748,19129,3064,1,35038,0.0010010000000000019
217998,10273,-1363,135197,-12253,2048,131481,498,19165,2040,1,35039,0.0009989999999999999
219000,16093,-14456,128733,16470,-14635,141108,795,19165,2040,0,35040,0.0010020000000000029
220000,6692,9235,129889,2079,11238,113545,655,19184,3256,0,35041,0.0010000000000000009
220998,22115,2061,125512,11452,1132,125328,655,19142,2683,1,35042,0.0009979999999999989
221998,4687,-5283,118578,27139,-10845,124708,621,19178,2543,1,35043,0.0010000000000000009
223000,23364,-7986,123786,-26111,-8037,120905,681,19132,2789,0,35044,0.0010020000000000029
224000,13356,5025,126298,18214,7230,116370,609,19152,2494,0,35045,0.0009999999999999731
224998,914,6547,124722,34587,6037,119481,870,19152,2494,1,35046,0.0009980000000000266
225998,-618,-8533,120974,-50480,-9433,124757,567,19178,3563,1,35047,0.0009999999999999731
226998,4408,6463,122612,12056,4360,117864,567,19156,2322,0,35048,0.0010000000000000009
227998,15872,15380,122607,13472,9624,118464,661,19163,2707,0,35049,0.0010000000000000009
229002,9808,8069,126933,-9106,10553,103286,752,19144,3080,1,35050,0.0010040000000000049
230000,3723,-19554,125721,4950,-17187,139879,544,19160,2228,1,35051,0.0009979999999999989
230999,9073,-2636,125461,-4178,-3992,112719,798,19160,2228,0,35052,0.0009989999999999999
231998,-2590,24536,130937,-14504,20954,124267,656,19169,3268,0,35053,0.0009989999999999999
232998,3003,6212,132174,-2328,9717,131140,656,19146,2687,1,35054,0.0010000000000000009
233999,2955,-5098,127769,-17503,-10825,137879,573,19184,2347,1,35055,0.0010010000000000019
235000,5921,-7495,135779,246,-7378,136074,684,19144,2801,0,35056,0.0010010000000000019
235998,3299,3788,130983,7503,4177,126224,629,19162,2576,0,35057,0.0009979999999999989
237000,6912,4873,135387,-9374,5728,135477,843,19162,2576,1,35058,0.0010020000000000029
238000,10701,5144,134112,-16342,3459,134633,561,19189,3453,1,35059,0.0010000000000000009
239000,18470,-278,134441,9783,-7788,137298,561,19157,2298,0,35060,0.0010000000000000009
239998,7967,137,131117,1044,-3106,129182,657,19161,2691,0,35061,0.0009979999999999989
240998,2872,-16681,132183,-8713,-21399,139452,751,19111,3076,1,35062,0.0010000000000000009
242000,5795,-7908,132155,4867,-2539,132960,486,19167,1991,1,35063,0.0010020000000000029
243000,14446,11228,133623,8607,10332,127221,776,19167,1991,0,35064,0.0010000000000000009
243998,9966,6923,129151,-9091,2778,122285,654,19166,3178,0,35065,0.0009979999999999989
244998,17797,-7863,124058,16268,-5578,113572,654,19155,2679,1,35066,0.0010000000000000009
246000,17878,3627,120958,36338,-5635,135441,626,19175,2564,1,35067,0.0010020000000000029
246998,11448,-19403,120192,-26736,-14182,117213,679,19129,2781,0,35068,0.0009979999999999989
247998,16001,15651,129758,-4594,20697,111695,595,19156,2437,0,35069,0.0010000000000000009
248999,7252,-2844,125201,47078,-6585,130019,852,19156,3490,1,35070,0.0010010000000000019
249998,-5206,3428,124145,-32473,-180,109887,573,19169,3490,1,35071,0.0009989999999999999
250999,5396,-14739,119592,-9626,-18790,137036,660,19154,2347,0,35072,0.0010009999999999741
251998,10966,12605,119613,13975,22504,100160,660,19166,2703,0,35073,0.0009990000000000276
252998,15700,34914,124753,6196,26083,109820,749,19141,3068,1,35074,0.0010000000000000009
254001,3404,-14717,126567,-14615,-15546,136626,526,19164,2154,1,35075,0.0010029999999999761
254999,8053,-14829,126775,-5538,-13714,131882,786,19164,3219,0,35076,0.0009979999999999989
255998,-5707,6955,132283,-6849,13332,124363,650,19157,3219,0,35077,0.0009990000000000276
256998,10401,25500,133918,-5277,20448,115673,584,19150,2662,1,35078,0.0010000000000000009
257998,1098,-8664,126292,-1604,-15249,143065,584,19178,2392,1,35079,0.0010000000000000009
259001,8116,-4525,131082,-25909,-2436,132144,668,19142,2736,0,35080,0.0010029999999999761
259998,10727,5602,135935,10245,7638,126371,614,19156,2515,0,35081,0.0009970000000000256
261001,1817,3217,134788,7444,1412,138274,846,19156,3465,1,35082,0.0010029999999999761
261998,7831,-7400,135325,-24107,-6966,139486,567,19181,3465,1,35083,0.0009970000000000256
263001,10245,-1043,133314,3482,-711,140979,662,19162,2322,0,35084,0.0010029999999999761
263998,15692,8942,128858,14666,3017,129424,662,19167,2711,0,35085,0.0009970000000000256
265005,4806,-8415,129770,4788,-10249,127385,729,19116,2986,1,35086,0.0010069999999999801
265998,11210,-2715,134915,-16204,1238,134872,457,19167,1872,1,35087,0.0009930000000000216
266998,14757,-14013,129338,14907,-13882,138183,767,19151,3141,0,35088,0.0010000000000000009
267998,5657,9079,129719,8811,10712,116587,649,19151,3141,0,35089,0.0010000000000000009
268998,24837,5882,125572,4567,5024,122099,677,19131,2658,1,35090,0.0010000000000000009
270003,6530,-1070,117317,31457,-8189,124076,677,19185,2773,1,35091,0.0010049999999999781
271000,25834,-9235,123529,-22493,-7779,122961,656,19131,2687,0,35092,0.0009969999999999701
271998,13878,4165,125153,17955,5590,115206,573,19150,2347,0,35093,0.0009979999999999989
272998,-2703,7643,126281,29794,7551,123376,848,19173,3473,1,35094,0.0010000000000000009
273998,4672,-11747,120709,-46958,-11580,122136,570,19173,3473,1,35095,0.0010000000000000009
274998,1325,9047,122792,16832,6270,118912,664,19158,2335,0,35096,0.0010000000000000009
275998,17012,10588,120424,11721,6965,117554,664,19171,2720,0,35097,0.0010000000000000009
276999,9975,18433,126043,-15472,20139,97967,734,19134,3006,1,35098,0.0010010000000000296
278000,5468,-22570,126813,14341,-18039,148028,493,19168,2019,1,35099,0.0010009999999999741
278998,8306,-6900,124808,-7527,-11082,111676,772,19176,3162,0,35100,0.0009979999999999989
279998,-5448,25821,133564,-12685,25423,125440,653,19176,3162,0,35101,0.0010000000000000009
280998,4472,10853,130160,-5848,11153,128041,616,19154,2674,1,35102,0.0010000000000000009
281998,4705,-3001,129121,-14075,-6817,141270,616,19181,2523,1,35103,0.0010000000000000009
283001,7500,-17587,133265,-2727,-390,136168,657,19127,2691,0,35104,0.0010030000000000316
284003,1038,6912,132558,9967,3211,124423,556,19154,2277,0,35105,0.0010020000000000029
285000,6018,806,134169,-13506,4328,139212,825,19179,3379,1,35106,0.0009969999999999701
286001,14014,732,133717,-12528,2608,134138,563,19179,3379,1,35107,0.0010010000000000296
286998,16034,3998,132627,15823,-1343,137317,677,19157,2306,0,35108,0.0009969999999999701
288000,10572,-1061,129684,-4218,-7219,130051,677,19165,2773,0,35109,0.0010020000000000029
288998,-1170,-14062,130684,1077,-14407,135654,724,19117,2965,1,35110,0.0009979999999999989
290000,11048,-7819,131196,440,-268,135828,475,19170,1945,1,35111,0.0010020000000000029
290998,15551,3922,131505,5025,7584,125149,745,19159,3051,0,35112,0.0009979999999999989
291998,10775,10295,127816,-3862,3822,122061,644,19159,3051,0,35113,0.0010000000000000009
292998,21477,-3567,124039,18665,439,112829,695,19140,2638,1,35114,0.0010000000000000009
293998,14474,5994,120984,27501,-5823,133859,695,19192,2847,1,35115,0.0010000000000000009
294998,15167,-23997,123556,-32806,-18769,123176,656,19124,2687,0,35116,0.0010000000000000009
296000,15828,16385,127864,11538,17036,107899,544,19152,2228,0,35117,0.0010020000000000029
296999,3962,5347,126866,34181,-1567,133068,818,19162,3350,1,35118,0.0009990000000000276
297998,-6093,-1961,121092,-38919,-1874,110571,556,19162,2277,1,35119,0.0009989999999999721
298998,6650,-10419,123099,-5143,-16331,133840,679,19164,2277,0,35120,0.0010000000000000009
299998,18032,16083,117631,19071,25039,103015,737,19168,2781,0,35121,0.0010000000000000009
301000,10449,32254,127477,2438,22623,108013,737,19111,3019,1,35122,0.0010020000000000029
301998,4272,-22460,125007,-21919,-23215,143587,451,19165,1847,1,35123,0.0009979999999999989
302998,6782,-15656,128126,-61,-14065,126341,746,19155,3055,0,35124,0.0010000000000000009
303998,-3776,13358,134612,-3824,15328,125913,634,19155,2597,0,35125,0.0010000000000000009
305000,7053,20716,131989,-6699,13384,118711,625,19149,2597,1,35126,0.0010020000000000029
306000,385,-10442,125650,-10223,-14806,142359,657,19184,2560,1,35127,0.0010000000000000009
306999,11985,-2376,131564,-21861,1568,131016,657,19114,2691,0,35128,0.0009989999999999721
308000,7390,9865,134231,16820,9745,125601,547,19155,2240,0,35129,0.0010010000000000296
309006,4172,-1744,136387,-1006,-4479,143236,815,19163,3338,1,35130,0.0010060000000000069
309998,8326,-13449,131695,-23504,-11002,136421,545,19179,2232,1,35131,0.0009919999999999929
311000,12131,1494,132348,8810,-165,139971,676,19179,2232,0,35132,0.0010020000000000029
311998,14822,6229,127444,14681,3158,128084,718,19171,2769,0,35133,0.0009979999999999989
313009,3384,-5330,128948,-7455,-6307,128060,718,19106,2941,1,35134,0.0010109999999999841
313999,12159,-8945,134702,-12702,-6211,136879,515,19174,2109,1,35135,0.0009899999999999909
315000,15820,-9062,127807,21761,-8758,135150,738,19157,3023,0,35136,0.0010010000000000296
315998,9152,5532,129210,4508,6144,119603,633,19147,2593,0,35137,0.0009979999999999989
316998,19183,11748,122189,2708,9257,121533,701,19147,2593,1,35138,0.0010000000000000009
317998,6756,-6025,117419,21855,-10772,125745,647,19196,2871,1,35139,0.0010000000000000009
319000,25963,-9120,122166,-21809,-7383,121842,647,19118,2650,0,35140,0.0010020000000000029
319998,11170,7250,128919,28388,9822,115556,596,19150,2441,0,35141,0.0009979999999999989
321001,-3335,1874,125829,12992,1352,122359,813,19157,3330,1,35142,0.0010029999999999761
321998,5870,-6004,123644,-43996,-4822,121521,546,19168,2236,1,35143,0.0009970000000000256
322998,5532,9328,122035,27800,7065,120880,754,19168,2236,0,35144,0.0010000000000000009
323998,17010,15888,120355,6555,11913,112297,717,19173,3088,0,35145,0.0010000000000000009
324998,11252,4481,125527,-21956,7511,107720,717,19122,2937,1,35146,0.0010000000000000009
325998,5461,-18433,125803,16491,-17735,139166,462,19164,1892,1,35147,0.0010000000000000009
326998,3194,6442,126889,-675,2080,113867,740,19157,3031,0,35148,0.0010000000000000009
327998,-7292,22305,133166,-28012,23143,126527,633,19155,2593,0,35149,0.0010000000000000009
329000,7530,3909,128502,-9829,3587,130970,661,19155,2593,1,35150,0.0010019999999999474
329998,3202,-9072,127049,15460,-7711,137879,652,19179,2707,1,35151,0.0009979999999999989
331000,11650,-5284,134554,-17843,-1056,129336,652,19131,2670,0,35152,0.0010020000000000029
332000,4749,3039,131673,-4628,3487,130892,554,19155,2269,0,35153,0.0010000000000000009
333000,3910,-101,138657,11141,314,144993,804,19166,3293,1,35154,0.0010000000000000009
334000,11553,-3242,132872,-22765,-1150,132432,569,19166,2330,1,35155,0.0010000000000000009
335000,5410,2394,131106,12719,-3846,137424,692,19166,2330,0,35156,0.0010000000000000009
335998,13786,-1086,128502,1167,-1845,129233,713,19170,2834,0,35157,0.0009979999999999989
336998,6975,-10325,128480,-8568,-3578,132591,713,19126,2920,1,35158,0.0010000000000000009
337998,14669,-7223,134010,14669,-5366,137413,570,19173,2335,1,35159,0.0010000000000000009
338998,12644,1285,128457,-2271,2223,123819,728,19158,2982,0,35160,0.0010000000000000009
340000,11894,-4512,123270,-213,-4972,126387,632,19152,2588,0,35161,0.0010020000000000029
340998,14757,8940,125189,22204,3657,122877,842,19152,3449,1,35162,0.0009979999999999989
342001,13807,-15066,114358,824,-17420,126770,622,19196,3449,1,35163,0.0010030000000000316
342998,20658,8043,125528,-15775,16164,113601,612,19141,2548,0,35164,0.0009969999999999701
343998,12968,1829,124195,35886,-5084,124540,612,19157,2507,0,35165,0.0010000000000000009
344998,1574,2848,122963,-8818,6523,116053,793,19147,3248,1,35166,0.0010000000000000009
345998,2801,-2911,123188,-27335,-8677,128369,534,19165,2187,1,35167,0.0010000000000000009
346998,11290,1824,121371,14981,7992,112812,783,19165,3207,0,35168,0.0010000000000000009
347998,15577,28227,122967,8268,22740,110007,710,19178,3207,0,35169,0.0010000000000000009
348998,6641,-11750,123379,-14048,-15990,127307,488,19118,2908,1,35170,0.0010000000000000009
349998,7247,-4645,124630,-6510,-6389,125851,488,19172,1999,1,35171,0.0010000000000000009
350998,4048,285,130332,-682,1743,132023,724,19139,2965,0,35172,0.0010000000000000009
351998,-638,22825,129990,-15697,22798,112298,620,19165,2539,0,35173,0.0010000000000000009
352998,-43,2306,131114,-7809,-7920,139725,665,19165,2724,1,35174,0.0010000000000000009
353998,6131,-8005,127432,-12373,-4223,131795,634,19187,2724,1,35175,0.0010000000000000009
354998,11980,6391,134390,-5212,4383,128700,575,19130,2597,0,35176,0.0010000000000000009
355998,4661,-2484,131786,7334,-2189,136428,575,19165,2355,0,35177,0.0010000000000000009
356998,4903,-341,137825,-15851,-3370,132763,793,19155,3248,1,35178,0.0010000000000000009
357998,8458,-7792,133266,-9389,-8912,146646,549,19162,2249,1,35179,0.0010000000000000009
358998,12760,6504,132189,7643,3661,128459,710,19181,2908,0,35180,0.0010000000000000009
360001,8925,-6623,127215,5280,-8126,135592,702,19181,2908,0,35181,0.0010029999999999761
361000,9238,-7484,131407,-11430,-6978,129370,587,19125,2875,1,35182,0.0009990000000000276
361999,13342,-3681,129506,7555,-4668,134412,587,19169,2404,1,35183,0.0009989999999999721
362998,12021,-228,129644,6485,108,134120,722,19161,2957,0,35184,0.0009990000000000276
363998,11914,-4896,122345,-5437,-6109,121678,630,19156,2580,0,35185,0.0010000000000000009
364998,17621,10424,123328,18497,7964,119812,858,19198,3514,1,35186,0.0010000000000000009
365998,13530,-8566,114089,20616,-12787,129587,620,19198,3514,1,35187,0.0010000000000000009
367000,18187,-8241,120989,-27940,-6898,119858,637,19137,2539,0,35188,0.0010020000000000029
367998,12798,9755,124578,23051,8767,114154,637,19161,2609,0,35189,0.0009979999999999989
368998,1481,-1632,121946,22623,-1941,126640,787,19141,3223,1,35190,0.0010000000000000009
370001,2575,-1973,123550,-46979,-3500,118384,540,19161,2212,1,35191,0.0010029999999999761
370998,7682,4932,120036,16848,968,129401,810,19172,3318,0,35192,0.0009970000000000256
371998,10006,24886,121603,18355,23014,102823,698,19172,3318,1,35193,0.0010000000000000009
372998,14200,12514,129522,-33138,17610,107869,516,19138,2859,1,35194,0.0010000000000000009
373998,7493,-25933,123748,9779,-24809,138023,516,19173,2113,1,35195,0.0010000000000000009
374998,1297,3433,129571,13762,-595,122772,717,19143,2937,0,35196,0.0010000000000000009
375998,-2780,16131,129795,-38900,14725,117390,624,19154,2556,1,35197,0.0010000000000000009
376998,1118,15308,130051,-2961,15980,134216,699,19189,2863,1,35198,0.0010000000000000009
377998,8257,-16774,131033,3058,-14049,140357,626,19189,2863,0,35199,0.0010000000000000009
378998,9689,1216,132432,-19965,7653,121789,586,19139,2564,0,35200,0.0010000000000000009
379998,4452,4142,133372,6662,88,139236,586,19156,2400,1,35201,0.0010000000000000009
380998,3066,-982,133067,251,-1939,133047,784,19159,3211,1,35202,0.0010000000000000009
381998,13650,-1570,134242,-20430,-798,142018,529,19168,2167,0,35203,0.0010000000000000009
382998,9474,-1236,130501,9143,-2678,135217,811,19181,3322,0,35204,0.0010000000000000009
383998,9970,-3322,126966,-1682,-2014,124102,698,19181,2859,0,35205,0.0010000000000000009
384998,8205,-11178,133263,-8676,-9070,138605,603,19129,2859,1,35206,0.0010000000000000009
385998,16102,-5543,128030,13031,-5154,131921,699,19181,2470,1,35207,0.0010000000000000009
386998,10716,2168,128610,-6577,2729,127855,699,19147,2863,0,35208,0.0010000000000000009
387998,14301,-3084,119978,11254,-1208,119719,623,19157,2552,1,35209,0.0010000000000000009
388999,11056,9648,122481,17131,2072,126330,882,19201,3612,1,35210,0.0010009999999999741
389998,13428,-13728,118336,-7883,-11096,124300,618,19201,2531,0,35211,0.0009989999999999721
390998,20520,2775,124252,-9231,9541,117142,655,19140,2531,0,35212,0.0010000000000000009
391998,13972,229,123448,40069,-2832,125954,777,19161,2683,0,35213,0.0010000000000000009
393001,-2762,2988,123253,-15536,1902,113279,777,19138,3182,1,35214,0.0010030000000000316
394001,4727,-4653,120796,-33702,-6215,130806,512,19163,2097,0,35215,0.0010000000000000009
394998,10651,7046,122184,20364,10499,110817,815,19181,3338,0,35216,0.0009969999999999701
395998,12447,21322,121650,12547,19278,112368,700,19121,2867,1,35217,0.0010000000000000009
396998,8451,-4893,125035,-23796,-8101,126374,570,19121,2867,1,35218,0.0010000000000000009
397998,3641,-6841,122757,1402,-8995,130385,718,19164,2335,1,35219,0.0010000000000000009
398998,5046,3964,130195,-5653,6961,129601,718,19133,2941,0,35220,0.0010000000000000009
399998,3184,21793,130150,-11174,19999,113840,613,19157,2511,1,35221,0.0010000000000000009
400998,-1657,1551,129362,-10722,-6488,140881,817,19202,3346,1,35222,0.0010000000000000009
401998,6308,-10869,129157,-12694,-6821,131758,617,19142,2527,0,35223,0.0010000000000000009
402998,9043,7572,135212,-4780,6819,128446,666,19142,2527,0,35224,0.0010000000000000009
403998,7838,-1457,132929,9373,-5847,136461,770,19163,2728,1,35225,0.0010000000000000009
404998,2320,617,134381,-15921,-685,132055,770,19148,3154,1,35226,0.0010000000000000009
405998,13392,-3400,133203,-14347,-5486,144090,535,19171,2191,0,35227,0.0010000000000000009
406998,12148,4156,130658,14537,2685,128609,801,19189,3281,0,35228,0.0010000000000000009
408001,8058,-775,130408,4097,-1817,132126,691,19118,2830,1,35229,0.0010030000000000316
409003,7963,-11094,129669,-16547,-10899,134253,631,19118,2830,1,35230,0.0010020000000000029
409998,15218,-3568,129319,10775,-5625,133769,690,19175,2584,0,35231,0.0009949999999999681
410998,9737,-4077,129327,4469,-5033,133949,690,19145,2826,0,35232,0.0010000000000000009
411998,9998,-6271,120055,-8239,-8985,121156,606,19157,2482,1,35233,0.0010000000000000009
412998,16145,11242,123223,18764,9641,118412,841,19199,3444,1,35234,0.0010000000000000009
413998,14450,-12453,113700,18199,-13585,131656,608,19143,2490,0,35235,0.0010000000000000009
414998,17287,-2526,122459,-31554,-1372,115287,674,19143,2490,0,35236,0.0010000000000000009
415999,11512,6716,121974,29643,3467,118118,770,19162,2761,1,35237,0.0010010000000000296
417000,-1115,2244,121609,11797,1707,123201,770,19134,3154,1,35238,0.0010009999999999741
417998,9338,-9483,120983,-42605,-11256,123117,495,19168,2027,0,35239,0.0009979999999999989
418998,3924,-4196,118679,20661,-9108,131011,793,19186,3248,0,35240,0.0010000000000000009
419998,14982,29426,120981,2318,28621,99092,690,19125,2826,1,35241,0.0010000000000000009
420998,8308,9862,129175,-14067,15337,114919,575,19125,2826,1,35242,0.0010000000000000009
422000,6371,-21588,119173,2172,-25151,132555,694,19174,2355,0,35243,0.0010020000000000029
423000,1680,1313,131135,-6904,-224,125258,694,19140,2842,0,35244,0.0010000000000000009
423998,-983,21220,128777,-17051,17357,115696,609,19158,2494,1,35245,0.0009979999999999989
424998,1530,15372,129132,-1290,12569,139653,824,19198,3375,1,35246,0.0010000000000000009
425998,3223,-21991,130041,-10771,-8658,135867,609,19137,2494,0,35247,0.0010000000000000009
426998,12401,10955,135814,-19936,8569,123596,670,19137,2494,0,35248,0.0010000000000000009
427998,4315,3516,132332,19076,3643,137555,765,19163,2744,1,35249,0.0010000000000000009
429000,5444,179,135496,-10842,-7911,135968,765,19151,3133,1,35250,0.0010020000000000029
429998,11732,-10271,130167,-18974,-3230,142928,519,19174,2126,0,35251,0.0009979999999999989
430999,9363,5616,132129,10529,-2910,130217,790,19182,3236,0,35252,0.0010009999999999741
431998,10730,-4881,131891,4104,-5539,127605,685,19130,2806,1,35253,0.0009990000000000276
432998,3851,-5477,132246,-11455,-7628,135943,677,19130,2773,1,35254,0.0010000000000000009
434000,19760,-7603,129094,10094,-7664,136121,678,19178,2773,0,35255,0.0010020000000000029
434998,8077,2401,125773,3175,3108,120901,598,19142,2777,0,35256,0.0009979999999999989
436000,16705,1218,121853,5533,1218,122745,598,19157,2449,1,35257,0.0010020000000000029
437000,10701,-51,121091,21814,-2726,126383,855,19198,3502,1,35258,0.0010000000000000009
437998,11108,-14685,120622,-10717,-7180,123394,629,19144,2576,0,35259,0.0009979999999999989
438998,25670,-2856,123776,-6751,3924,117829,685,19144,2806,0,35260,0.0010000000000000009
440001,6554,10365,123982,46550,10248,117145,754,19159,2806,1,35261,0.0010029999999999761
441000,891,-2304,120657,-30341,-7903,124040,447,19119,3088,1,35262,0.0009990000000000276
442000,4483,-6548,120518,-20697,-3592,120863,447,19172,1831,0,35263,0.0010000000000000009
443000,11201,12499,122453,20278,10260,118669,784,19174,3211,0,35264,0.0010000000000000009
444000,14445,16851,123077,8577,19552,107140,692,19137,2834,1,35265,0.0010000000000000009
444998,303,-878,124504,-25264,-6366,129229,648,19137,2654,1,35266,0.0009979999999999989
445998,9245,-16471,121316,97,-15353,134673,678,19177,2654,0,35267,0.0010000000000000009
447000,-43,13616,129952,1733,15823,119274,545,19125,2777,0,35268,0.0010019999999999474
448000,4311,17435,132096,-18936,15037,124351,545,19157,2232,1,35269,0.0010000000000000009
448998,-1700,1229,128081,-9396,-4603,130428,832,19209,3408,1,35270,0.0009979999999999989
449998,4786,-10157,131402,707,-8877,139536,607,19147,2486,0,35271,0.0010000000000000009
450998,8553,8195,134782,-16912,10253,126448,691,19158,2830,0,35272,0.0010000000000000009
451998,5878,1475,132347,9750,-2004,136267,752,19158,2830,1,35273,0.0010000000000000009
452998,4011,-122,136884,-10025,-906,138355,461,19127,3080,1,35274,0.0010000000000000009
453999,13178,-2209,130451,-13490,-4349,135901,461,19172,1888,0,35275,0.0010010000000000296
454998,9200,-2113,132093,10448,-3535,136972,758,19185,3105,0,35276,0.0009989999999999721
455998,8014,-493,131653,5016,-308,127368,679,19138,2781,1,35277,0.0010000000000000009
456998,5994,-9966,130565,-18255,-10483,134920,681,19183,2789,1,35278,0.0010000000000000009
458000,15289,-1087,130404,14621,-3573,131737,672,19183,2789,0,35279,0.0010020000000000029
459000,9776,683,126452,3806,-1013,131932,592,19137,2752,0,35280,0.0010000000000000009
459998,14257,-7302,119748,-7529,-8936,119030,592,19152,2425,1,35281,0.0009979999999999989
460998,13647,17422,126371,25657,15467,120048,825,19192,3379,1,35282,0.0010000000000000009
461998,14568,-28952,115467,8867,-27743,134781,598,19142,2449,0,35283,0.0010000000000000009
462998,14895,19560,127429,-29806,20227,105854,692,19159,2834,0,35284,0.0010000000000000009
463998,9840,-11404,120697,41817,-12971,133494,757,19159,2834,1,35285,0.0010000000000000009
464998,-6517,7081,121406,-15170,4945,108936,458,19112,3100,1,35286,0.0010000000000000009
465998,9456,-14184,122783,-26333,-12431,132930,458,19172,1876,0,35287,0.0010000000000000009
466998,5221,9073,116028,19503,2805,115104,768,19169,3146,0,35288,0.0010000000000000009
467998,14932,31605,126432,-5515,34725,99930,677,19134,2773,1,35289,0.0010000000000000009
469003,3179,-20018,123225,-7685,-19111,129364,666,19179,2728,1,35290,0.0010050000000000336
469999,7975,-3111,123049,-433,-6043,129292,678,19179,2728,0,35291,0.0009959999999999969
470998,-2257,2745,130597,-10848,-1676,124629,533,19123,2777,0,35292,0.0009989999999999721
471998,5472,26941,129791,-16589,22671,113822,533,19160,2183,1,35293,0.0010000000000000009
473000,-955,-6393,128212,-849,-24096,150606,815,19204,3338,1,35294,0.0010020000000000029
474000,9141,-6133,130414,-14776,10709,116281,592,19144,2425,0,35295,0.0010000000000000009
474998,8842,8514,135306,-8502,-2403,139112,676,19167,2769,0,35296,0.0009979999999999989
475998,3209,-2888,132086,11823,5707,131575,747,19167,3059,1,35297,0.0010000000000000009
477000,4567,400,135929,-21733,-8892,140273,446,19122,3059,1,35298,0.0010020000000000029
477998,12134,-5561,130738,11059,-1432,139202,745,19177,1827,0,35299,0.0009979999999999989
478998,10532,13472,131247,4534,-1230,126540,745,19174,3051,0,35300,0.0010000000000000009
479998,9019,-16252,131143,-1987,-11621,134116,670,19136,2744,1,35301,0.0010000000000000009
480998,6479,3934,134619,-2867,2201,127950,698,19182,2859,1,35302,0.0010000000000000009
481998,15789,-6937,127634,11444,-10850,141061,662,19182,2711,0,35303,0.0010000000000000009
482998,5918,-585,127586,-3383,5275,117374,548,19134,2711,0,35304,0.0010000000000000009
483998,19222,4143,122184,14707,5074,122612,813,19158,2244,1,35305,0.0010000000000000009
484998,10859,-2687,122146,23825,-10744,127604,813,19192,3330,1,35306,0.0010000000000000009
485998,15747,-8455,124540,-16183,-8738,119945,594,19141,2433,0,35307,0.0010000000000000009
486998,18260,-3384,124167,2690,2558,118873,672,19164,2752,0,35308,0.0010000000000000009
488002,6050,9716,123865,41887,7763,121191,745,19164,3051,1,35309,0.0010040000000000049
489000,-3637,-11528,118942,-35936,-13394,125619,455,19107,3051,1,35310,0.0009979999999999989
489998,5476,1470,117819,-9613,5641,117530,743,19176,1864,0,35311,0.0009979999999999989
490998,9964,15439,120951,15963,14033,114565,743,19166,3043,0,35312,0.0010000000000000009
491998,15810,14142,125601,3234,18612,105730,677,19145,2773,1,35313,0.0010000000000000009
492998,1722,-16887,122670,-7509,-22113,139662,650,19177,2662,1,35314,0.0010000000000000009
493998,8818,-14882,122493,-4825,-4118,127031,670,19129,2744,0,35315,0.0010000000000000009
495000,-1088,25157,129812,-8112,23654,118278,546,19129,2744,0,35316,0.0010020000000000029
496000,1750,12513,130014,-6972,9725,126275,799,19164,2236,1,35317,0.0010000000000000009
497000,483,-1242,128601,-15743,-8877,133885,799,19201,3272,1,35318,0.0010000000000000009
498000,5165,-10961,132152,1325,-7476,136126,597,19135,2445,0,35319,0.0010000000000000009
499001,5901,17085,134053,-8108,18347,123746,673,19165,2756,0,35320,0.0010009999999999741
499998,6519,-8153,131692,2145,-10460,140905,744,19114,3047,1,35321,0.0009970000000000256
501001,1776,3193,134278,-13537,4478,134184,434,19114,3047,1,35322,0.0010030000000000316
501998,17815,-1165,133329,-1008,-3423,139169,725,19172,1778,0,35323,0.0009969999999999146
502998,8505,-1116,129436,10175,-3611,129096,725,19169,2969,0,35324,0.0010000000000000009
503998,9861,-2423,134285,5200,-2955,129123,664,19138,2720,1,35325,0.0010000000000000009
504998,2305,-9835,130238,-19049,-10754,139419,745,19186,3051,1,35326,0.0010000000000000009
506000,13785,2291,131715,12001,1269,130397,659,19131,2699,0,35327,0.0010020000000000584
506999,5747,3658,129893,8198,3491,129944,524,19131,2699,0,35328,0.0009989999999999721
507998,14695,-10886,117919,-9881,-11935,121889,797,19163,2146,1,35329,0.0009989999999999721
509000,15755,12504,125602,22779,10208,117200,797,19180,3264,1,35330,0.0010020000000000584
510000,17963,-18469,117511,24523,-17959,133365,588,19151,2408,0,35331,0.0010000000000000009
510998,14361,11743,124273,-40142,12468,108551,728,19164,2982,0,35332,0.0009979999999999434
511998,5686,-3816,124553,38051,-5367,126290,738,19118,3023,1,35333,0.0010000000000000009
512998,-3595,-2112,120357,-2234,-3709,124929,493,19118,3023,1,35334,0.0010000000000000009
513998,6739,-5636,119927,-31936,-7498,122851,731,19176,2019,0,35335,0.0010000000000000009
514998,4204,2360,119665,13882,-1223,121973,731,19161,2994,0,35336,0.0010000000000000009
515998,20935,29945,122913,6183,31555,98668,670,19137,2744,1,35337,0.0010000000000000009
516998,1053,-1410,126615,-7502,-435,133859,691,19187,2830,1,35338,0.0010000000000000009
517998,13556,-13313,122417,-8822,-14652,129646,669,19139,2740,0,35339,0.0010000000000000009
519000,-7291,-2126,127676,-2529,-6587,131231,575,19139,2355,0,35340,0.0010020000000000584
519999,5192,19288,133096,-18331,17800,117673,787,19160,2355,1,35341,0.0009989999999999721
521000,86,-1806,126888,-3017,-18006,142501,787,19193,3223,1,35342,0.0010010000000000296
521998,4997,-6710,131742,-6738,4836,128266,592,19143,2425,0,35343,0.0009979999999999434
522998,11650,10615,133163,-18368,4585,126562,681,19162,2789,0,35344,0.0010000000000000009
523999,3183,2532,131990,3834,5827,137511,731,19117,2994,1,35345,0.0010010000000000296
524998,4784,84,136283,-18563,-8877,138376,434,19117,1778,1,35346,0.0009989999999999721
525998,12318,-7847,131103,7897,-2414,139479,715,19175,1778,0,35347,0.0010000000000000009
526998,9667,7914,132787,9132,-805,130107,654,19173,2928,0,35348,0.0010000000000000009
527998,8637,-11253,131353,1250,-10742,129189,654,19140,2679,1,35349,0.0010000000000000009
528998,5474,-517,132448,-11733,2321,134011,787,19185,3223,1,35350,0.0010000000000000009
530001,19401,-7483,128909,17607,-9970,136709,649,19130,2658,0,35351,0.0010029999999999761
530998,1072,2912,127304,501,9819,115824,526,19130,2154,0,35352,0.0009970000000000256
532000,26372,9736,126303,9510,-1273,122380,782,19160,2154,1,35353,0.0010020000000000584
532998,4251,-2645,120817,29201,-9237,125151,584,19178,3203,1,35354,0.0009979999999999434
533998,20869,-11320,125023,-29791,-12584,122462,584,19154,2392,0,35355,0.0010000000000000009
534999,16210,2382,125103,24515,12818,112397,758,19167,3105,0,35356,0.0010010000000000296
535998,392,10095,122918,25426,2271,125315,732,19119,2998,1,35357,0.0009989999999999721
536999,889,-9563,120102,-44093,-7195,119757,526,19181,2154,1,35358,0.0010010000000000296
537998,3510,4263,120736,15620,4617,121251,708,19181,2154,0,35359,0.0009989999999999721
538998,12165,8224,122517,4370,8491,113723,665,19161,2900,0,35360,0.0010000000000000009
539998,11452,16913,126698,-2272,12692,105784,665,19144,2724,1,35361,0.0010000000000000009
540998,499,-19182,124077,3657,-23567,145075,712,19173,2916,1,35362,0.0010000000000000009
542000,13679,-6892,124944,-12245,3960,118920,657,19123,2691,0,35363,0.0010019999999999474
542998,-4761,23585,132097,-2138,22540,120444,593,19161,2429,0,35364,0.0009980000000000544
543998,4250,12899,128929,-12316,8483,127682,767,19161,2429,1,35365,0.0010000000000000009
544998,605,-2891,128144,-9942,-9677,131380,579,19187,3141,1,35366,0.0010000000000000009
545998,5043,-13084,133814,3052,-9168,140310,579,19157,2371,0,35367,0.0010000000000000009
547002,7483,5781,133017,-7842,7856,126182,709,19165,2904,0,35368,0.0010040000000000049
547999,3839,-3238,133007,-501,-3660,139378,733,19124,3002,1,35369,0.0009970000000000256
548998,3796,4278,134654,-9615,4923,137522,469,19170,1921,1,35370,0.0009989999999999721
549998,15846,-3301,130588,1390,-4713,134361,697,19170,1921,0,35371,0.0010000000000000009
550998,9901,2085,131614,11793,-2047,129868,652,19169,2855,0,35372,0.0010000000000000009
551998,8680,-5024,130837,2839,-7089,130717,652,19141,2670,1,35373,0.0010000000000000009
552998,3750,-6344,129346,-14734,-3601,134996,830,19188,3399,1,35374,0.0010000000000000009
553999,14509,3088,133295,15575,2903,131589,654,19135,2679,0,35375,0.0010010000000000296
554998,2860,212,126348,1915,68,129663,554,19155,2269,0,35376,0.0009989999999999721
555998,16921,-10028,123980,-7359,-8955,120274,774,19155,2269,1,35377,0.0010000000000000009
556998,17726,12733,123176,34913,8560,119359,587,19168,3170,1,35378,0.0010000000000000009
557998,17179,-19324,118670,15971,-19566,128628,587,19153,2404,0,35379,0.0010000000000000009
558998,11481,16969,126710,-40361,19368,108686,782,19172,3203,0,35380,0.0010000000000000009
559998,7585,-3587,124975,39523,-4024,129274,727,19124,2978,1,35381,0.0010000000000000009
560998,-6993,2541,121854,-2261,-305,119296,582,19176,2384,1,35382,0.0010000000000000009
561999,6359,-10594,122981,-30006,-9056,125363,712,19176,2384,0,35383,0.0010010000000000296
562998,4358,8165,118058,11197,337,117903,657,19156,2916,0,35384,0.0009989999999999721
563999,20638,32814,127186,9734,36371,114609,657,19147,2691,1,35385,0.0010010000000000296
564998,5435,-9710,124553,-6648,-7440,133977,738,19185,3023,1,35386,0.0009989999999999721
565998,11464,-17130,124697,-4447,-16592,130580,647,19142,2650,0,35387,0.0010000000000000009
567000,-7339,2765,132322,-6691,-26,126663,625,19165,2560,0,35388,0.0010019999999999474
568000,5798,20541,132097,-15316,19644,119710,765,19165,3133,1,35389,0.0010000000000000009
569001,-610,-4418,126949,1061,-14570,145050,573,19182,3133,1,35390,0.0010010000000000296
569998,7081,-4749,130433,-9882,5474,123302,719,19155,2347,0,35391,0.0009970000000000256
570998,11618,8113,131935,-15373,3754,130310,719,19166,2945,0,35392,0.0010000000000000009
571998,4666,4465,134903,18556,6782,137077,718,19123,2941,1,35393,0.0010000000000000009
572998,4172,-6509,133973,-19893,-10416,141341,506,19180,2072,1,35394,0.0010000000000000009
573998,10373,-7094,133140,2463,-2683,137839,691,19180,2830,0,35395,0.0010000000000000009
574998,9605,8234,132593,12273,-2035,130705,650,19158,2830,0,35396,0.0010000000000000009
575998,6711,-10353,128876,452,-9695,130968,841,19138,2662,1,35397,0.0010000000000000009
576998,5319,1411,134225,-12708,4467,129698,841,19194,3444,1,35398,0.0010000000000000009
578001,20536,-8807,129041,14251,-13536,139785,637,19137,2609,0,35399,0.0010029999999999761
578998,2715,2413,128218,8136,10687,112578,567,19160,2322,0,35400,0.0009970000000000256
580001,25405,12328,128600,10103,82,128699,767,19160,3141,1,35401,0.0010029999999999761
581000,2613,-10769,118108,20712,-10124,122881,568,19158,3141,1,35402,0.0009989999999999721
581998,18847,-3994,124860,-28052,-7515,120525,795,19158,2326,0,35403,0.0009980000000000544
582998,18399,-1694,125537,34167,7830,120000,795,19170,3256,0,35404,0.0010000000000000009
583998,-3405,10092,125205,16605,5034,116597,719,19126,2945,1,35405,0.0010000000000000009
584998,2603,-8810,121833,-49415,-7718,125157,612,19174,2507,1,35406,0.0010000000000000009
586000,5151,6232,123369,27899,2209,115361,703,19159,2879,0,35407,0.0010019999999999474
586998,11808,19525,122690,7140,16162,112367,654,19159,2879,0,35408,0.0009980000000000544
587998,14713,10605,127600,-20284,6133,108795,771,19146,2679,1,35409,0.0010000000000000009
588998,498,-19479,125946,16772,-22208,142168,771,19187,3158,1,35410,0.0010000000000000009
590000,12097,-8872,126136,-11547,-1110,126753,648,19134,2654,0,35411,0.0010019999999999474
590998,-10931,27155,132034,-10717,28288,112335,640,19171,2621,0,35412,0.0009980000000000544
592000,6094,11407,131861,-18237,6511,133284,754,19173,3088,1,35413,0.0010019999999999474
592998,2103,-4994,126537,2595,-10764,129490,559,19173,3088,1,35414,0.0009980000000000544
593998,7588,-8062,134186,602,-9065,138929,799,19153,2289,0,35415,0.0010000000000000009
595000,11149,606,130795,-12210,2921,126357,799,19174,3272,0,35416,0.0010019999999999474
595998,1013,-875,135766,10418,-614,135906,719,19118,2945,1,35417,0.0009980000000000544
596998,6652,2906,137046,-18623,2787,141634,530,19177,2171,1,35418,0.0009999999999998899
597998,11320,-1966,131644,1449,-2971,132080,682,19156,2793,0,35419,0.0010000000000000009
599000,5688,6027,132327,15785,1527,130751,635,19156,2793,0,35420,0.0010020000000000584
599998,9007,-14852,127407,-6751,-16051,133085,876,19141,2601,1,35421,0.0009979999999999434
600999,8575,-7895,131963,-5576,-2227,131443,876,19196,3588,1,35422,0.0010010000000000296
602000,21188,5133,132509,24180,5968,134177,632,19139,2588,0,35423,0.0010010000000000296
603001,5012,-3192,124519,-3748,-3107,125521,640,19169,2621,0,35424,0.0010010000000000296
603998,15407,6533,129607,1437,7251,112135,754,19166,3088,1,35425,0.0009969999999999146
604998,11302,-4728,119175,31233,-11330,137451,553,19166,3088,1,35426,0.0010000000000000009
605998,17208,-11303,123114,-6608,-9560,113801,815,19157,2265,0,35427,0.0010000000000000009
606998,17220,15118,128833,-7529,18262,115333,815,19178,3338,0,35428,0.0010000000000000009
608000,7774,-6467,122351,43247,-6056,128109,713,19130,2920,1,35429,0.0010020000000000584
609001,-3973,10824,126677,-27172,10050,109273,619,19185,2535,1,35430,0.0010010000000000296
610000,8620,-17508,122062,-10878,-17033,138124,688,19158,2818,0,35431,0.0009989999999999721
610998,11267,31148,122452,14836,24679,96446,643,19158,2818,0,35432,0.0009979999999999434
611998,10566,10344,127937,10308,13059,128035,792,19145,2634,1,35433,0.0010000000000000009
612998,5885,-12620,123181,-19614,-11071,126892,635,19189,3244,1,35434,0.0010000000000000009
614001,7524,-5830,131317,4458,-2822,136665,635,19147,2601,0,35435,0.0010030000000000872
614998,-3758,13345,131486,-7532,8732,111324,672,19168,2752,0,35436,0.0009969999999999146
616000,6791,17666,136427,-9717,-1392,138533,752,19156,3080,1,35437,0.0010020000000000584
616999,-4044,-14890,125400,-4049,-8431,135120,575,19156,2355,1,35438,0.0009989999999999721
617998,12284,10942,134001,-12194,12533,123062,836,19157,2355,0,35439,0.0009989999999999721
618998,7362,-4407,132828,884,-6526,139530,707,19176,3424,0,35440,0.0010000000000000009
619998,8284,-115,136194,8038,2799,131674,707,19133,2896,1,35441,0.0010000000000000009
621001,4537,-11588,135667,-12277,-11740,147933,560,19179,2294,1,35442,0.0010030000000000872
622000,12014,2973,134985,6093,6447,127234,676,19151,2769,0,35443,0.0009989999999999721
623000,8929,5600,128672,8406,-3758,135248,641,19151,2625,0,35444,0.0010000000000000009
623998,6652,-11022,130344,-12183,-8206,129757,899,19163,2625,1,35445,0.0009979999999999434
625020,8295,778,131847,3824,-38,132521,624,19196,3682,1,35446,0.0010220000000000784
626001,15350,-7131,131396,13134,-6867,137422,624,19145,2556,0,35447,0.0009809999999998986
627000,7985,-4478,124137,-7878,5171,115753,667,19169,2732,0,35448,0.0009990000000000832
627998,19372,12818,129338,16207,6637,123630,749,19154,3068,1,35449,0.0009979999999999434
629000,13958,-8953,116534,20921,-17280,129080,558,19167,2285,1,35450,0.0010020000000000584
629998,18928,-2837,123378,-26761,1043,116457,851,19167,2285,0,35451,0.0009979999999999434
630998,13334,2585,126335,26226,4072,121257,701,19182,3485,0,35452,0.0010000000000000009
631998,1147,1373,122116,14789,-197,118564,701,19119,2871,1,35453,0.0010000000000000009
633000,-3775,-1145,123912,-44116,-4000,125413,673,19186,2756,1,35454,0.0010020000000000584
633998,12376,-4860,119171,27128,-3302,122003,668,19160,2736,0,35455,0.0009979999999999434
635000,5930,31942,121188,7997,33856,99969,643,19148,2634,0,35456,0.0010020000000000584
636000,14747,10677,127922,-24538,-997,118460,846,19148,2634,1,35457,0.0010000000000000009
636998,5633,-19766,125743,14446,-16061,133980,646,19201,3465,1,35458,0.0009979999999999434
638000,6306,-919,131657,-1687,-1034,132060,646,19133,2646,0,35459,0.0010020000000000584
638998,-4743,12334,130585,-30289,17011,114110,678,19169,2777,0,35460,0.0009979999999999434
640001,2152,17130,133275,4854,5079,128441,731,19169,2994,1,35461,0.0010029999999999761
641000,4933,-12173,126994,-1302,-15799,141469,552,19161,2261,1,35462,0.0009990000000000832
641998,10570,5395,132879,-19323,6580,121290,856,19161,2261,0,35463,0.0009979999999999434
642998,8047,-1582,135690,11243,-1067,138713,711,19180,3506,0,35464,0.0010000000000000009
643998,5438,962,133025,-4054,-664,131971,711,19134,2912,1,35465,0.0010000000000000009
645001,7882,-4560,136384,-17595,-3343,142089,577,19183,2363,1,35466,0.0010029999999999761
645998,9745,628,133297,14701,-319,135977,650,19156,2662,0,35467,0.0009970000000000256
647002,8491,102,125482,703,-6471,125690,625,19153,2560,0,35468,0.0010040000000000049
647998,8232,-8303,132320,-7568,-9407,133699,914,19153,2560,1,35469,0.0009959999999999969
649000,10972,-4417,131055,8345,-1372,132152,620,19197,3743,1,35470,0.0010020000000000584
650001,13949,-4747,131968,9067,-2890,132924,620,19142,2539,0,35471,0.0010009999999999186
650998,9847,3516,127715,-5763,3680,121313,682,19168,2793,0,35472,0.0009970000000000256
651998,16106,2531,126384,21452,1555,120049,730,19156,2990,1,35473,0.0010000000000000009
652998,12383,468,118678,18774,-4927,127656,537,19163,2199,1,35474,0.0010000000000000009
653998,17635,-11623,121841,-18794,-10646,118244,843,19163,2199,0,35475,0.0010000000000000009
654998,14993,6275,125726,10674,7606,116746,707,19176,3453,0,35476,0.0010000000000000009
655998,5365,-325,123741,35037,442,127348,707,19133,2896,1,35477,0.0010000000000000009
657000,-4375,300,122765,-37697,-1142,117954,678,19197,2777,1,35478,0.0010019999999999474
657998,10609,-1245,123372,-3475,-794,122675,659,19156,2699,0,35479,0.0009980000000000544
659000,11610,21929,121275,25810,15723,108952,629,19146,2576,0,35480,0.0010019999999999474
659999,12459,10178,126631,-4167,11449,124780,904,19146,3703,1,35481,0.0009990000000000832
661000,2686,-16480,125902,-12524,-13573,131424,621,19201,3703,1,35482,0.0010009999999999186
662000,9475,3146,131726,4332,3074,126384,690,19145,2543,0,35483,0.0010000000000000009
662999,-338,15333,132515,-8095,13796,118433,690,19171,2826,0,35484,0.0009990000000000832
664000,1307,14774,133143,-6607,-1310,134411,728,19164,2982,1,35485,0.0010009999999999186
664998,5209,-13254,126776,-7713,-13677,137950,539,19162,2208,1,35486,0.0009980000000000544
665998,10119,2650,132473,-8547,10886,125786,833,19162,3412,0,35487,0.0010000000000000009
667001,9650,2088,136400,9739,-10598,138503,698,19184,3412,0,35488,0.0010029999999999761
667998,2591,1019,135313,-16346,2447,130795,609,19144,2859,1,35489,0.0009970000000000256
668998,7595,-1504,135603,-15774,-7594,145565,609,19176,2494,1,35490,0.0010000000000000009
670000,11939,-7018,132431,14132,-884,133188,655,19156,2683,0,35491,0.0010019999999999474
670998,10510,9268,128205,6153,3638,128050,625,19152,2560,0,35492,0.0009980000000000544
672000,7885,-11149,129340,-17328,-12698,136147,893,19152,3657,1,35493,0.0010019999999999474
673000,10081,-6418,132185,7066,-1297,129803,605,19190,3657,1,35494,0.0010000000000000009
673998,15369,-2611,132839,12457,-1471,137262,676,19143,2478,0,35495,0.0009980000000000544
674998,8629,-7749,123672,-7915,-7724,121379,676,19168,2769,0,35496,0.0010000000000000009
675998,16671,13476,126922,13506,13550,115027,749,19156,3068,1,35497,0.0010000000000000009
677000,16800,-5451,116060,25759,-17345,136349,531,19165,2175,1,35498,0.0010019999999999474
677998,19017,-6925,123869,-33036,3125,110617,828,19187,3391,0,35499,0.0009980000000000544
679000,16846,7521,126976,28077,-1050,124329,696,19187,3391,0,35500,0.0010019999999999474
679998,-1973,833,122839,12936,3212,118731,698,19134,2851,1,35501,0.0009980000000000544
680998,2150,-720,123835,-44000,1784,122220,698,19182,2859,1,35502,0.0010000000000000009
681998,9186,-13091,118974,27867,-14270,130191,648,19143,2654,0,35503,0.0010000000000000009
682998,8214,29980,117055,-394,36132,95738,610,19142,2498,0,35504,0.0010000000000000009
683998,14209,16198,129434,-17446,2243,120578,894,19201,3662,1,35505,0.0010000000000000009
684998,2833,-16873,124743,11567,-14035,133048,618,19201,3662,1,35506,0.0010000000000000009
685998,8020,-6310,131810,-8917,-6175,133924,701,19147,2531,0,35507,0.0010000000000000009
686998,-8245,17198,131054,-23826,21293,113701,701,19161,2871,0,35508,0.0010000000000000009
687998,4500,22797,132466,2768,10015,128391,714,19166,2924,1,35509,0.0010000000000000009
688998,4033,-19650,127400,-6319,-19984,143439,538,19163,2203,1,35510,0.0010000000000000009
689998,11497,5673,135222,-20767,6952,122239,822,19183,3367,0,35511,0.0010000000000000009
690998,6888,999,136417,14275,183,137131,701,19183,3367,0,35512,0.0010000000000000009
691998,4305,5848,135836,-9335,4003,130138,657,19138,2871,1,35513,0.0010000000000000009
692998,11370,-13983,133672,-16386,-15027,148201,657,19183,2691,1,35514,0.0010000000000000009
693998,9505,997,132649,17404,-1306,131319,637,19151,2609,0,35515,0.0010000000000000009
695001,15178,2640,128713,-151,-1580,129762,610,19154,2498,0,35516,0.0010029999999999761
696000,4806,-6690,129932,-3032,-7718,130601,876,19187,3588,1,35517,0.0009989999999999721
697000,13924,-3834,134400,1815,-2124,134564,606,19187,3588,1,35518,0.0010000000000000009
697998,11892,-7914,127160,8113,-7977,134409,667,19148,2482,0,35519,0.0009980000000000544
698998,11357,7483,127428,-3430,7863,117487,667,19173,2732,0,35520,0.0010000000000000009
699998,18599,254,123913,22493,-1476,124796,717,19145,2937,1,35521,0.0010000000000000009
701000,10242,-3664,115312,13985,-8814,122361,512,19156,2097,1,35522,0.0010019999999999474
701998,22103,-8103,122661,-23594,-6761,121904,807,19175,3305,0,35523,0.0009980000000000544
702998,9445,3921,122952,27518,4169,117115,692,19175,2834,0,35524,0.0010000000000000009
703999,3940,2493,122918,18127,1774,125316,734,19145,2834,1,35525,0.0010009999999999186
704998,468,-7341,121580,-38492,-7457,120214,644,19187,3006,1,35526,0.0009990000000000832
705999,6928,5611,121117,7496,3387,120579,644,19140,2638,0,35527,0.0010009999999999186
706998,16561,19987,122470,19142,16402,110339,590,19157,2416,0,35528,0.0009990000000000832
708004,6306,7293,125528,-6588,8347,124934,867,19200,3551,1,35529,0.0010059999999999514
708998,7472,-13044,125083,-15320,-13406,134109,613,19200,2511,1,35530,0.0009940000000000504
709998,4932,3244,130286,6251,3627,121691,721,19144,2511,0,35531,0.0010000000000000009
710999,1039,16376,130971,-11480,12108,123992,711,19173,2953,0,35532,0.0010009999999999186
711998,573,6555,131559,-6538,-4326,132987,711,19160,2912,1,35533,0.0009990000000000832
712998,5163,-10752,128747,-6309,-8132,135817,526,19162,2154,1,35534,0.0010000000000000009
713998,12360,6032,134149,-12668,6176,125474,800,19178,3277,0,35535,0.0010000000000000009
714999,4562,3961,134035,9584,-1292,136133,690,19178,2826,0,35536,0.0010009999999999186
715998,5379,-2570,135047,-21101,-3382,135479,660,19139,2826,1,35537,0.0009989999999999721
716999,7640,-2832,133450,-8512,-3263,139434,631,19189,2703,1,35538,0.0010010000000000296
717999,14754,-362,131661,10633,-726,134105,631,19144,2584,0,35539,0.0010000000000000009
718998,10067,5552,128326,4592,-253,127310,576,19154,2359,0,35540,0.0009989999999999721
720000,6321,-10376,130508,-15106,-11490,136529,858,19184,3514,1,35541,0.0010020000000000584
721000,13620,-9949,132781,7176,-8749,132663,600,19145,2457,1,35542,0.0010000000000000009
722000,12270,614,129841,4558,-1091,132277,722,19145,2457,0,35543,0.0010000000000000009
722998,9094,-4945,123039,-6969,-4079,120046,703,19170,2957,0,35544,0.0009979999999999434
723998,17535,14351,126045,22018,11561,119858,703,19127,2879,1,35545,0.0010000000000000009
724998,14810,-11004,115499,14900,-20184,133612,479,19171,1962,1,35546,0.0010000000000000009
725998,18810,-6592,119950,-34701,2963,113889,801,19169,3281,0,35547,0.0010000000000000009
726998,12659,3380,124759,39380,2359,122735,687,19136,2814,0,35548,0.0010000000000000009
727998,-518,3172,120986,-1993,5026,116595,756,19136,2814,1,35549,0.0010000000000000009
728998,6587,-2781,123841,-35896,-6907,127412,636,19189,3096,1,35550,0.0010000000000000009
730000,5478,-8781,118943,25603,-5847,124517,636,19140,2605,0,35551,0.0010020000000000584
730998,12674,28778,120080,-5377,33298,98819,578,19146,2367,1,35552,0.0009979999999999434
732001,9760,8640,127581,-12568,-1944,123049,854,19189,3498,1,35553,0.0010030000000000872
732998,4658,-15863,123614,7938,-17304,135485,606,19146,2482,1,35554,0.0009969999999999146
733998,5303,-2307,128796,-14702,1478,128314,724,19146,2482,0,35555,0.0010000000000000009
734998,-3295,21703,130514,-14489,28574,115223,705,19173,2965,1,35556,0.0010000000000000009
735998,4531,11165,129751,1495,-1153,135159,705,19156,2887,1,35557,0.0010000000000000009
736998,2591,-18577,126912,-12747,-13760,138627,533,19166,2183,1,35558,0.0010000000000000009
737998,11944,7653,135936,-18382,6896,126458,800,19177,3277,0,35559,0.0010000000000000009
739000,4876,2267,132885,18162,1318,133687,689,19134,2822,0,35560,0.0010020000000000584
739998,3806,1361,136800,-19366,-364,134802,668,19134,2822,1,35561,0.0009979999999999434
741000,12177,-9866,132035,-9783,-10768,144196,624,19187,2736,0,35562,0.0010020000000000584
741998,10029,10504,131665,13174,7831,129132,624,19138,2556,0,35563,0.0009979999999999434
743000,12815,-3512,128961,-786,-5774,132496,561,19149,2298,0,35564,0.0010020000000000584
743998,7362,-6379,133247,-3762,-4965,129350,848,19184,3473,1,35565,0.0009979999999999434
744998,15580,-5406,131981,2799,-7640,138878,607,19148,2486,1,35566,0.0010000000000000009
745998,10286,-4517,128403,4275,-3365,127959,729,19148,2486,0,35567,0.0010000000000000009
747000,13907,5318,124787,-1130,3465,122795,697,19169,2986,1,35568,0.0010020000000000584
747998,17376,-3384,123048,24499,-6118,124431,697,19123,2855,1,35569,0.0009979999999999434
748998,10119,-514,117922,6447,-4155,121629,449,19174,1839,0,35570,0.0010000000000000009
749998,21658,-7707,122342,-21760,-5458,124146,780,19169,3195,0,35571,0.0010000000000000009
750998,10017,4928,124173,32156,3632,112712,687,19155,2814,0,35572,0.0010000000000000009
751999,3739,-1491,121968,10501,-2259,123904,775,19155,3174,1,35573,0.0010010000000000296
753001,372,-7193,120607,-38664,-8009,120758,616,19203,3174,0,35574,0.0010019999999999474
753998,9063,12469,123306,10442,10116,116024,547,19146,2523,0,35575,0.0009970000000000256
754998,16453,16723,121103,17962,15978,107417,547,19149,2240,1,35576,0.0010000000000000009
755998,8117,3570,124638,-10593,5897,131334,846,19189,3465,1,35577,0.0010000000000000009
756998,5402,-20774,122420,-11029,-23006,131493,608,19153,2490,1,35578,0.0010000000000000009
757998,3749,9030,129066,2925,6257,122329,753,19153,3084,0,35579,0.0010000000000000009
758998,1510,16568,131299,-10506,14478,122526,697,19170,3084,1,35580,0.0010000000000000009
759998,1015,8557,128781,-10376,-7859,133764,501,19157,2855,1,35581,0.0010000000000000009
760999,3746,-12511,130534,-7104,-9427,136232,501,19169,2052,0,35582,0.0010010000000000296
761998,9002,6330,132590,-12599,11086,124460,778,19166,3186,0,35583,0.0009989999999999721
762998,5065,4395,133604,6817,-1414,136669,686,19144,2810,1,35584,0.0010000000000000009
764000,3296,-2873,133444,-21550,-5194,135389,721,19144,2953,1,35585,0.0010020000000000584
764998,12837,-1246,134348,-3956,-3362,139914,628,19181,2953,0,35586,0.0009979999999999434
765998,11811,-540,131134,11391,-1287,132801,542,19138,2572,0,35587,0.0010000000000000009
767001,10996,1203,130314,3370,-2145,128757,542,19166,2220,1,35588,0.0010029999999999761
768006,5352,-10753,131458,-12575,-13807,133773,842,19173,3449,1,35589,0.0010050000000000336
768998,14354,-2986,131211,11401,-1229,132876,594,19152,2433,0,35590,0.0009919999999999929
769998,12021,-502,129384,3751,-1965,132207,758,19174,3105,0,35591,0.0010000000000000009
770998,10532,-9597,120101,-2278,-4384,117487,696,19174,3105,1,35592,0.0010000000000000009
771999,19060,18901,126124,21586,11633,121863,440,19123,2851,1,35593,0.0010010000000000296
772999,14891,-17468,114224,8358,-18795,129658,440,19171,1802,0,35594,0.0010000000000000009
774000,17859,-234,121824,-26874,7739,114425,763,19162,3125,0,35595,0.0010009999999999186
775000,8852,-3953,121559,44444,-7183,123558,680,19143,2785,0,35596,0.0010000000000000009
776000,870,8760,123643,-17438,8326,111582,821,19190,3363,1,35597,0.0010000000000000009
776998,8084,-4170,121385,-25081,-8819,133114,621,19190,3363,0,35598,0.0009980000000000544
777998,4093,-5599,119754,19369,2063,116783,535,19134,2543,0,35599,0.0010000000000000009
778998,16109,31917,121713,-3323,32555,100571,535,19156,2191,1,35600,0.0010000000000000009
779998,5309,-750,126055,-9113,-10476,129123,831,19185,3404,1,35601,0.0010000000000000009
780998,7673,-15199,121422,3624,-14675,133523,598,19151,2449,0,35602,0.0010000000000000009
781998,-294,-4665,127011,-13685,3640,130578,771,19176,3158,0,35603,0.0010000000000000009
782998,-324,28101,130778,-15133,28645,110814,694,19176,3158,1,35604,0.0010000000000000009
783998,2496,5371,127874,-896,-7084,140181,454,19127,2842,1,35605,0.0010000000000000009
784998,3228,-17259,129684,-12212,-11694,138079,454,19169,1859,0,35606,0.0010000000000000009
785999,12987,6972,134217,-11511,7855,125547,761,19159,3117,0,35607,0.0010010000000000296
786998,1972,3076,132168,15281,1475,134665,679,19151,2781,1,35608,0.0009989999999999721
787998,6989,1224,135193,-24411,-652,135640,730,19189,2990,1,35609,0.0010000000000000009
789000,11471,-9296,131347,-254,-7330,145658,613,19189,2990,0,35610,0.0010019999999999474
789998,11217,12207,131622,6786,8173,129037,528,19138,2511,0,35611,0.0009980000000000544
790998,10000,-8862,129435,2024,-8969,130944,528,19157,2163,1,35612,0.0010000000000000009
791998,6293,-1634,134111,-8294,-407,130129,818,19155,3350,1,35613,0.0010000000000000009
792998,18826,-10311,129621,4729,-13193,140401,584,19163,2392,0,35614,0.0010000000000000009
793998,6641,-397,127308,4815,184,124435,773,19169,3166,0,35615,0.0010000000000000009
794998,18992,4366,123673,919,592,124071,690,19169,2826,1,35616,0.0010000000000000009
795999,10706,-1720,118681,23738,-3832,125544,444,19122,2826,1,35617,0.0010010000000000296
797000,10496,-453,121894,-4999,-42,119099,750,19173,1818,0,35618,0.0010009999999999186
797998,25769,-6349,125929,-17175,-3494,124126,750,19155,3072,0,35619,0.0009980000000000544
798998,7467,7817,124278,43514,5025,114356,676,19142,2769,1,35620,0.0010000000000000009
799998,1282,-1671,124644,-12970,-1860,125788,944,19199,3866,1,35621,0.0010000000000000009
801000,3259,-3127,121161,-29903,-3326,118507,612,19199,2507,0,35622,0.0010019999999999474
801998,12000,13545,125626,16935,11593,119880,532,19136,2507,0,35623,0.0009980000000000544
802998,13874,9679,121943,8353,11563,107267,819,19156,2179,1,35624,0.0010000000000000009
803998,3428,745,125277,-15527,2625,132436,819,19168,3354,1,35625,0.0010000000000000009
804998,6352,-17313,121033,-4366,-21829,130343,603,19155,2470,0,35626,0.0010000000000000009
806001,1018,10935,128244,-199,17922,117376,806,19171,3301,0,35627,0.0010029999999999761
806999,3054,16362,129742,-18369,8503,129988,689,19171,2822,1,35628,0.0009979999999999434
807998,-1602,1188,127418,-8071,-6546,129238,437,19123,2822,1,35629,0.0009990000000000832
808998,5837,-10797,130680,-2053,1907,134626,744,19167,1790,0,35630,0.0010000000000000009
809998,8295,4644,132911,-14866,4752,126207,744,19162,3047,0,35631,0.0010000000000000009
810998,6689,1641,130754,9391,3860,134682,670,19146,2744,1,35632,0.0010000000000000009
811998,3780,460,134586,-13323,-7787,142169,762,19193,3121,1,35633,0.0010000000000000009
813000,11624,-4040,132275,-1202,-1987,134007,607,19139,2486,0,35634,0.0010019999999999474
813998,9501,903,131642,9532,-5025,135248,546,19139,2486,0,35635,0.0009980000000000544
814998,6585,-1413,133477,56,-184,127175,803,19152,2236,1,35636,0.0010000000000000009
815998,8323,-1923,129016,-8842,-6252,133150,803,19156,3289,1,35637,0.0010000000000000009
816998,14377,-3784,131015,15579,-745,134365,571,19161,2339,0,35638,0.0010000000000000009
817999,11970,377,126217,-3015,-7978,126964,799,19180,3272,0,35639,0.0010009999999999186
818998,13675,-8675,122136,9033,1679,117405,685,19130,2806,1,35640,0.0009990000000000832
819998,16048,18241,126228,22276,5779,126011,475,19130,2806,1,35641,0.0010000000000000009
821000,13429,-24881,116445,-3107,-18279,124132,739,19173,1945,0,35642,0.0010019999999999474
822000,14962,10011,124760,-13041,9917,113922,739,19153,3027,0,35643,0.0010000000000000009
822998,8997,-6164,122551,48315,-6992,127620,663,19156,2715,1,35644,0.0009980000000000544
823998,-3155,11908,123286,-28938,10427,109179,944,19213,3866,1,35645,0.0010000000000000009
825001,10610,-11437,122091,-16353,-16931,138362,609,19142,2494,0,35646,0.0010029999999999761
825998,6331,4151,117266,16609,13663,105812,608,19142,2494,0,35647,0.0009970000000000256
826998,17227,31756,124493,48,26914,107866,807,19160,2490,1,35648,0.0010000000000000009
827998,4225,-11930,122631,-9720,-13759,130038,807,19152,3305,1,35649,0.0010000000000000009
828998,7520,-12198,120487,2662,-13761,128711,583,19151,2388,0,35650,0.0010000000000000009
829998,942,-238,130536,-14986,3932,130365,871,19187,3567,0,35651,0.0010000000000000009
831000,2166,30379,130146,-7564,29193,110269,677,19135,2773,1,35652,0.0010019999999999474
832001,-434,-5233,128046,-5916,-16140,147308,456,19135,2773,1,35653,0.0010010000000000296
833001,4764,-11351,129162,-14518,-3401,127210,746,19171,1868,0,35654,0.0010000000000000009
833999,10571,8212,133535,-2540,5475,131273,746,19152,3055,0,35655,0.0009979999999999434
834998,4814,2540,131774,13461,3037,133599,670,19145,2744,1,35656,0.0009989999999999721
835998,5571,-808,133502,-27449,-1718,135294,887,19204,3633,1,35657,0.0010000000000000009
837000,11315,-9042,130898,331,-7169,145778,592,19145,2425,0,35658,0.0010020000000000584
837998,10603,12100,131422,6200,7741,126234,558,19145,2425,0,35659,0.0009979999999999434
838998,8497,-13517,129632,4040,-13890,137139,792,19163,2285,1,35660,0.0010000000000000009
839998,6376,785,133520,-11552,3003,125889,792,19155,3244,1,35661,0.0010000000000000009
840998,18486,-10122,128439,9567,-13358,141505,564,19164,2310,0,35662,0.0010000000000000009
841998,8180,2362,127202,4658,4469,123958,819,19183,3354,0,35663,0.0010000000000000009
842998,17623,5984,123144,1097,3419,122831,673,19134,2756,1,35664,0.0010000000000000009
843998,11829,13,121325,22542,-1146,126742,522,19134,2138,1,35665,0.0010000000000000009
844998,13850,-10483,123259,-468,-9211,122679,732,19165,2138,0,35666,0.0010000000000000009
846000,21361,-3314,124750,-22047,-231,120768,661,19168,2998,0,35667,0.0010020000000000584
846998,5727,15012,123692,44765,11333,112625,661,19151,2707,1,35668,0.0009979999999999434
847998,-2902,-10767,120605,-15015,-12017,130804,922,19208,3776,1,35669,0.0010000000000000009
848998,7672,-3662,120219,-32589,-4441,119829,597,19146,2445,0,35670,0.0010000000000000009
849998,10984,13889,120687,22715,10629,108919,622,19146,2548,0,35671,0.0010000000000000009
850998,13551,26345,125425,7945,28889,108443,785,19160,2548,1,35672,0.0010000000000000009
851998,1040,-16397,122928,-18138,-15268,143974,571,19157,3215,1,35673,0.0010000000000000009
852998,9847,-14890,122831,-5386,-18898,120096,571,19162,2339,0,35674,0.0010000000000000009
853998,1621,20134,130404,-339,15364,122541,857,19191,3510,0,35675,0.0010000000000000009
854998,2185,14289,129127,-10391,12275,123949,672,19136,2752,1,35676,0.0010000000000000009
856000,-2771,-5126,127463,-20768,-16436,141137,445,19174,1823,1,35677,0.0010020000000000584
857000,6312,-13061,131838,-506,1377,131590,716,19174,1823,0,35678,0.0010000000000000009
857998,8570,14660,133533,-454,10729,124310,655,19152,2933,0,35679,0.0009979999999999434
858998,4905,-6311,130139,-2179,-4556,140587,655,19140,2683,1,35680,0.0010000000000000009
859998,3209,1917,134065,-17028,1730,134175,903,19204,3698,1,35681,0.0010000000000000009
861001,15623,-738,130754,10480,-3094,139925,590,19155,2416,0,35682,0.0010030000000000872
861998,7090,2272,130915,12001,1754,126249,571,19157,2339,0,35683,0.0009969999999999146
862998,6695,-9818,132107,-8684,-11980,135938,780,19157,2339,1,35684,0.0010000000000000009
863998,3885,-13334,128811,-4782,-5246,131767,575,19138,3195,1,35685,0.0010000000000000009
864998,17795,7127,129320,22033,9653,128839,575,19160,2355,0,35686,0.0010000000000000009
865998,7778,3090,127483,-6493,-5031,129279,846,19185,3465,0,35687,0.0010000000000000009
866998,15951,-8209,119005,3227,5266,109909,674,19138,2761,1,35688,0.0010000000000000009
867998,12715,10328,125457,36532,-5802,135574,598,19178,2449,1,35689,0.0010000000000000009
868999,12377,-23592,117880,-10241,-12814,117481,712,19178,2449,0,35690,0.0010010000000000296
869998,15999,16845,124860,-12559,13591,114451,677,19148,2916,0,35691,0.0009989999999999721
870998,8502,-5129,122237,46546,730,126396,677,19140,2773,1,35692,0.0010000000000000009
871998,295,15814,123466,-29344,8026,106518,899,19193,3682,1,35693,0.0010000000000000009
872999,5563,-18604,120348,-10438,-20047,143044,607,19145,2486,0,35694,0.0010010000000000296
873998,7156,6426,119076,9264,14499,100462,652,19166,2670,0,35695,0.0009989999999999721
875000,16317,29009,125803,8924,24572,111823,783,19166,2670,1,35696,0.0010020000000000584
876000,2811,-7671,124793,-11024,-14305,130233,571,19157,3207,1,35697,0.0010000000000000009
876999,10526,-15901,122933,1082,-15350,132723,571,19161,2339,0,35698,0.0009989999999999721
878000,-5817,5349,129163,-12101,10952,127591,835,19184,3420,0,35699,0.0010010000000000296
879000,8434,29862,134002,-8557,25586,109321,660,19147,2703,1,35700,0.0010000000000000009
879998,-3172,-6564,124906,999,-18025,147385,470,19176,1925,1,35701,0.0009979999999999434
880998,7995,-8304,131968,-18622,-2100,127553,705,19176,1925,0,35702,0.0010000000000000009
881998,7661,5032,132808,3854,5043,130581,655,19157,2887,0,35703,0.0010000000000000009
882998,6566,-2,133044,11164,-792,132390,655,19150,2683,1,35704,0.0010000000000000009
883998,4260,-6493,134185,-22857,-10677,139371,899,19205,3682,1,35705,0.0010000000000000009
885001,11106,-4541,131386,2914,-2027,141566,583,19143,2388,0,35706,0.0010029999999999761
885998,10665,11077,130105,4706,5051,129189,587,19163,2404,0,35707,0.0009970000000000256
886999,7277,-13337,130672,6466,-12290,130779,777,19163,3182,1,35708,0.0010010000000000296
887998,5501,1243,131328,-11695,2077,131082,560,19147,3182,1,35709,0.0009989999999999721
888998,16149,-10596,129654,9528,-13291,141141,834,19162,2294,0,35710,0.0010000000000000009
890000,5838,3162,126130,1639,7547,119017,834,19193,3416,0,35711,0.0010020000000000584
890998,20049,4768,123320,6878,2706,123045,670,19133,2744,1,35712,0.0009979999999999434
891999,7602,758,120182,19966,-1085,123951,615,19175,2519,1,35713,0.0010010000000000296
893001,19348,-7410,126102,-7987,-6019,122118,701,19175,2871,0,35714,0.0010019999999999474
893998,15742,-4587,125617,-6993,-2426,119881,649,19137,2871,0,35715,0.0009970000000000256
894998,4854,7304,124453,42281,5810,119216,900,19152,2658,1,35716,0.0010000000000000009
896000,-5498,-7904,121782,-29077,-9829,128407,900,19198,3686,1,35717,0.0010019999999999474
896998,6657,7843,119409,-21257,6341,117158,602,19145,2466,0,35718,0.0009980000000000544
897998,10283,11933,121818,18426,10164,111214,659,19163,2699,0,35719,0.0010000000000000009
898999,14000,18962,124581,2153,19117,110736,772,19163,3162,1,35720,0.0010010000000000296
900001,2541,-14906,126046,-10272,-12640,143906,563,19160,3162,1,35721,0.0010019999999999474
900998,10421,-13392,124277,1734,-15731,119757,834,19164,2306,0,35722,0.0009970000000000256
901998,-1519,20432,130391,-12573,18823,121865,834,19180,3416,0,35723,0.0010000000000000009
902998,1585,13454,130955,-7098,4304,126628,666,19141,2728,1,35724,0.0010000000000000009
903998,-907,2027,129567,-18554,-10642,136311,489,19175,2003,1,35725,0.0010000000000000009
905000,8985,-11933,133062,-5563,-1050,134303,694,19157,2842,0,35726,0.0010019999999999474
905998,3793,8219,133306,6928,6160,127072,650,19157,2842,0,35727,0.0009980000000000544
906999,6453,-1637,131235,-14046,-788,136612,891,19155,2662,1,35728,0.0010010000000000296
907998,5851,-2020,132977,-8125,-2193,136232,891,19203,3649,1,35729,0.0009989999999999721
908998,19201,4539,132914,18637,5900,135005,583,19149,2388,0,35730,0.0010000000000000009
909998,5432,1179,130711,-2801,-2179,131210,658,19165,2695,0,35731,0.0010000000000000009
910998,5655,-18017,132770,281,-18534,134858,760,19145,3113,1,35732,0.0010000000000000009
912000,1328,-10110,128685,3470,-3091,136761,543,19145,3113,1,35733,0.0010019999999999474
913000,17370,-505,128613,5523,3375,130655,822,19167,2224,0,35734,0.0010000000000000009
913998,5501,9395,128256,1309,10064,117449,822,19188,3367,0,35735,0.0009980000000000544
914998,20050,-4598,120034,8175,-4702,121428,671,19143,2748,1,35736,0.0010000000000000009
916000,13809,6495,121186,33179,5498,121353,633,19179,2593,1,35737,0.0010019999999999474
916998,11065,-17871,120930,-248,-18467,128997,688,19141,2818,0,35738,0.0009980000000000544
918000,16234,-2277,124043,-22684,7653,113251,631,19141,2818,0,35739,0.0010019999999999474
918998,10842,12602,127054,48171,11090,121743,879,19150,2584,1,35740,0.0009980000000000544
919998,-5393,3060,123445,-17807,-4331,121324,879,19188,3600,1,35741,0.0010000000000000009
921000,8256,-8389,119643,-27919,-9817,123971,596,19151,2441,0,35742,0.0010019999999999474
921998,3597,3129,122832,20614,5644,116420,680,19163,2785,0,35743,0.0009980000000000544
922998,24383,33317,125031,12017,32612,99883,763,19152,3125,1,35744,0.0010000000000000009
923999,1736,2466,125308,-8875,-8845,132638,561,19152,3125,1,35745,0.0010009999999999186
924998,8601,-25842,123608,-13452,-19388,136276,817,19166,2298,0,35746,0.0009990000000000832
925998,-4099,7936,131327,-1277,11793,121905,817,19171,3346,0,35747,0.0010000000000000009
926998,5131,20777,133277,-5974,18347,121895,663,19143,2715,1,35748,0.0010000000000000009
927998,10,2221,128335,-2082,-9453,133758,524,19172,2146,1,35749,0.0010000000000000009
928998,3413,-12936,130508,-18426,-9452,138568,689,19143,2822,0,35750,0.0010000000000000009
930000,13306,10646,135568,-2322,10799,123188,638,19143,2822,0,35751,0.0010019999999999474
930998,3441,5078,135645,19903,1161,137739,865,19150,2613,1,35752,0.0009980000000000544
931998,2523,-6652,134624,-26649,-8682,138826,865,19199,3543,1,35753,0.0010000000000000009
932998,12252,-6472,133835,-327,-5832,136778,571,19154,2339,0,35754,0.0010000000000000009
934000,11692,7584,131116,13659,1767,134662,634,19159,2597,0,35755,0.0010019999999999474
935000,9257,-7351,129584,8490,-8717,125435,760,19134,3113,1,35756,0.0010000000000000009
935998,883,-1990,132780,-18090,1368,133087,516,19134,2113,1,35757,0.0009980000000000544
936998,22486,-16790,129917,6467,-18459,141306,796,19165,2113,0,35758,0.0010000000000000009
937998,87,3544,127035,19079,6865,118780,652,19185,3260,0,35759,0.0010000000000000009
938998,22799,5280,125096,-3779,3730,124079,652,19134,2670,1,35760,0.0010000000000000009
940002,6958,1986,118004,24363,-1572,120689,602,19177,2466,1,35761,0.0010040000000000049
940998,18257,-8281,125820,-8250,-9438,125234,691,19139,2830,0,35762,0.0009959999999999969
941998,20495,-996,124423,-1008,3470,116047,629,19139,2576,0,35763,0.0010000000000000009
942998,-4549,13694,126613,40665,11214,117743,871,19161,2576,1,35764,0.0010000000000000009
943998,-265,-11274,119344,-41614,-11689,118456,576,19178,3567,1,35765,0.0010000000000000009
945000,5270,2684,121317,-2466,1560,123302,576,19153,2359,0,35766,0.0010019999999999474
946000,8972,10703,120825,19381,5785,108076,669,19162,2740,0,35767,0.0010000000000000009
946998,14743,22049,128213,-13643,24682,110327,760,19148,3113,1,35768,0.0009980000000000544
948000,1164,-15874,126165,6085,-14566,149912,544,19163,2228,1,35769,0.0010019999999999474
948998,12927,-13766,126619,821,12890,114568,806,19163,2228,0,35770,0.0009980000000000544
949999,-5056,27509,131878,-20829,13985,120970,654,19170,3301,0,35771,0.0010009999999999186
950998,3366,15638,133408,-2072,2928,129785,654,19145,2679,1,35772,0.0009990000000000832
951998,1355,-2617,128840,-13964,-14512,138067,551,19173,2257,1,35773,0.0010000000000000009
953000,7284,-14464,135461,-6039,-4343,137725,686,19149,2810,0,35774,0.0010019999999999474
953998,5603,8435,133646,11017,5475,125955,639,19156,2617,0,35775,0.0009979999999999434
955000,4824,-2143,133131,-18783,2195,136633,867,19156,2617,1,35776,0.0010020000000000584
955999,4267,8151,134944,-10915,7108,134913,569,19194,3551,1,35777,0.0009989999999999721
956998,21137,-6230,131944,18523,-9648,138981,569,19161,2330,0,35778,0.0009989999999999721
957998,10448,2773,131343,8014,540,125011,646,19158,2646,0,35779,0.0010000000000000009
959003,2648,-8275,131582,-13843,-18524,138279,754,19125,3088,1,35780,0.0010050000000000336
960001,6628,-20524,130134,-1396,-7163,137759,496,19169,2031,1,35781,0.0009980000000000544
961000,15337,10058,131779,17663,14539,126509,788,19169,2031,0,35782,0.0009989999999999721
961998,2888,9974,129078,-9443,1887,123652,650,19164,3227,0,35783,0.0009979999999999434
962999,20055,-10890,120176,6478,-719,112107,650,19145,2662,1,35784,0.0010010000000000296
963998,12777,1596,120539,42480,-6053,138380,639,19180,2617,1,35785,0.0009989999999999721
964998,14072,-23915,118546,-20549,-11542,115641,677,19123,2773,0,35786,0.0010000000000000009
965998,17975,23017,128650,-9786,24946,106789,601,19149,2462,0,35787,0.0010000000000000009
967000,5411,79,124918,50445,-4603,135787,847,19149,2462,1,35788,0.0010020000000000584
968000,-5915,966,122026,-36083,-1889,108801,571,19178,3469,1,35789,0.0010000000000000009
968998,5933,-16730,120654,-6994,-18013,140057,571,19157,2339,0,35790,0.0009979999999999434
969998,5758,12146,120642,16627,23475,98552,654,19167,2679,0,35791,0.0010000000000000009
970998,19196,38435,126145,3414,28782,109267,749,19136,3068,1,35792,0.0010000000000000009
971998,2638,-7891,127436,-12197,-9785,134583,541,19157,2216,1,35793,0.0010000000000000009
972998,11525,-19121,124343,-2542,-17717,132085,778,19157,2216,0,35794,0.0010000000000000009
973999,-8018,5273,132001,-7731,13679,126582,652,19167,3186,0,35795,0.0010010000000000296
974999,11365,25399,134851,-8378,19314,113551,652,19146,2670,1,35796,0.0010000000000000009
975999,-1879,-8818,127234,5501,-16882,144617,617,19187,2527,1,35797,0.0010000000000000009
976998,10080,139,134709,-23910,-1516,130277,685,19134,2806,0,35798,0.0009989999999999721
978026,10360,3385,131791,7629,6634,127926,596,19151,2441,0,35799,0.0010280000000000289
978998,2578,9178,136300,7185,7772,134199,841,19151,3444,1,35800,0.0009719999999999729
979998,5045,-9538,134627,-22830,-13034,139381,568,19184,3444,1,35801,0.0010000000000000009
981000,10636,-4767,133132,4720,-2522,139362,651,19165,2326,0,35802,0.0010020000000000584
981998,13752,8440,131066,15149,1055,130485,651,19162,2666,0,35803,0.0009979999999999434
982999,5130,-7617,129319,2907,-8907,126695,741,19127,3035,1,35804,0.0010010000000000296
984001,8378,-4579,133866,-17328,-1969,132638,480,19162,1966,1,35805,0.0010019999999999474
985000,16903,-12839,131193,15724,-14590,141603,772,19162,3162,0,35806,0.0009990000000000832
985999,3093,6851,127674,8006,10004,114209,647,19178,3162,0,35807,0.0009989999999999721
986998,23835,8948,127651,3758,5654,123377,643,19145,2650,1,35808,0.0009989999999999721
987998,4272,-8600,116046,27677,-13437,124772,643,19185,2634,1,35809,0.0010000000000000009
989000,22809,-5374,122450,-21516,-6026,122345,661,19137,2707,0,35810,0.0010020000000000584
990000,18643,-2134,124930,20274,2496,118865,587,19150,2404,0,35811,0.0010000000000000009
990998,-4455,5827,125932,29471,4148,121991,851,19171,3485,1,35812,0.0009979999999999434
991998,2410,-8037,121459,-51822,-7568,122646,580,19171,3485,1,35813,0.0010000000000000009
992998,2265,9637,121863,19236,8322,115775,652,19150,2376,0,35814,0.0010000000000000009
993998,14875,19000,121401,13381,13812,113015,652,19164,2670,0,35815,0.0010000000000000009
994998,12140,5356,125156,-19631,5702,117169,737,19140,3019,1,35816,0.0010000000000000009
996009,7160,-16062,129617,10265,-26778,147393,509,19163,2085,1,35817,0.0010109999999999841
997000,7408,-9631,125785,7794,14264,114609,786,19154,3219,0,35818,0.0009910000000000752
997998,-11623,31138,132480,-23900,23844,120268,651,19154,3219,0,35819,0.0009979999999999434
998998,7681,7615,132145,-19860,-445,132472,596,19143,2666,1,35820,0.0010000000000000009
1000000,4124,2971,125920,12227,-4983,131676,596,19182,2441,1,35821,0.0010020000000000584
1001000,12107,-9787,135700,-22416,-9687,140402,651,19132,2666,0,35822,0.0009999999999998899
1001999,7150,-3937,131459,6112,-34,123387,574,19159,2351,0,35823,0.0009989999999999721
1003000,3929,4267,139514,-5888,1654,145886,839,19177,3436,1,35824,0.0010010000000000296
1003998,8491,-204,136313,-13639,-7643,135560,568,19177,3436,1,35825,0.0009980000000000544
1004998,6564,6213,134376,11864,1520,133740,659,19155,2326,0,35826,0.001000000000000112
1005998,8754,-625,128559,-1456,-7798,135294,659,19165,2699,0,35827,0.0009999999999998899
1006999,10609,-6837,131167,-8722,-3719,124115,720,19122,2949,1,35828,0.0010010000000000296
1007999,13057,-6308,132467,15105,-5979,142279,454,19169,1859,1,35829,0.0009999999999998899
1009000,16154,-3674,131607,-180,1901,124342,764,19171,3129,0,35830,0.0010010000000000296
1009998,7641,-337,124930,-4706,-6983,127796,655,19171,3129,0,35831,0.0009980000000000544
1010999,14909,-350,128615,25042,4068,120827,672,19146,2683,1,35832,0.0010010000000000296
1011998,14299,-769,116938,8581,-13271,126968,672,19183,2752,1,35833,0.0009989999999999721
1013000,17658,-7134,125536,-22368,3476,117865,651,19126,2666,0,35834,0.0010019999999999474
1013998,16926,6603,125181,25415,4103,117153,555,19165,2273,0,35835,0.0009980000000000544
1014998,4463,-3175,122720,12571,139,123012,835,19157,3420,1,35836,0.0009999999999998899
1015998,-6584,4998,123738,-33764,-1858,119948,566,19157,3420,1,35837,0.001000000000000112
1016998,10862,-10327,121300,11000,-5802,123803,674,19160,2318,0,35838,0.0009999999999998899
1017998,13099,27660,120394,8043,34314,104221,674,19169,2761,0,35839,0.001000000000000112
1018999,11149,6727,125403,-3341,-7052,122622,734,19129,3006,1,35840,0.0010010000000000296
1020000,4352,-11523,123747,-14420,-6156,126646,485,19164,1986,1,35841,0.0010010000000000296
1020998,6788,-3091,130708,-717,-5694,133931,764,19159,3129,0,35842,0.0009979999999998324
1021998,-3501,12846,132502,-8769,18442,116067,648,19159,2654,0,35843,0.001000000000000112
1022998,4525,14905,133545,-7521,3297,132586,633,19153,2654,1,35844,0.0009999999999998899
1023998,-132,-10744,126834,-11780,-9289,135784,668,19183,2593,1,35845,0.001000000000000112
1025000,11710,11387,133388,-9905,8522,126052,668,19121,2736,0,35846,0.0010019999999999474
1026000,7993,-5392,134286,11136,-1784,137526,553,19153,2265,0,35847,0.001000000000000112
1027000,5751,4308,136000,-7994,2767,129059,818,19167,3350,1,35848,0.0009999999999998899
1027998,3689,-11828,135288,-15130,-10890,147875,557,19167,2281,1,35849,0.0009980000000000544
1029001,11504,6486,134678,8292,6018,128375,672,19163,2281,0,35850,0.0010030000000000872
1029998,9988,2353,129294,8357,-4388,134770,726,19175,2752,0,35851,0.0009969999999999146
1031000,7074,-8562,131732,-6901,-13021,130745,726,19106,2973,1,35852,0.0010019999999999474
1032000,11070,-1073,133694,190,3573,131793,513,19174,2101,1,35853,0.001000000000000112
1033000,15019,-6510,131282,14607,-5605,136072,745,19156,3051,0,35854,0.0009999999999998899
1034000,8138,-1334,125539,-2187,-1092,118333,639,19156,2617,0,35855,0.001000000000000112
1035007,17216,10440,128070,11363,8335,119608,684,19147,2617,1,35856,0.0010069999999999801
1035999,14367,-6023,116951,24374,-12065,128704,656,19185,2801,1,35857,0.0009919999999998819
1036999,18711,-9325,121843,-20597,-8971,120098,656,19123,2687,0,35858,0.001000000000000112
1037998,12707,3294,124543,17427,4495,116441,546,19151,2236,0,35859,0.0009989999999999721
1038998,-619,1477,123416,22104,489,123022,815,19163,3338,1,35860,0.0009999999999998899
1039998,887,1650,122799,-45581,786,128912,552,19161,2261,1,35861,0.001000000000000112
1041001,8344,-7257,120899,20185,-8416,118303,737,19161,2261,0,35862,0.0010029999999998651
1041998,9091,27838,119462,13639,22680,99996,730,19175,3019,0,35863,0.0009970000000001367
1042998,12611,12661,127932,-19364,13293,131424,730,19118,2990,1,35864,0.0009999999999998899
1043998,5701,-23235,124538,6179,-13830,134492,451,19167,1847,1,35865,0.001000000000000112
1044998,7004,-4190,129603,1449,10837,125715,744,19153,3047,0,35866,0.0009999999999998899
1045998,-5881,17205,131739,-23763,19257,115556,634,19151,2597,0,35867,0.001000000000000112
1046998,3053,15309,130464,-1420,-1807,135776,616,19151,2597,1,35868,0.0009999999999998899
1048001,4117,-11949,126153,-2420,-13407,139110,652,19181,2523,1,35869,0.0010030000000000872
1049000,13233,3839,133862,-10287,9108,123640,652,19128,2670,0,35870,0.0009989999999999721
1049999,6585,2961,135292,15415,-2816,138035,533,19157,2183,0,35871,0.0009989999999999721
1051001,4046,-282,134931,-24600,-3216,134070,811,19159,3322,1,35872,0.0010019999999999474
1051998,8748,-3047,134803,-2775,-2923,142406,559,19161,2289,1,35873,0.0009970000000001367
1052999,10580,2401,133969,8460,2871,132371,672,19161,2289,0,35874,0.0010010000000000296
1053998,13587,2982,127982,-1796,-7030,127549,721,19167,2752,0,35875,0.0009989999999999721
1054999,6296,-7349,132753,-6642,-9037,135909,721,19121,2953,1,35876,0.0010010000000000296
1056000,13605,-8373,133124,8035,-10421,137006,509,19170,2085,1,35877,0.0010010000000000296
1056998,11938,-4183,130907,1500,2212,125788,739,19152,3027,0,35878,0.0009979999999998324
1057998,11887,8940,128383,-2780,-5912,125469,629,19153,2576,0,35879,0.001000000000000112
1058998,17540,4646,126094,22735,1979,121807,694,19153,2576,1,35880,0.0009999999999998899
1060000,12451,-288,117411,6462,-9615,127853,640,19187,2842,1,35881,0.0010020000000001694
1060999,19132,-14331,123267,-26097,-2119,118623,640,19132,2621,0,35882,0.0009989999999999721
1061998,13655,7810,124303,32564,7333,115344,542,19154,2220,0,35883,0.0009989999999999721
1063000,4001,-2394,123368,8852,-4424,128103,819,19159,3354,1,35884,0.0010019999999999474
1063998,-2125,-3110,121351,-41871,881,117872,550,19163,2253,1,35885,0.0009980000000000544
1064998,9113,-1103,123635,11959,1174,120968,744,19163,2253,0,35886,0.0009999999999998899
1065999,14824,23965,120645,18377,22476,107514,712,19161,3047,0,35887,0.0010010000000000296
1066998,10424,3681,125146,-15765,-6948,122148,712,19112,2916,1,35888,0.0009989999999999721
1067999,4993,-19224,123330,-8950,-12990,134096,456,19165,1868,1,35889,0.0010010000000000296
1068998,6834,3895,131075,-782,6162,124297,747,19157,3059,0,35890,0.0009989999999999721
1070000,-2673,17319,129766,-11525,17523,121177,640,19154,2621,1,35891,0.0010020000000001694
1070998,921,10968,133181,-9934,1283,130647,640,19154,2621,1,35892,0.0009979999999998324
1072000,6637,-15483,125156,-11141,-7498,139270,643,19187,2621,1,35893,0.0010019999999999474
1072998,11784,5114,133170,-10849,3331,125564,546,19130,2634,0,35894,0.0009980000000000544
1073998,6721,2237,132496,9180,1119,133893,546,19153,2236,0,35895,0.001000000000000112
1075002,3570,928,135752,-8157,-1608,135984,810,19162,3318,1,35896,0.0010040000000000049
1075998,6701,-2298,134719,-15920,-1642,139030,548,19160,2244,1,35897,0.0009959999999999969
1076998,14228,-3596,133523,10085,-5463,137332,690,19160,2826,0,35898,0.0009999999999998899
1077999,9057,9386,128788,6294,7032,127672,712,19174,2826,0,35899,0.0010010000000000296
1079000,6290,-9373,130961,-13024,-12324,136130,533,19112,2916,1,35900,0.0010010000000000296
1079999,12278,-7717,133127,3235,-3487,130874,533,19168,2183,1,35901,0.0009989999999999721
1081000,14985,-1624,131598,14851,-3761,135258,725,19159,2969,0,35902,0.0010010000000000296
1081999,10029,-5359,123985,-6335,-5701,123782,635,19147,2601,0,35903,0.0009989999999999721
1082998,17317,18100,126940,12219,15973,110751,831,19197,3404,1,35904,0.0009989999999999721
1084001,16090,-7310,115981,25365,-14142,134832,637,19197,3404,1,35905,0.0010030000000000872
1084998,18999,-6607,122769,-22825,-5410,113818,603,19135,2609,0,35906,0.0009969999999999146
1085998,15138,1681,126690,17854,2685,121695,603,19157,2470,0,35907,0.001000000000000112
1087000,680,6021,122236,24881,4061,112517,801,19159,3281,1,35908,0.0010019999999999474
1087998,4166,-5784,124871,-40296,-5352,134767,554,19162,2269,1,35909,0.0009980000000000544
1088998,5425,-8475,117822,14791,-11802,112268,781,19176,3199,0,35910,0.0009999999999998899
1089998,12338,26770,119702,7266,24113,104429,716,19176,3199,1,35911,0.001000000000000112
1090998,10626,13013,126995,-9933,14053,127106,481,19133,2933,1,35912,0.0009999999999998899
1091998,5061,-18896,122447,1647,-18434,137793,481,19171,1970,1,35913,0.001000000000000112
1092998,6695,-7189,129597,-4040,6893,124819,728,19154,2982,0,35914,0.0009999999999998899
1093998,-4931,25087,131157,-16455,24152,114671,632,19147,2588,1,35915,0.001000000000000112
1094998,4202,10470,131013,-1844,-10022,141539,662,19187,2711,1,35916,0.0009999999999998899
1096000,2937,-14598,128744,-13222,-7458,132723,636,19187,2711,1,35917,0.0010019999999999474
1097000,11536,3183,133574,-10501,5034,130254,565,19127,2605,0,35918,0.001000000000000112
1097998,6442,4644,134050,17586,9370,131253,565,19158,2314,0,35919,0.0009980000000000544
1098999,4279,-2327,134684,-23138,-6633,141556,785,19158,3215,1,35920,0.0010010000000000296
1099999,11515,-10883,132597,-2070,-3928,139359,540,19165,2212,0,35921,0.0009999999999998899
1101000,10987,8229,133537,6278,2881,130613,784,19181,3211,0,35922,0.0010010000000000296
1101998,12189,99,127455,3553,-7885,131919,703,19181,3211,0,35923,0.0009980000000000544
1102998,5514,-5534,131462,-9097,-4139,129133,560,19125,2879,1,35924,0.0009999999999998899
1103998,15732,-7935,132783,5222,-12861,142188,560,19175,2294,1,35925,0.001000000000000112
1104998,12577,-1037,129162,4236,1310,120546,712,19153,2916,0,35926,0.0009999999999998899
1105998,13064,7255,126917,3518,982,125603,625,19152,2560,1,35927,0.001000000000000112
1106998,16972,-270,123108,14846,-1352,123243,844,19198,3457,1,35928,0.0009999999999998899
1108000,9754,1032,117608,510,-5435,121978,621,19198,3457,0,35929,0.0010019999999999474
1108998,22488,-11283,122518,-17419,-2391,123152,621,19134,2543,0,35930,0.0009980000000000544
1109998,12145,7489,125207,39607,8375,112754,621,19162,2543,0,35931,0.001000000000000112
1110998,3093,-2825,122510,-6758,-8203,128075,792,19148,3244,1,35932,0.0009999999999998899
1111998,1240,-2763,122433,-39595,-4948,117572,532,19164,2179,1,35933,0.001000000000000112
1112998,8313,11966,124053,15101,7033,119978,788,19174,3227,0,35934,0.0009999999999998899
1113998,15637,18641,121171,14145,20089,109817,701,19174,2871,1,35935,0.001000000000000112
1114998,6020,1175,125946,-20477,-7680,122897,504,19125,2871,1,35936,0.0009999999999998899
1115998,6112,-17940,122896,-5859,-16157,136198,716,19173,2064,1,35937,0.001000000000000112
1116998,4695,6399,128765,-1234,12613,120622,716,19150,2933,0,35938,0.0009999999999998899
1117998,850,16138,131238,-13652,13954,123997,627,19153,2568,1,35939,0.001000000000000112
1118999,-149,4122,129455,-12939,-4320,131230,765,19191,3133,1,35940,0.0010009999999998076
1120000,4370,-9224,129009,-4879,-9167,138698,620,19191,2539,0,35941,0.0010010000000000296
1120999,11570,3198,132108,-15984,5277,127071,632,19138,2539,0,35942,0.0009989999999999721
1121998,5302,3548,132345,11264,889,133556,780,19168,2588,1,35943,0.0009990000000001942
1122998,3718,-4863,135272,-10845,-4765,140162,780,19162,3195,1,35944,0.0009999999999998899
1124001,11219,-1397,131369,-15042,-1518,136718,538,19165,2203,0,35945,0.0010030000000000872
1124998,10791,2724,131527,10470,-936,135713,799,19173,3272,0,35946,0.0009969999999999146
1125998,9507,-1056,128078,3031,4541,129506,693,19173,2838,1,35947,0.001000000000000112
1127001,7133,-9597,131548,-13489,-12986,134000,656,19124,2838,1,35948,0.0010029999999998651
1127998,13464,-3675,131268,7702,-1649,133040,686,19193,2687,0,35949,0.0009970000000001367
1128998,13434,1223,129554,10137,-532,131251,686,19147,2810,0,35950,0.0009999999999998899
1129998,10244,-10499,121082,-8853,-12025,125223,620,19153,2539,1,35951,0.001000000000000112
1130998,19042,17897,129058,18418,17254,111959,877,19192,3592,1,35952,0.0009999999999998899
1131998,13281,-10473,113929,20092,-15618,136472,637,19138,2609,0,35953,0.001000000000000112
1133010,16229,4756,124197,-32720,7434,111216,641,19138,2609,0,35954,0.0010119999999997908
1133998,11288,-2846,123294,24478,-4894,129486,769,19162,2625,1,35955,0.0009879999999999889
1135000,1586,5812,123363,15582,6343,107392,769,19128,3150,1,35956,0.0010020000000001694
1136000,6500,-5169,124128,-37063,-6634,141136,489,19167,2003,0,35957,0.0009999999999998899
1137000,6090,-11467,118365,18948,-13153,104090,813,19185,3330,0,35958,0.001000000000000112
1137998,16569,36571,121341,593,35063,107454,703,19128,2879,1,35959,0.0009979999999998324
1138998,6989,2013,126365,-4258,3276,130941,601,19128,2879,1,35960,0.001000000000000112
1139998,5889,-12776,123630,-7722,-10929,131943,690,19176,2462,0,35961,0.0009999999999998899
1140998,4612,-8031,129160,-525,2873,130928,690,19133,2826,0,35962,0.001000000000000112
1141999,-1534,23668,130384,-14097,31861,108747,589,19151,2412,1,35963,0.0010010000000000296
1143001,4243,10727,128249,-1631,-19067,146121,797,19193,3264,1,35964,0.0010019999999999474
1143998,909,-19755,127924,-16326,-1016,127791,622,19138,2548,0,35965,0.0009969999999999146
1144999,13431,11045,134724,-3555,6853,131036,653,19138,2548,0,35966,0.0010010000000000296
1145998,4616,-3075,131135,13182,6040,134901,763,19161,2674,1,35967,0.0009989999999999721
1146998,6731,3499,135063,-26980,-7069,136733,763,19143,3125,1,35968,0.001000000000000112
1148000,10650,-15288,131186,3655,-5095,142818,500,19170,2048,0,35969,0.0010019999999999474
1148998,11940,11558,131856,7860,4717,128137,788,19184,3227,0,35970,0.0009980000000000544
1149998,10409,-8089,129822,5071,-11413,132547,695,19130,2847,1,35971,0.0009999999999998899
1150998,5300,-3673,131377,-14039,-386,130533,672,19130,2847,1,35972,0.001000000000000112
1151998,16855,-5788,131732,12068,-8970,140938,684,19177,2752,0,35973,0.0009999999999998899
1152998,8982,-3934,126142,-103,3344,121460,684,19143,2801,0,35974,0.001000000000000112
1154008,17840,9068,124239,6184,3346,122594,603,19158,2470,1,35975,0.0010099999999999554
1155000,11681,-5215,120554,24733,-7779,126252,849,19204,3477,1,35976,0.000992000000000104
1155999,10414,-146,119867,-12529,-3257,120604,613,19143,2511,0,35977,0.0009989999999999721
1156998,24884,-8954,124691,-6188,-2390,120983,711,19143,2511,0,35978,0.0009989999999999721
1157998,6703,12568,126062,44646,10611,115584,768,19163,2912,1,35979,0.0009999999999998899
1158998,3767,-677,123990,-32207,-15113,126343,768,19115,3146,1,35980,0.001000000000000112
1159998,2617,-5280,122228,-17126,3504,119508,478,19169,1958,0,35981,0.0009999999999998899
1160998,11598,11963,122548,18872,8954,120342,793,19178,3248,0,35982,0.001000000000000112
1162001,16647,15767,119353,2242,17735,103836,693,19131,2838,1,35983,0.0010029999999998651
1163000,3251,957,125318,-13968,-9372,130345,634,19131,2597,1,35984,0.0009990000000001942
1164000,7947,-22462,122076,-4145,-18232,135986,695,19176,2597,0,35985,0.0009999999999998899
1164999,2552,15787,129334,-2314,20622,115444,569,19132,2847,0,35986,0.0009989999999999721
1165998,1290,15782,131964,-14347,8250,125955,569,19160,2330,1,35987,0.0009989999999999721
1166998,1479,5688,126629,-21027,-4959,128925,813,19197,3330,1,35988,0.001000000000000112
1167998,2838,-9286,132084,5324,-7439,140296,613,19140,2511,0,35989,0.0009999999999998899
1168998,7601,-272,133407,-9970,2813,128113,673,19140,2756,0,35990,0.001000000000000112
1169998,5809,4506,131169,-661,2115,130396,760,19166,2756,1,35991,0.0009999999999998899
1170999,3929,-1679,135579,-8117,-1428,140884,481,19138,3113,1,35992,0.0010010000000000296
1171998,16871,-2606,130719,-8975,-3128,137165,481,19171,1970,0,35993,0.0009989999999999721
1172998,8844,-2174,129050,6443,-3785,134103,769,19183,3150,0,35994,0.001000000000000112
1173998,7025,-3532,132800,2956,-3980,131356,683,19134,2797,1,35995,0.0009999999999998899
1174999,6198,-12701,127873,-12631,-12928,134993,669,19177,2740,1,35996,0.0010010000000000296
1175998,12876,3027,131440,9696,2575,131685,673,19177,2740,0,35997,0.0009989999999999721
1177000,12142,2045,127466,1993,-81,130399,588,19138,2756,0,35998,0.0010020000000001694
1178000,12704,-8801,118595,-5765,-11562,124656,588,19158,2408,1,35999,0.0009999999999998899
1178998,18515,18410,126551,25341,17572,114086,835,19202,3420,1,36000,0.0009980000000000544
1179998,15402,-20616,114133,14607,-18850,135792,608,19144,2490,0,36001,0.0009999999999998899
1180998,15196,1741,124624,-34231,3814,114405,683,19162,2797,0,36002,0.001000000000000112
1181998,10803,-4448,121249,34731,-7317,125814,757,19162,2797,1,36003,0.0009999999999998899
1183000,-68,13456,123006,2579,13854,108436,441,19114,3100,1,36004,0.0010020000000001694
1183999,6940,-5956,122272,-33901,-7609,139187,441,19168,1806,0,36005,0.0009989999999999721
1184998,6744,-5144,117866,14200,-7427,101848,767,19178,3141,0,36006,0.0009989999999999721
1185998,19689,32646,123025,4209,34654,111716,688,19134,2818,1,36007,0.0009999999999998899
1186998,3935,3398,126676,-2208,-11870,130756,652,19180,2670,1,36008,0.001000000000000112
1187998,7950,-17693,121030,-12549,-16524,136012,685,19180,2670,0,36009,0.0009999999999998899
1189000,-1620,-4487,131517,-3749,13916,124298,548,19120,2806,0,36010,0.0010020000000001694
1189998,1466,30419,130953,-14497,24515,113786,548,19163,2244,1,36011,0.0009979999999998324
1190998,1424,918,128022,-3404,-18252,143602,828,19200,3391,1,36012,0.001000000000000112
1191998,1896,-14442,129998,-16825,1251,128783,624,19145,2556,0,36013,0.0009999999999998899
1192998,13185,3215,133537,6509,928,130345,692,19163,2834,0,36014,0.001000000000000112
1193998,2807,10450,133227,7848,10254,132006,757,19163,2834,1,36015,0.0009999999999998899
1195004,5404,-2842,134673,-25776,-17660,144541,469,19128,3100,1,36016,0.0010060000000000624
1196001,11140,-15346,130438,6649,5664,135691,469,19172,1921,0,36017,0.0009969999999999146
1196998,12567,14441,132584,8236,-274,131255,757,19179,3100,0,36018,0.0009970000000001367
1197998,7251,-12718,127750,2819,-8328,127984,676,19139,2769,1,36019,0.0009999999999998899
1198998,4498,-707,133560,-13648,1164,132460,673,19174,2756,1,36020,0.001000000000000112
1199998,19238,-13439,127988,12722,-9452,141660,670,19174,2756,0,36021,0.0009999999999998899
1201000,7572,848,124487,2485,6361,115272,575,19130,2744,0,36022,0.0010019999999999474
1201998,18542,4024,122964,8701,1659,125838,575,19155,2355,1,36023,0.0009980000000000544
1203000,9070,-236,118522,21326,-2856,121052,823,19197,3371,1,36024,0.0010019999999999474
1203998,13535,-2494,125554,-14775,-4454,122643,601,19145,2462,0,36025,0.0009980000000000544
1204998,25406,-8438,124540,6496,-3268,120066,688,19166,2818,0,36026,0.001000000000000112
1205998,387,12006,124276,37110,10153,119797,755,19166,3092,1,36027,0.0009999999999998899
1206998,-1346,-6561,120880,-45016,-13614,127174,441,19117,3092,1,36028,0.001000000000000112
1207998,5888,1970,120405,-1565,9186,113940,756,19167,1806,0,36029,0.0009999999999998899
1208998,12135,9794,120910,20185,5142,121788,756,19166,3096,0,36030,0.001000000000000112
1209998,14472,14718,122733,-6662,18654,100914,680,19132,2785,1,36031,0.0009999999999998899
1210998,2211,-1893,125284,-4862,-12341,135740,672,19175,2752,1,36032,0.001000000000000112
1212000,7161,-19771,121851,1259,-11737,132740,688,19175,2818,0,36033,0.0010019999999999474
1213000,1374,22314,130862,-13513,19538,113225,530,19121,2818,0,36034,0.0009999999999998899
1213998,1962,14578,132979,-5293,10899,131613,801,19160,2171,1,36035,0.0009980000000000544
1214998,615,3206,129195,-19005,-4822,128863,801,19202,3281,1,36036,0.001000000000000112
1215998,5607,-17251,132239,15,-16081,143470,600,19144,2457,0,36037,0.0009999999999998899
1216998,3541,7858,133903,3649,12012,124433,685,19166,2806,0,36038,0.001000000000000112
1217998,5884,2287,131267,-8097,-535,132638,750,19166,3072,1,36039,0.0009999999999998899
1219000,5557,794,133219,-15351,-734,139110,448,19124,3072,1,36040,0.0010019999999999474
1219998,19019,269,130704,11836,66,131289,741,19170,1835,0,36041,0.0009980000000000544
1220999,10887,1821,132256,-2751,-2994,134230,741,19174,3035,0,36042,0.0010010000000000296
1221999,5430,-10873,131211,4090,-11871,132230,675,19135,2765,1,36043,0.0009999999999998899
1222998,1596,-16029,131567,-3219,-15550,140780,712,19176,2916,1,36044,0.0009990000000001942
1224000,13377,3259,129347,-713,2700,130082,673,19137,2756,0,36045,0.0010019999999999474
1225000,8978,9685,127565,606,10228,123564,554,19137,2756,0,36046,0.0009999999999998899
1225998,18124,-1296,119490,2368,-4281,124476,814,19163,2269,1,36047,0.0009980000000000544
1227000,15438,4629,120781,22623,3313,114193,814,19178,3334,1,36048,0.0010019999999999474
1228000,12220,-20422,119304,15283,-20890,135826,595,19148,2437,0,36049,0.001000000000000112
1228998,16531,-4894,122353,-39855,-914,117244,701,19168,2871,0,36050,0.0009980000000000544
1229998,8110,11916,126741,37452,9622,129684,740,19112,3031,1,36051,0.0009999999999998899
1230998,1113,4819,122056,6631,3340,111692,493,19112,3031,1,36052,0.001000000000000112
1231998,4555,-5918,120286,-40359,-7456,132056,745,19170,2019,0,36053,0.0009999999999998899
1232998,7219,-2464,119465,11078,-4186,107062,745,19165,3051,0,36054,0.001000000000000112
1233998,22888,31779,124765,14570,34584,102149,676,19133,2769,1,36055,0.0009999999999998899
1235000,2290,4916,127476,-4313,-18728,139888,651,19181,2666,1,36056,0.0010019999999999474
1235998,8875,-24539,120444,-15757,-13724,129303,669,19125,2740,0,36057,0.0009980000000000544
1236998,-4462,6010,130772,-3603,13174,127660,536,19125,2740,0,36058,0.001000000000000112
1237998,4610,20744,130655,-10695,18165,115901,792,19164,2195,1,36059,0.0009999999999998899
1238999,-245,8655,127975,-1952,-9574,136963,792,19198,3244,1,36060,0.0010010000000000296
1239998,5801,-14831,132124,-22990,-11261,136722,591,19151,2421,0,36061,0.0009989999999999721
1240998,11515,10546,133540,9337,10809,122898,671,19164,2748,0,36062,0.001000000000000112
1241998,3984,4972,134402,8363,-813,143152,741,19118,3035,1,36063,0.0009999999999998899
1242999,2941,-7047,134773,-24824,-9230,135344,430,19118,3035,1,36064,0.0010010000000000296
1243998,10217,-3208,131628,3383,467,139095,722,19173,1761,0,36065,0.0009989999999999721
1244998,14431,5036,132405,15595,149,130660,722,19173,2957,0,36066,0.001000000000000112
1245998,10589,-3994,129839,5063,-3023,123006,664,19139,2720,1,36067,0.0009999999999998899
1246998,1395,-7621,133283,-19065,-10717,139254,740,19177,3031,1,36068,0.001000000000000112
1248000,18063,-4944,129867,15895,-7532,135485,660,19122,2703,0,36069,0.0010019999999999474
1249001,3038,-4968,125562,12307,-62,123883,528,19122,2703,0,36070,0.0010010000000000296
1250008,18370,10019,125515,-2690,14716,117124,794,19164,2163,1,36071,0.0010069999999999801
1251000,12613,-3112,119591,31785,-11318,124773,794,19180,3252,1,36072,0.0009919999999998819
1251998,13692,-6350,123772,-15253,-6159,123343,598,19145,2449,0,36073,0.0009980000000000544
1252998,24446,-3169,123712,3443,3943,113589,732,19171,2998,0,36074,0.0009999999999998899
1253998,-1172,4934,123071,42210,11735,123633,742,19121,3039,1,36075,0.001000000000000112
1254998,-1119,-6159,121189,-50216,-13864,125196,498,19121,2040,1,36076,0.0009999999999998899
1255998,6986,-3852,117357,6082,4317,116602,733,19177,2040,0,36077,0.001000000000000112
1256998,6510,18830,120475,22670,16119,118027,666,19163,3002,0,36078,0.0009999999999998899
1257998,17014,10141,123458,-18977,10729,100053,666,19145,2728,1,36079,0.001000000000000112
1259001,462,-2082,126447,7938,-10652,136948,668,19182,2736,1,36080,0.0010030000000000872
1259998,11661,-19110,125376,1400,-10462,134882,660,19135,2703,0,36081,0.0009969999999999146
1261000,-6188,27466,127406,-17972,30090,108129,568,19135,2326,0,36082,0.0010019999999999474
1262000,-2187,15136,133518,-15317,7632,135660,789,19168,2326,1,36083,0.001000000000000112
1262998,6416,-3266,125515,-1833,-8991,126442,588,19191,3232,1,36084,0.0009979999999998324
1263998,5640,-5009,136162,8454,-4970,138594,588,19151,2408,0,36085,0.001000000000000112
1264999,11379,-368,133728,-16624,2063,128974,688,19165,2818,0,36086,0.0010010000000000296
1265998,5466,149,132160,9513,-562,131412,730,19117,2990,1,36087,0.0009989999999999721
1267001,396,6046,137238,-16567,380,145203,432,19176,1769,1,36088,0.0010030000000000872
1268000,14161,-4433,131036,-1675,-4055,131636,717,19176,1769,0,36089,0.0009989999999999721
1269000,1839,3388,132968,12928,-747,133860,667,19178,2937,0,36090,0.0009999999999998899
1270000,13508,-11009,132656,-2561,-13197,131593,667,19138,2732,1,36091,0.001000000000000112
1271000,4836,-5374,126474,-5004,-3219,129790,788,19183,3227,1,36092,0.0009999999999998899
1271999,18696,3678,132912,13315,2520,135505,658,19123,2695,0,36093,0.0009989999999999721
1273002,6585,-903,123875,-5286,-2033,124693,528,19159,2163,0,36094,0.0010030000000000872
1274002,16277,-6119,122895,11240,-3975,117212,786,19159,2163,1,36095,0.0009999999999998899
1274998,10307,8266,123777,23144,1380,130206,579,19166,3219,1,36096,0.0009959999999999969
1275998,13825,-21463,120905,-6237,-15618,119883,579,19155,2371,0,36097,0.001000000000000112
1276998,18287,14777,128399,-13288,15863,115503,752,19166,3080,0,36098,0.0009999999999998899
1277998,7846,-6948,120079,46252,-7370,117163,728,19117,2982,1,36099,0.001000000000000112
1278998,-4912,12538,123960,-29002,10790,122648,577,19171,2363,1,36100,0.0009999999999998899
1279998,7213,-15750,119577,-13365,-17393,125205,732,19171,2363,0,36101,0.001000000000000112
1280998,7708,16894,118734,10418,15412,99250,669,19158,2998,0,36102,0.0009999999999998899
1281998,14847,19985,126647,7642,-3802,125482,669,19143,2740,1,36103,0.001000000000000112
1282998,769,-15024,123217,-15469,-13449,127304,717,19181,2937,1,36104,0.0009999999999998899
1284000,11557,-9785,125238,-356,-5898,134876,662,19134,2711,0,36105,0.0010020000000001694
1285000,-6137,11682,130606,-7826,25721,111881,594,19165,2433,0,36106,0.0009999999999998899
1286001,8989,25855,131721,-4950,4698,130920,764,19165,2433,1,36107,0.0010010000000000296
1286998,-4974,-9554,128432,-9152,-19002,137247,572,19192,3129,1,36108,0.0009969999999999146
1287998,13550,2705,133336,-9863,10308,125673,572,19154,2343,0,36109,0.001000000000000112
1288998,8131,-1138,133153,11174,-3036,135247,717,19168,2937,0,36110,0.0009999999999998899
1289999,4991,3751,133151,-11413,3854,131096,731,19124,2994,1,36111,0.0010010000000000296
1290998,3048,-8690,134974,-12963,-12495,146300,474,19174,1941,1,36112,0.0009989999999999721
1291998,11144,2780,132836,9775,8974,129264,696,19174,1941,0,36113,0.001000000000000112
1293000,8959,7622,132311,8089,-6528,133735,646,19172,2851,0,36114,0.0010019999999999474
1293998,8542,-12971,131127,-8501,-13846,128447,646,19142,2646,1,36115,0.0009980000000000544
1295000,6948,1541,130947,-867,-3526,133939,819,19184,3354,1,36116,0.0010019999999999474
1295999,16739,-5809,130440,13358,-3921,136518,643,19136,2634,0,36117,0.0009989999999999721
1296998,5733,1219,126986,-40,-605,119810,558,19164,2285,0,36118,0.0009989999999999721
1297998,16345,6466,125446,9963,8850,118752,775,19164,3174,1,36119,0.001000000000000112
1299000,11632,1881,120643,23035,-7771,126996,566,19163,3174,1,36120,0.0010019999999999474
1299998,19873,-13694,125731,-14158,-7130,120219,771,19159,2318,0,36121,0.0009980000000000544
1300998,17209,2,126303,10428,1534,117522,771,19169,3158,0,36122,0.0009999999999998899
1301998,5021,3536,124206,31231,-245,123775,723,19121,2961,1,36123,0.001000000000000112
1302998,-8712,-851,121789,-43611,-4767,120983,579,19177,2371,1,36124,0.0009999999999998899
1303999,12597,-7071,119012,14524,-2981,125807,708,19177,2900,0,36125,0.0010010000000000296
1304998,3575,17445,119500,17080,22767,104145,653,19150,2900,0,36126,0.0009989999999999721
1305998,16017,24484,126839,-19471,16605,108532,738,19151,2674,1,36127,0.001000000000000112
1306998,1563,-16612,122773,7138,-18487,137485,738,19183,3023,1,36128,0.0009999999999998899
1307998,9457,-16118,126814,6028,-2466,130865,642,19134,2629,0,36129,0.001000000000000112
1309000,-4005,14067,130530,-24843,16556,117332,635,19167,2601,0,36130,0.0010019999999999474
1310000,2855,18743,131605,-765,14474,124832,768,19167,3146,1,36131,0.0009999999999998899
1310998,228,-2429,127643,-1711,-11233,139593,574,19181,3146,1,36132,0.0009980000000000544
1311998,9280,-4268,132380,-16030,-254,126420,720,19155,2351,0,36133,0.001000000000000112
1312998,10583,8709,135527,8981,8268,129027,720,19171,2949,0,36134,0.0009999999999998899
1313998,5978,-2038,133484,6005,-2262,137504,719,19113,2945,1,36135,0.001000000000000112
1315000,3983,-446,133389,-24583,-280,137476,509,19175,2085,1,36136,0.0010019999999999474
1315998,12839,-2379,135170,14051,-1392,138231,685,19174,2806,0,36137,0.0009980000000000544
1316998,7599,6832,130278,6484,-133,127719,652,19174,2806,0,36138,0.0009999999999998899
1318001,8472,-7529,133767,-3608,-8762,130696,871,19145,2670,1,36139,0.0010030000000000872
1318998,7045,-6160,131638,-1291,-4148,135367,871,19197,3567,1,36140,0.0009969999999999146
1319999,17879,-6939,128662,12028,-6482,132543,638,19143,2613,0,36141,0.0010010000000000296
1321000,4888,7111,129588,-988,6690,121898,578,19165,2367,0,36142,0.0010010000000000296
1321998,18517,-288,126316,14205,1088,118701,762,19160,3121,1,36143,0.0009980000000000544
1322998,8611,4901,122276,17046,-916,126653,562,19160,3121,1,36144,0.0009999999999998899
1323999,19016,-16557,127478,-3279,-15019,123395,814,19159,2302,0,36145,0.0010010000000000296
1324999,14162,6725,123056,-4104,8388,115171,814,19177,3334,0,36146,0.001000000000000112
1325998,7490,1605,124288,37922,22,125968,719,19126,2945,1,36147,0.0009989999999999721
1326998,-7960,-2589,120853,-27898,-3174,118834,615,19184,2519,1,36148,0.0009999999999998899
1327999,14144,-7534,120622,-16110,-8252,123091,695,19172,2847,0,36149,0.0010010000000000296
1328998,6810,16324,121281,26640,12398,106812,651,19172,2847,0,36150,0.0009989999999999721
1329998,12890,15052,125782,4769,213,119663,801,19145,2666,1,36151,0.001000000000000112
1330998,896,-14363,121988,-22509,-15518,132733,801,19189,3281,1,36152,0.0009999999999998899
1332000,10022,-3397,129040,4947,6995,126037,655,19136,2683,0,36153,0.0010019999999999474
1333000,-2111,12343,128586,-12423,12670,121933,664,19165,2720,0,36154,0.001000000000000112
1334000,2294,17137,133544,-9451,5576,129051,761,19177,3117,1,36155,0.0009999999999998899
1334998,-82,-9905,126026,-10842,-14205,140588,569,19177,3117,1,36156,0.0009980000000000544
1335998,9699,799,132142,-10678,8825,124925,745,19158,2330,0,36157,0.001000000000000112
1336998,8866,6536,134823,9220,-3245,135252,745,19169,3051,0,36158,0.0009999999999998899
1337998,5709,-3861,133100,-7186,-851,134886,716,19126,2933,1,36159,0.001000000000000112
1338998,-255,623,135670,-17406,-2347,139104,547,19177,2240,1,36160,0.0009999999999998899
1339999,16895,-3390,133682,10273,-3624,136321,682,19158,2793,0,36161,0.0010010000000000296
1340998,7310,9838,131258,9598,205,125929,646,19158,2793,0,36162,0.0009989999999999721
1342000,7857,-8437,132961,-12202,-14300,137933,888,19144,2646,1,36163,0.0010019999999999474
1343000,5307,-10679,132009,2538,-2949,130395,888,19197,3637,1,36164,0.001000000000000112
1343998,17817,713,131181,15119,-2100,136227,631,19143,2584,0,36165,0.0009980000000000544
1344998,5804,-4131,128373,-6684,-4296,122646,596,19164,2441,0,36166,0.0009999999999998899
1346001,15515,7810,125564,10388,13214,110632,749,19159,3068,1,36167,0.0010030000000000872
