t_us,ax,ay,az,ax1,ay1,az1,shunt_raw,bus_raw,curr_raw,pg_rpm,seq,dt
0,5047,10838,126039,49,11120,123822,78,19225,319,1,13359,
1000,13717,2972,128879,2473,-2636,126659,78,19236,319,1,13360,0.001
2000,5268,-10562,125431,2496,-11131,132527,68,19232,279,1,13361,0.001
3000,8669,-219,129362,-12291,4269,124224,63,19232,279,1,13362,0.001
4000,6675,5459,129452,6176,13,128376,71,19234,258,1,13363,0.001
5000,5939,-6909,126485,-704,-6085,131408,71,19232,291,0,13364,0.001
6002,3740,7525,127552,-7745,9513,118758,92,19236,377,0,13365,0.0010019999999999994
7000,3718,5735,127282,-6312,1715,127222,81,19230,332,0,13366,0.0009979999999999998
8000,13651,1824,127402,371,613,125381,72,19233,295,0,13367,0.0010000000000000009
9001,7364,-2239,127918,7391,-5870,130957,74,19233,295,0,13368,0.0010010000000000002
10000,7035,-1859,128033,-8880,-493,124719,104,19230,303,1,13369,0.0009989999999999999
11000,1717,-692,129227,-5060,-5160,129799,104,19228,426,1,13370,0.0009999999999999992
12000,9496,-7056,127583,-1041,-4963,132001,69,19236,283,1,13371,0.0010000000000000009
13000,10095,11182,128128,476,12230,117641,64,19236,262,1,13372,0.0009999999999999992
14000,6257,4315,126779,-1589,400,126147,65,19234,266,1,13373,0.0009999999999999992
15000,11211,-6315,126343,-3898,-8354,129567,93,19234,266,0,13374,0.0010000000000000009
16002,5093,-6681,127519,5241,-7541,132592,78,19228,381,0,13375,0.0010019999999999994
17000,10629,8923,130342,-1709,10553,120661,78,19230,319,0,13376,0.0009979999999999989
18000,6087,2670,127523,-1998,-1146,127402,72,19236,295,0,13377,0.0010000000000000009
19022,10031,-8857,127066,-3220,-8643,132177,68,19233,279,0,13378,0.001022000000000002
20000,10292,-1174,126822,5271,-1179,125255,95,19232,389,1,13379,0.0009779999999999997
21000,5342,4656,129081,-256,4885,123927,71,19232,389,1,13380,0.0009999999999999974
22000,10182,267,128590,-6828,-1389,127641,71,19234,291,1,13381,0.0010000000000000009
23000,6562,-5959,128038,1987,-6100,133423,71,19236,291,1,13382,0.0010000000000000009
24000,12139,5375,128849,3412,5121,124056,64,19235,262,1,13383,0.0010000000000000009
25000,5969,-1206,126601,1750,-3182,125286,78,19229,319,0,13384,0.0009999999999999974
26000,8483,-2689,127463,-7484,-4212,127828,89,19233,365,0,13385,0.0010000000000000009
27000,12147,1889,128763,4267,1746,127899,78,19233,319,0,13386,0.0010000000000000009
28000,9255,6121,129461,3273,5313,124785,68,19235,319,0,13387,0.0009999999999999974
29001,9890,-3460,127953,-2634,-4727,131980,78,19234,279,0,13388,0.0010010000000000019
30000,6346,-9113,126279,478,-10476,129256,78,19231,319,1,13389,0.0009989999999999999
31000,12990,3909,128802,3231,2480,125793,65,19235,266,1,13390,0.0010000000000000009
32000,10873,3615,127254,5727,3985,123612,69,19231,283,1,13391,0.0010000000000000009
33002,10997,4158,127392,-4582,-1173,125967,63,19231,258,1,13392,0.001001999999999996
34000,11035,-561,126574,2454,-1267,127730,69,19234,258,1,13393,0.0009979999999999989
35000,8420,1135,128155,4481,328,127787,87,19234,283,0,13394,0.0010000000000000009
36000,7811,-3621,128333,-1885,-6018,130066,87,19235,356,0,13395,0.0010000000000000009
37000,7153,-1173,128639,-3871,2822,124730,80,19236,328,0,13396,0.0010000000000000009
38000,12026,4259,129444,6223,995,128192,71,19239,291,0,13397,0.0010000000000000009
39000,10561,-1023,126564,919,-1668,126300,72,19239,295,0,13398,0.0010000000000000009
40000,8311,-1049,126359,-3511,-254,125737,99,19230,295,1,13399,0.0010000000000000009
41000,6307,3107,128153,-41,5415,124779,66,19233,405,1,13400,0.000999999999999994
42000,12453,4661,128035,2279,2833,127466,66,19239,270,1,13401,0.0010000000000000009
43000,8773,-4021,128189,2563,-5000,130474,59,19235,242,1,13402,0.0010000000000000009
44000,9812,-1513,126943,-1876,-1482,125056,63,19233,258,1,13403,0.0010000000000000009
45002,8143,1062,126785,2708,1314,126721,89,19233,365,0,13404,0.0010020000000000029
46002,9162,4038,127452,-906,3731,125996,76,19233,365,0,13405,0.0010000000000000009
47003,8811,2960,127390,-2900,2283,126068,72,19232,311,0,13406,0.001000999999999995
48000,7798,4802,127854,-2858,3872,125564,72,19233,295,0,13407,0.0009970000000000048
49000,10129,-1855,125890,6694,-5429,128043,66,19236,270,0,13408,0.000999999999999994
50000,4915,-3249,126590,-2259,-1869,126530,88,19224,360,1,13409,0.0010000000000000009
51001,6335,5494,128485,-7588,3028,126334,65,19235,266,1,13410,0.0010010000000000019
52000,7704,4831,128220,674,5794,125076,67,19235,266,1,13411,0.0009989999999999999
53002,9958,4485,127141,4143,3505,123325,61,19234,274,1,13412,0.0010020000000000029
54002,7430,4296,127873,2710,850,128020,61,19234,250,1,13413,0.000999999999999994
55000,6370,-10450,125619,-14007,-11351,130504,76,19230,311,0,13414,0.0009980000000000058
56001,9491,3208,129847,2072,7011,123910,78,19235,319,0,13415,0.001000999999999995
57000,7971,4655,128500,8407,1419,128772,77,19232,315,0,13416,0.0009989999999999999
58000,4344,3919,128214,-12634,4382,121285,68,19232,315,0,13417,0.0010000000000000009
59000,6678,-3555,124857,-4243,-6263,133561,79,19230,279,0,13418,0.0010000000000000009
60000,6975,-478,125855,6454,5004,121886,79,19225,324,1,13419,0.0010000000000000009
61000,9800,14726,128244,-8872,9271,120837,81,19236,332,1,13420,0.0010000000000000009
62000,11045,-6879,127525,5074,-8659,133395,69,19233,283,1,13421,0.0010000000000000009
63000,5286,-4732,127419,-904,-4904,128466,63,19236,258,1,13422,0.0010000000000000009
64000,7939,-812,128768,-7199,-883,127855,72,19236,258,1,13423,0.0010000000000000009
65000,3726,6044,127517,2222,5436,123281,95,19229,295,0,13424,0.0010000000000000009
66000,6124,495,128015,-3224,-308,128899,95,19236,389,0,13425,0.0010000000000000009
67000,5833,3705,127059,-10599,3841,123077,82,19233,336,0,13426,0.000999999999999987
68000,10163,2779,129233,4169,995,125953,73,19235,299,0,13427,0.0010000000000000009
69000,8094,-3796,126413,3476,-5223,129309,76,19232,311,0,13428,0.0010000000000000009
70000,5281,-3475,128871,-6824,-4467,128215,104,19232,311,1,13429,0.0010000000000000009
71000,4407,-550,128594,-5989,-921,128248,70,19225,426,1,13430,0.0010000000000000009
72000,7966,5152,128459,2059,3545,126394,70,19236,287,1,13431,0.0010000000000000009
73000,8603,-3281,126961,-4309,-3949,128126,65,19235,266,1,13432,0.0010000000000000009
74000,7815,4455,127369,2223,3875,122317,65,19232,266,1,13433,0.0010000000000000009
75012,8980,-3029,126979,-2184,-4348,130537,89,19229,365,0,13434,0.001011999999999999
76000,7892,1696,128254,-1443,-64,126138,81,19229,332,0,13435,0.0009880000000000028
77000,9051,-400,127114,2578,-1419,129578,74,19233,332,0,13436,0.0010000000000000009
78005,8848,4578,128730,-1603,4725,120967,69,19235,303,0,13437,0.001004999999999992
79008,9217,-2171,127834,-1483,-12871,135656,69,19233,283,0,13438,0.0010030000000000039
80000,8482,-11649,127022,2050,-2052,126426,92,19228,377,1,13439,0.0009920000000000068
81000,7835,7131,130001,659,4879,123404,69,19232,283,1,13440,0.0010000000000000009
82001,8972,1811,128782,-4744,679,127913,73,19232,299,1,13441,0.001000999999999988
83000,8411,1182,128045,5343,-2749,129058,65,19235,299,1,13442,0.0009989999999999999
84000,9527,-7211,126290,-45,-6007,130585,75,19233,266,1,13443,0.0010000000000000009
85001,8644,3307,127079,-1280,6865,119052,75,19228,307,0,13444,0.0010010000000000019
86002,7041,1207,128470,1064,-5105,131457,90,19234,369,0,13445,0.0010010000000000019
87002,11836,-3888,127192,-1053,-490,126688,76,19236,311,0,13446,0.0010000000000000009
88002,9472,2683,129186,2423,-244,128025,69,19236,283,0,13447,0.0010000000000000009
89000,9594,-2637,127376,1022,-3309,127254,80,19232,283,0,13448,0.0009979999999999989
90002,8032,816,127754,-422,-2466,127094,71,19232,328,1,13449,0.0010020000000000029
91000,11533,-3819,127387,370,-3009,131194,71,19235,291,1,13450,0.0009979999999999989
92002,12238,6169,128133,2215,6845,121031,68,19232,279,1,13451,0.0010020000000000029
93002,9316,6837,127961,3145,1335,127640,62,19231,254,1,13452,0.0010000000000000009
94000,11246,-4265,125989,-1800,-2113,128926,68,19235,279,1,13453,0.0009979999999999989
95000,8111,132,128096,1421,-781,127238,90,19235,279,0,13454,0.0010000000000000009
96000,9500,-1266,128952,1288,-1779,128592,81,19233,369,0,13455,0.0010000000000000009
97000,8660,997,128153,-2132,175,126191,81,19230,332,0,13456,0.000999999999999987
98000,9072,-36,128712,-703,-1619,128209,69,19232,283,0,13457,0.0010000000000000009
99000,11775,-159,126731,2646,155,126804,69,19230,283,0,13458,0.0010000000000000009
100000,7366,2111,127017,1158,1897,125011,98,19234,401,1,13459,0.0010000000000000009
101002,8589,1207,127310,-1347,1858,126685,65,19234,401,1,13460,0.0010020000000000029
102000,9485,1262,127730,-2174,1291,125957,64,19237,266,1,13461,0.0009979999999999989
103000,10918,1698,128389,3556,214,128380,64,19240,262,1,13462,0.0010000000000000009
104003,9899,-389,126345,2855,-1723,126383,61,19232,250,1,13463,0.0010030000000000039
105000,7122,568,127457,-3794,-34,125919,84,19229,344,0,13464,0.0009969999999999979
106001,9256,1685,127403,994,352,128186,74,19234,303,0,13465,0.0010010000000000019
107000,8419,3846,127526,-1112,3907,125061,71,19234,303,0,13466,0.0009989999999999999
108000,9280,4843,128193,-1955,3547,124880,67,19236,291,0,13467,0.0010000000000000009
109000,8208,1482,127066,1039,-984,126399,67,19233,274,0,13468,0.0010000000000000009
110000,6117,80,128611,-1840,-1769,129033,88,19233,360,1,13469,0.0010000000000000009
111000,6825,-2511,128120,-1527,-2655,130316,63,19234,258,1,13470,0.0010000000000000009
112000,6935,4760,127364,-821,7076,118217,65,19232,266,1,13471,0.000999999999999987
113000,13690,14059,129321,-2189,11233,125116,60,19232,266,1,13472,0.0010000000000000009
114003,8241,-7638,124232,12095,-9210,132264,76,19232,246,1,13473,0.0010030000000000039
115002,4514,775,128145,-18135,992,122517,76,19228,311,0,13474,0.0009989999999999999
116002,11455,2564,130727,-2101,2378,127404,82,19233,336,0,13475,0.0010000000000000009
117015,3123,-4244,127130,16505,-6475,132082,75,19232,307,0,13476,0.001013
118000,7637,-1246,127558,-14235,-711,127658,65,19235,266,0,13477,0.0009849999999999998
119006,3227,9684,125683,-6910,8769,119940,78,19235,319,0,13478,0.0010060000000000069
120000,10883,10772,128096,-274,9983,123424,85,19233,319,1,13479,0.0009939999999999949
121000,10700,-2585,127716,7976,-4393,132610,71,19236,348,1,13480,0.0010000000000000009
122000,5714,-6922,126739,-2260,-8125,125940,71,19236,291,1,13481,0.0010000000000000009
123000,7349,3878,130375,-12366,3585,126784,63,19237,258,1,13482,0.0010000000000000009
124000,6976,-3385,127331,7052,-4444,131695,71,19227,291,1,13483,0.0010000000000000009
125000,6648,-146,127377,-445,-1031,122407,97,19227,397,0,13484,0.0010000000000000009
126001,3003,9109,128663,-6062,2674,124587,83,19236,397,0,13485,0.0010010000000000019
127001,8113,2346,126162,-8757,-2914,124905,73,19236,340,0,13486,0.0010000000000000009
128003,11707,3182,128692,3233,-182,129617,73,19236,299,0,13487,0.0010020000000000029
129002,8527,-2919,128005,6304,-3904,126921,74,19230,303,0,13488,0.0009989999999999999
130000,3871,-609,127603,-10573,-4269,127890,99,19225,405,1,13489,0.0009979999999999989
131000,2395,-7776,128137,-4303,-7316,132654,69,19225,283,1,13490,0.0010000000000000009
132000,11981,4800,128706,4533,11124,119506,66,19239,283,1,13491,0.0010000000000000009
133000,8115,10549,128883,-20,3137,125284,66,19237,270,1,13492,0.0010000000000000009
134000,8121,-3715,126283,-7486,-8253,128152,66,19235,270,1,13493,0.0009999999999999731
135000,7446,-6732,126260,1406,-6467,132367,88,19228,360,0,13494,0.0010000000000000009
136000,9605,2597,128215,3554,7502,124357,76,19239,311,0,13495,0.0010000000000000009
137000,9066,8710,129132,-2475,3110,124022,71,19234,291,0,13496,0.0010000000000000009
138001,6719,-6262,127067,-4960,-9505,132102,68,19234,291,0,13497,0.0010010000000000019
139000,11553,-4104,127091,2085,-782,125846,89,19234,279,0,13498,0.0009989999999999999
140000,7608,2622,128916,4239,1944,126088,89,19228,365,1,13499,0.0010000000000000009
141008,9201,1235,128502,-6252,-688,126124,67,19234,274,1,13500,0.0010080000000000089
142002,7080,-4087,128095,-5226,-5813,131982,72,19234,295,1,13501,0.0009939999999999949
143000,9132,-843,128286,5161,1012,126805,62,19232,254,1,13502,0.0009979999999999989
144000,10534,4616,127799,2970,-1042,125143,73,19232,254,1,13503,0.0010000000000000009
145000,6322,-3914,126546,-6098,-5688,128637,91,19228,299,0,13504,0.0010000000000000009
146001,11239,-1536,127603,-2390,-57,125579,91,19232,373,0,13505,0.0010010000000000019
147001,10877,4731,129525,7914,4239,126896,78,19234,319,0,13506,0.0010000000000000009
148000,10956,1701,128550,-1329,-1923,127485,69,19229,283,0,13507,0.0009989999999999999
149000,7073,-7548,126315,-1710,-9441,130354,78,19227,319,1,13508,0.0010000000000000009
150000,7658,-2830,128312,-298,-1664,128891,74,19227,319,1,13509,0.0010000000000000009
151000,14259,3386,127914,6548,3211,125494,69,19239,303,1,13510,0.0010000000000000009
152000,9403,5038,127067,-1456,4335,124146,69,19233,283,1,13511,0.0010000000000000009
153000,11079,524,126668,-2185,-483,125914,63,19236,258,1,13512,0.0010000000000000009
154000,9660,400,127409,6657,542,126552,68,19231,279,0,13513,0.0010000000000000009
155000,9909,-1522,128880,283,-3272,130414,92,19231,377,0,13514,0.0010000000000000009
156000,7592,-2756,127275,-2636,-3007,126886,79,19231,377,0,13515,0.0010000000000000009
157000,8486,3560,129113,-3369,2748,125978,71,19232,324,0,13516,0.0010000000000000009
158000,12191,470,127704,5961,-559,128094,71,19233,291,0,13517,0.0010000000000000009
159002,9362,-2252,126147,1324,-3597,126872,70,19233,287,0,13518,0.0010020000000000029
160002,7225,650,127532,-4362,391,125375,95,19231,389,1,13519,0.0010000000000000009
161000,8321,2647,128422,-1303,1068,124049,70,19234,287,1,13520,0.0009979999999999989
162000,10822,3223,128322,2661,1254,130285,63,19234,258,1,13521,0.0010000000000000009
163002,8732,-3257,126127,1047,-4522,128386,61,19234,258,1,13522,0.0010019999999999751
164001,9943,1204,126392,-1477,186,124163,61,19236,250,0,13523,0.0009989999999999999
165000,7961,2095,127958,1674,587,127503,83,19231,340,0,13524,0.0009989999999999999
166000,9977,1864,127055,927,1702,126383,75,19232,307,0,13525,0.0010000000000000009
167000,7701,3911,128283,-4981,3095,127276,72,19232,295,0,13526,0.0010000000000000009
168000,9123,1381,125968,-1171,218,122472,65,19232,266,0,13527,0.0010000000000000009
169000,9260,3898,127382,7298,3422,130393,85,19236,266,0,13528,0.0010000000000000009
170001,5108,-4213,126665,-4089,-5111,127557,68,19231,348,1,13529,0.0010010000000000019
171000,8945,4148,129190,-9854,4175,123484,68,19237,279,1,13530,0.0009989999999999999
172000,6337,7261,128498,3421,6113,129004,68,19235,279,1,13531,0.0010000000000000009
173000,9320,-1215,126138,2743,4011,120101,61,19233,250,1,13532,0.0010000000000000009
174000,7934,5359,127774,921,-5365,135037,73,19233,299,1,13533,0.0010000000000000009
175000,7158,-10528,125421,-8919,401,121999,88,19231,299,0,13534,0.0010000000000000009
176000,9551,15427,130504,-4042,11249,123379,75,19232,360,0,13535,0.0010000000000000009
177000,8680,-4916,127081,5189,-6643,131874,75,19232,307,0,13536,0.0010000000000000009
178000,3423,-2164,127100,-10648,-283,124614,65,19232,266,0,13537,0.0010000000000000009
179001,5543,-5475,125263,-1977,-3524,130727,77,19226,315,1,13538,0.0010010000000000019
180000,5996,14449,127530,-2586,19024,112942,82,19236,336,1,13539,0.0009989999999999999
181000,14347,9835,128766,5031,-1780,132519,69,19236,336,1,13540,0.0010000000000000009
182001,5534,-9360,127689,-4931,-9468,129069,62,19235,283,1,13541,0.0010010000000000019
183001,8053,-3804,126965,-3521,-5137,128797,62,19238,254,1,13542,0.0010000000000000009
184001,5672,-487,129981,2899,2854,127351,67,19229,274,0,13543,0.0010000000000000009
185000,4985,5769,128514,-2883,2317,125155,97,19233,397,0,13544,0.0009989999999999999
186000,5184,347,127011,-10774,553,127433,81,19236,332,0,13545,0.0010000000000000009
187000,5236,7417,127611,-1704,5668,123525,74,19236,332,0,13546,0.0010000000000000009
188000,11916,-2707,126686,3464,-4494,128544,69,19231,303,0,13547,0.0010000000000000009
189000,6329,-341,127448,1050,-226,126014,69,19230,283,0,13548,0.0010000000000000009
190000,6809,-3873,128227,-9729,-6601,130775,98,19230,401,1,13549,0.0010000000000000009
191000,6290,116,127941,-790,2095,126765,69,19235,283,1,13550,0.0010000000000000009
192000,8611,1070,129168,263,-1760,129447,67,19237,274,1,13551,0.0010000000000000009
193000,8729,-34,125947,348,2523,122101,65,19237,274,1,13552,0.0010000000000000009
194000,5671,6307,126740,-6459,3876,125495,89,19231,266,0,13553,0.0009999999999999731
195000,10040,-7080,126578,-1419,-3777,131127,89,19233,365,0,13554,0.0010000000000000009
196002,8674,3362,129027,5809,3398,124830,74,19233,303,0,13555,0.0010020000000000029
197000,8273,-61,127725,-5145,-1065,128430,73,19236,299,0,13556,0.0009979999999999989
198000,8129,693,128203,-1532,-1361,124727,70,19234,287,0,13557,0.0010000000000000009
199000,9597,-8976,126961,3561,-10548,134537,88,19234,287,1,13558,0.0010000000000000009
200000,8116,-195,128087,-1171,2431,123424,69,19228,360,1,13559,0.0010000000000000009
201000,7521,7282,127533,-3007,4583,123969,69,19235,283,1,13560,0.0010000000000000009
202000,8318,-2240,127879,-4471,-2094,129166,73,19235,299,1,13561,0.0010000000000000009
203000,8920,-2883,127725,5909,-4139,129170,65,19232,266,1,13562,0.0010000000000000009
204000,9831,-3966,126734,902,-4345,129089,75,19228,307,1,13563,0.0010000000000000009
205000,7437,4431,127277,-2614,3487,121897,90,19228,307,0,13564,0.0010000000000000009
206001,9954,-3995,127374,-1448,-5227,130791,80,19231,369,0,13565,0.0010010000000000019
207000,12078,2485,127903,2072,2380,125744,80,19230,328,0,13566,0.0009989999999999999
208000,9347,1074,128115,2530,-677,127819,69,19235,283,0,13567,0.0010000000000000009
209000,8837,-2504,126966,-2169,-3339,127028,76,19229,311,1,13568,0.0010000000000000009
210000,6626,-1605,128123,31,-3384,129627,73,19235,299,1,13569,0.0010000000000000009
211000,10977,968,129018,2507,877,129112,71,19235,299,1,13570,0.0010000000000000009
212000,10174,6136,127769,6,5650,122943,65,19236,291,1,13571,0.0010000000000000009
213000,10160,631,127825,1786,-53,126346,65,19236,266,1,13572,0.0010000000000000009
214000,10743,-91,127375,1276,-603,126925,70,19231,287,0,13573,0.0010000000000000009
215003,8569,-1631,128298,451,-2457,128617,95,19234,389,0,13574,0.0010030000000000039
216002,8635,1207,127869,-235,42,125837,81,19230,332,0,13575,0.0009989999999999999
217000,8752,-616,127922,-2116,-1614,128324,74,19230,303,0,13576,0.0009979999999999989
218000,11084,-514,127988,2222,-1064,127438,70,19234,303,0,13577,0.0010000000000000009
219000,10148,-664,125863,2287,-1482,125600,93,19232,287,1,13578,0.0010000000000000009
220002,7069,3773,127095,-1732,4453,124143,93,19230,381,1,13579,0.0010020000000000029
221000,10494,4183,127023,-1948,2029,126558,66,19237,270,1,13580,0.0009979999999999989
222000,9860,1694,127757,333,852,127444,65,19236,266,1,13581,0.0010000000000000009
223001,10141,-1032,127369,1879,-3745,128710,60,19236,246,1,13582,0.0010009999999999741
224000,8755,-2893,126852,-1442,-1401,125700,84,19236,246,0,13583,0.0009989999999999999
225000,7817,3074,128375,175,2593,126557,74,19230,344,0,13584,0.0010000000000000009
226000,9302,1452,127866,-151,1815,126788,74,19234,303,0,13585,0.0010000000000000009
227003,7990,5842,127562,-2327,4478,123197,71,19232,291,0,13586,0.0010030000000000039
228001,8606,4161,128067,1607,-3118,125870,66,19232,270,0,13587,0.0009979999999999989
229000,8081,-2324,126979,187,-2425,128216,86,19229,352,1,13588,0.0009989999999999999
230000,6389,-1272,128092,-1813,-4058,129654,72,19229,352,1,13589,0.0010000000000000009
231000,6628,1022,126151,-2419,7386,119995,66,19236,295,1,13590,0.0010000000000000009
232000,10941,13557,128179,-4913,7386,126595,66,19233,270,1,13591,0.0010000000000000009
233000,10706,-1622,126160,13513,-3182,128444,60,19235,246,1,13592,0.0010000000000000009
234000,4698,1842,126697,-11309,-124,123882,74,19228,303,0,13593,0.0010000000000000009
235000,8460,-1549,128851,-10226,-2467,129038,89,19231,365,0,13594,0.0010000000000000009
236000,6406,-3518,127229,13617,-5460,131124,77,19231,365,0,13595,0.0010000000000000009
237001,7559,705,127636,-2765,5164,125676,66,19237,315,0,13596,0.0010010000000000019
238000,4276,10808,126553,-13136,9409,118909,66,19239,270,0,13597,0.0009989999999999999
239000,7680,5814,126504,-540,3326,125811,74,19233,303,1,13598,0.0010000000000000009
240000,9959,-2605,127325,6772,-4727,130222,87,19236,356,1,13599,0.0010000000000000009
241001,8715,-3024,128031,681,-1805,126852,70,19235,287,1,13600,0.0010010000000000019
242000,5566,2411,129591,-13352,1763,126000,65,19235,287,1,13601,0.0009989999999999999
243000,8342,-3488,128129,6977,-5979,131623,71,19232,266,1,13602,0.0010000000000000009
244001,5790,-1724,126654,828,380,125289,71,19232,291,0,13603,0.0010010000000000019
245000,3670,7172,128275,-13421,4281,121282,104,19232,426,0,13604,0.0009989999999999999
246000,6657,201,125449,-1573,-749,127914,81,19232,332,0,13605,0.0010000000000000009
247000,8748,5491,128699,5276,4968,126108,73,19234,299,0,13606,0.0010000000000000009
248000,9706,-3162,126787,-4024,-4114,128761,73,19234,299,0,13607,0.0010000000000000009
249000,5132,1052,128265,-4458,269,124273,99,19229,299,1,13608,0.0010000000000000009
250000,7006,-9052,127972,-880,-11405,135692,99,19227,405,1,13609,0.0010000000000000009
251000,7925,-1488,127393,849,878,124700,68,19235,279,1,13610,0.0010000000000000009
252003,6387,11538,129267,-10233,9910,121881,65,19234,266,1,13611,0.0010029999999999761
253002,8525,157,126661,751,-1620,128077,65,19236,266,1,13612,0.0009990000000000276
254000,7778,-1995,126384,5993,-3092,128265,86,19236,266,0,13613,0.0009979999999999989
255002,6959,-4638,127832,-7058,-4697,130439,76,19228,352,0,13614,0.0010020000000000029
256018,9376,6646,129233,-847,6887,120193,74,19233,311,0,13615,0.0010159999999999614
257000,9469,-4233,128283,3955,-6211,134612,74,19235,303,0,13616,0.0009820000000000384
258000,10196,-3229,126969,-2890,-3241,125604,69,19232,283,0,13617,0.0010000000000000009
259000,6827,1052,128087,-297,-169,126118,90,19225,369,1,13618,0.0010000000000000009
260000,5619,-2480,127352,-149,-3181,129421,61,19225,250,1,13619,0.0010000000000000009
261000,8769,305,127574,-3822,-897,125402,71,19231,250,1,13620,0.0010000000000000009
262000,8374,-1660,127639,-3549,-2792,125416,61,19234,291,1,13621,0.0010000000000000009
263000,10216,6731,128957,8375,6646,124992,61,19232,250,1,13622,0.0010000000000000009
264000,7897,-5163,126044,-1041,-6387,130951,71,19230,291,0,13623,0.0010000000000000009
265000,9639,-3046,127793,-6087,-3843,124925,99,19232,405,0,13624,0.0010000000000000009
266000,9010,4697,128140,5914,3225,127531,78,19232,319,0,13625,0.0010000000000000009
267000,9867,2276,128695,-2233,304,125704,70,19236,319,0,13626,0.0010000000000000009
268000,9346,-3472,127464,-2987,-7366,131017,77,19231,287,0,13627,0.0009999999999999454
269000,8844,-6390,127092,5479,-4695,128894,77,19231,315,1,13628,0.0010000000000000009
270002,10582,3865,127996,1306,2624,123043,76,19233,311,1,13629,0.0010020000000000029
271001,11513,3257,127820,-709,1818,127148,69,19234,283,1,13630,0.0009990000000000276
272002,11081,3715,127700,1726,2847,124446,65,19234,266,1,13631,0.0010009999999999741
273000,10275,1473,127453,2484,-840,127554,68,19235,266,1,13632,0.0009979999999999989
274002,8305,-3033,127456,-62,-4079,129002,99,19232,279,0,13633,0.0010020000000000029
275000,6610,-2892,127860,-358,-2412,128194,99,19236,405,0,13634,0.0009979999999999989
276000,9531,428,128980,-1827,2242,126857,78,19235,319,0,13635,0.0010000000000000009
277000,10728,4213,128838,4115,2559,126015,72,19236,295,0,13636,0.0010000000000000009
278000,10394,-1803,126211,787,-1858,128322,69,19235,283,0,13637,0.0010000000000000009
279000,8336,-2520,125856,-2235,568,124743,94,19235,283,1,13638,0.0010000000000000009
280000,7462,3579,128060,842,2401,125669,65,19231,385,1,13639,0.0010000000000000009
281000,11125,4571,127271,2605,2517,126518,65,19232,266,1,13640,0.0010000000000000009
282000,7723,-508,128548,-945,-2075,128943,64,19233,262,1,13641,0.0010000000000000009
283002,10411,-1408,127062,130,-2082,126615,59,19237,242,1,13642,0.0010020000000000029
284002,8856,846,127259,3309,717,126645,79,19227,324,0,13643,0.0010000000000000009
285000,8531,2288,128049,-1096,2227,126221,74,19227,324,0,13644,0.0009979999999999989
286000,9015,1319,127063,-1514,-638,126195,75,19236,303,0,13645,0.0010000000000000009
287000,8343,5172,127509,132,5826,123422,75,19234,307,0,13646,0.0010000000000000009
288000,11161,4366,127157,1235,680,126975,65,19233,266,0,13647,0.0010000000000000009
289000,5832,-3159,126252,-2961,-3203,127957,83,19227,340,1,13648,0.0010000000000000009
290000,4965,3189,129269,-4492,2811,126404,76,19237,311,1,13649,0.0010000000000000009
291000,6497,288,127438,-960,-1675,128916,67,19237,311,1,13650,0.0010000000000000009
292002,8559,-1911,125870,967,404,122474,60,19234,274,1,13651,0.0010020000000000029
293000,10957,14367,129365,6100,12375,124359,60,19235,246,1,13652,0.0009979999999999989
294000,9530,-7926,123453,-8357,-9497,130221,72,19228,295,0,13653,0.0010000000000000009
295000,6562,8550,130270,-9087,11268,120622,91,19232,373,0,13654,0.0010000000000000009
296002,9186,-9793,125673,13366,-11081,136502,74,19239,303,0,13655,0.0010020000000000029
297000,1201,815,127149,-3103,637,124466,69,19239,303,0,13656,0.0009979999999999989
298000,7064,-3710,125697,-16974,-5015,129425,74,19236,283,0,13657,0.0010000000000000009
299000,6633,10524,126140,8752,12228,119985,74,19233,303,1,13658,0.0010000000000000009
300001,9923,14196,127944,-2945,10687,122127,91,19233,373,1,13659,0.0010009999999999741
301000,9311,-8273,127700,-1479,-9206,131501,71,19237,291,1,13660,0.0009990000000000276
302000,5724,-6345,126168,-2164,-6987,129319,64,19236,262,1,13661,0.0010000000000000009
303002,9525,461,131098,-464,563,127986,68,19236,279,1,13662,0.0010020000000000029
304000,3069,1676,127450,1819,-253,126108,101,19232,279,0,13663,0.0009979999999999989
305000,5322,-1245,127494,-9852,-1376,128311,81,19234,414,0,13664,0.0010000000000000009
306000,4160,8171,126976,-4902,7509,122139,81,19234,332,0,13665,0.0010000000000000009
307000,11598,2897,127050,-1122,2162,124967,75,19232,307,0,13666,0.0010000000000000009
308000,9367,-449,127503,4494,-1646,127783,71,19230,291,0,13667,0.0010000000000000009
309000,4582,-8671,127433,-2650,-9537,130397,96,19230,393,1,13668,0.0010000000000000009
310000,5704,-397,128609,-10194,-1609,125992,68,19225,393,1,13669,0.0010000000000000009
311000,6449,1451,128316,4566,174,130951,68,19236,279,1,13670,0.0010000000000000009
312000,10153,963,125505,-3370,-429,118728,68,19233,279,1,13671,0.0010000000000000009
313000,5643,8863,128149,-3782,7456,125887,62,19232,254,1,13672,0.0010000000000000009
314000,10490,-4993,126390,-1669,-6477,129830,82,19228,336,0,13673,0.0010000000000000009
315000,7999,-1248,127725,2275,-1101,128111,75,19228,307,0,13674,0.0010000000000000009
316000,7226,-1630,129357,1554,-1036,128663,75,19234,307,0,13675,0.0010000000000000009
317000,9117,4197,128252,-6176,3178,122666,69,19233,307,0,13676,0.0010000000000000009
318000,8258,-3714,127770,1537,-9969,135135,69,19237,283,0,13677,0.0010000000000000009
319000,10603,-6389,126503,-183,855,122322,85,19225,348,1,13678,0.0010000000000000009
320000,5814,7514,128619,127,5033,124413,63,19233,258,1,13679,0.0010000000000000009
321000,9541,-536,129091,-7185,-2098,129155,71,19234,291,1,13680,0.0010000000000000009
322000,8865,-1609,128269,4683,-4744,130106,61,19234,291,1,13681,0.0010000000000000009
323000,8591,-4355,127734,1583,-2879,129773,72,19237,250,1,13682,0.0010000000000000009
324001,8710,3495,127041,-2108,3431,120367,72,19231,295,0,13683,0.0010009999999999741
325000,6663,-1875,127295,-900,-5864,131603,102,19235,418,0,13684,0.0009990000000000276
326000,13317,-1574,127023,1229,1969,125401,79,19236,324,0,13685,0.0010000000000000009
327000,9452,5894,129503,3643,3250,125101,69,19233,283,0,13686,0.0010000000000000009
328000,10052,-433,127612,-2225,-4310,128575,73,19233,283,0,13687,0.0009999999999999454
329002,7382,-4651,126504,1808,-6680,130021,75,19233,299,1,13688,0.0010020000000000029
330000,11292,-2741,127463,2747,1337,129743,75,19238,307,1,13689,0.0009979999999999989
331000,12483,7410,128505,1439,7553,119910,70,19234,287,1,13690,0.0010000000000000009
332002,9916,4582,127079,111,854,125785,66,19234,270,1,13691,0.0010020000000000029
333002,12774,-1590,127107,803,-2540,128643,68,19230,279,1,13692,0.0010000000000000009
334000,7775,-1624,127707,4524,-973,126998,95,19230,279,0,13693,0.0009979999999999989
335000,8718,942,129540,-2080,-519,128741,81,19232,389,0,13694,0.0010000000000000009
336000,7193,-1705,128358,-2370,-2666,127629,81,19234,332,0,13695,0.0010000000000000009
337000,10225,623,129113,1266,2139,127803,72,19235,295,0,13696,0.0010000000000000009
338000,11834,-175,126645,4137,-1381,126782,69,19231,283,0,13697,0.0010000000000000009
339000,7690,776,126517,-2685,924,124158,91,19229,373,1,13698,0.0010000000000000009
340002,8508,2415,127160,-790,1589,126623,64,19229,373,1,13699,0.0010020000000000029
341002,9955,3951,127923,2397,4083,125018,64,19235,262,1,13700,0.0010000000000000009
342000,9992,1444,128630,1102,-787,129231,64,19232,262,1,13701,0.0009979999999999989
343000,8587,-5367,126577,651,-6076,128406,60,19232,246,1,13702,0.0010000000000000009
344000,8545,1626,127613,-455,1519,125327,77,19228,315,0,13703,0.0010000000000000009
345000,8618,5375,127416,1209,3015,126199,73,19234,299,0,13704,0.0010000000000000009
346000,8463,4714,126839,-2636,2804,123863,72,19234,299,0,13705,0.0010000000000000009
347000,9032,6198,128890,-1258,5469,125937,65,19238,295,0,13706,0.0010000000000000009
348002,8168,536,126928,728,-996,126533,65,19237,266,0,13707,0.0010020000000000029
349000,6676,-4595,127783,569,-5271,129108,83,19228,340,1,13708,0.0009979999999999989
350002,4004,-1060,127188,-2335,-631,126179,83,19239,340,1,13709,0.0010020000000000029
351000,10785,11550,128982,-5729,11417,122409,67,19231,274,1,13710,0.0009979999999999989
352000,11165,1091,126116,3869,392,127100,61,19231,250,1,13711,0.0010000000000000009
353000,8028,6292,127696,7071,5537,123411,71,19235,250,1,13712,0.0010000000000000009
354000,7850,-6448,127133,-12710,-7319,129432,96,19230,291,0,13713,0.0010000000000000009
355000,4794,-1656,129305,-5220,-2265,127858,96,19232,393,0,13714,0.0010000000000000009
356000,9152,-3085,127640,10059,-4190,128472,76,19233,311,0,13715,0.0010000000000000009
357000,3040,10875,127746,-3630,10032,117608,69,19235,283,0,13716,0.0010000000000000009
358000,6766,6845,125898,-15674,5987,127876,73,19235,299,0,13717,0.0010000000000000009
359000,9804,-1911,126115,4781,-2651,126530,100,19229,299,1,13718,0.0010000000000000009
360000,9275,2044,126829,8174,-229,127514,69,19237,410,1,13719,0.0010000000000000009
361000,7863,-681,129334,-8568,-1350,126486,69,19233,283,1,13720,0.0010000000000000009
362001,7396,-3383,128122,-3540,-4686,131987,66,19236,270,1,13721,0.0010009999999999741
363000,7350,-3564,128248,6215,-1982,127872,69,19230,283,1,13722,0.0009990000000000276
364000,2445,9495,128601,-8442,6995,120647,100,19230,410,0,13723,0.0010000000000000009
365000,7147,2245,127021,-3143,-452,127444,81,19233,410,0,13724,0.0010000000000000009
366001,7787,1629,127142,3534,762,127810,75,19235,332,0,13725,0.0010009999999999741
367000,8733,-222,127810,-5135,-1966,126169,75,19233,307,0,13726,0.0009990000000000276
368000,8344,1977,127965,-2950,1418,125142,73,19231,299,0,13727,0.0010000000000000009
369000,5068,-4345,128616,1499,-10496,134735,96,19228,393,1,13728,0.0010000000000000009
370000,3973,-7221,126920,-3125,-2264,126528,64,19238,262,1,13729,0.0010000000000000009
371000,7558,10404,129452,-6057,8220,121970,66,19238,262,1,13730,0.0010000000000000009
372000,8346,3945,127193,2290,988,125731,63,19236,270,1,13731,0.0010000000000000009
373000,10003,-881,127620,2590,-4334,128568,63,19232,258,1,13732,0.0010000000000000009
374002,8054,-6818,127086,-3042,-6207,130104,81,19227,332,0,13733,0.0010020000000000029
375000,7920,4857,128100,-1148,5045,123679,77,19236,315,0,13734,0.0009979999999999989
376000,8307,620,128237,1886,-2546,130609,77,19233,315,0,13735,0.0010000000000000009
377000,9018,-1041,127733,-2101,400,124770,68,19233,315,0,13736,0.0010000000000000009
378000,10017,933,127579,-3240,-589,126909,84,19235,279,0,13737,0.0010000000000000009
379000,7278,-4808,127544,2087,-3700,127896,84,19226,344,1,13738,0.0010000000000000009
380000,10111,-4949,127672,1183,-5750,128863,63,19238,258,1,13739,0.0010000000000000009
381000,7614,-300,128482,-5906,988,127642,73,19237,299,1,13740,0.0010000000000000009
382000,7784,7906,128310,2596,6074,123355,65,19233,266,1,13741,0.0010000000000000009
383000,9915,-4229,126234,2058,-6952,131250,72,19233,266,1,13742,0.0010000000000000009
384002,8809,-2118,126582,-3205,-1609,124289,106,19234,295,0,13743,0.0010020000000000029
385003,8903,113,128961,1492,-284,127477,106,19230,434,0,13744,0.0010009999999999741
386000,9783,384,128337,3162,351,126674,79,19237,324,0,13745,0.0009970000000000256
387000,9160,-425,128718,-340,-2891,128920,72,19235,295,0,13746,0.0009999999999999454
388000,8953,-3612,127558,-1905,-3959,129410,73,19231,299,0,13747,0.0010000000000000009
389000,9071,2680,128525,1638,1979,124662,81,19231,299,1,13748,0.0010000000000000009
390000,12499,-1362,127055,6321,-2630,130013,70,19238,332,1,13749,0.0010000000000000009
391000,9764,1064,127441,-2973,1044,124297,70,19233,287,1,13750,0.0010000000000000009
392000,10316,3099,127438,-1209,1685,126489,65,19235,266,1,13751,0.0010000000000000009
393000,11307,1499,127578,7076,1170,126218,68,19234,279,1,13752,0.0010000000000000009
394002,8102,409,128760,-601,-1135,128653,93,19233,381,0,13753,0.0010020000000000029
395002,9031,-4739,128224,-3912,-5048,129723,77,19233,315,0,13754,0.0010000000000000009
396001,8852,1734,128548,3523,1568,126019,73,19232,315,0,13755,0.0009990000000000276
397000,11380,-2052,126438,1742,-2839,127228,68,19236,299,0,13756,0.0009989999999999721
398001,10288,2478,127083,-2135,1940,124530,68,19234,279,0,13757,0.0010010000000000296
399000,7285,3269,127210,1756,2134,126271,90,19232,369,1,13758,0.0009989999999999721
400000,9148,-1354,127353,-392,-1855,127639,64,19235,262,1,13759,0.0010000000000000009
401000,9268,1256,128154,1431,586,125890,64,19235,262,1,13760,0.0010000000000000009
402000,10802,-420,127466,1751,-1465,129484,58,19233,262,1,13761,0.0010000000000000009
403000,11051,2271,126517,43,1236,124626,74,19234,238,1,13762,0.0010000000000000009
404000,8018,934,127782,1297,27,129385,74,19232,303,0,13763,0.0010000000000000009
405000,8668,1489,126575,742,-83,125309,71,19237,291,0,13764,0.0010000000000000009
406000,6899,3482,127421,-3067,2344,125259,75,19233,307,0,13765,0.0010000000000000009
407000,10035,4458,128420,-1074,938,126988,67,19233,274,0,13766,0.0010000000000000009
408000,9307,-945,126186,2625,-1703,126722,80,19235,274,0,13767,0.0010000000000000009
409000,5356,760,128476,-2784,635,127487,84,19225,328,1,13768,0.0010000000000000009
410002,6570,606,128573,-3154,-737,127128,84,19236,344,1,13769,0.0010020000000000029
411001,8490,-2774,125043,-1231,-816,124995,66,19233,270,1,13770,0.0009990000000000276
412002,9479,12739,129243,2780,14538,120971,61,19234,250,1,13771,0.0010009999999999741
413000,10829,2975,125468,-1250,-8987,132647,70,19232,287,1,13772,0.0009979999999999989
414000,4010,-4841,126830,-11184,2403,124030,98,19232,287,0,13773,0.0010000000000000009
415000,11407,2890,130482,3175,-1374,128659,77,19230,401,0,13774,0.0010000000000000009
416000,5599,-61,128560,8779,-1706,129368,77,19233,315,0,13775,0.0010000000000000009
417000,3436,-4058,127247,-18064,-5736,128672,66,19234,270,0,13776,0.0010000000000000009
418000,9037,4464,126740,1729,10002,120041,71,19234,291,0,13777,0.0010000000000000009
419000,5818,15539,127346,-282,12095,122804,103,19235,422,1,13778,0.0010000000000000009
420000,15365,-343,128256,1175,-6391,130130,70,19235,422,1,13779,0.0010000000000000009
421000,3435,-12300,124624,-3451,-10905,132136,64,19239,287,1,13780,0.0010000000000000009
422000,9374,1442,130532,-5336,4166,124085,64,19233,262,1,13781,0.0010000000000000009
423000,5858,5816,128262,6107,1423,127292,66,19230,270,1,13782,0.0010000000000000009
424000,5321,-4324,127075,-6507,-5004,130355,94,19233,385,0,13783,0.0010000000000000009
425000,4920,5194,127327,-7673,6700,120561,83,19231,340,0,13784,0.0010000000000000009
426000,5824,6632,127664,-4202,2884,126304,75,19231,340,0,13785,0.0010000000000000009
427000,12250,69,127323,3120,-1040,126412,73,19236,307,0,13786,0.0010000000000000009
428001,4726,-4684,128292,3411,-7454,131510,73,19232,299,0,13787,0.0010009999999999741
429000,6622,-1943,128132,-12022,-137,126206,93,19228,381,1,13788,0.0009990000000000276
430000,4317,4756,129984,1895,2157,128211,69,19237,283,1,13789,0.0010000000000000009
431002,10332,-7556,126409,855,-5064,132873,67,19235,274,1,13790,0.0010020000000000029
432000,9506,10554,128370,-1351,11087,115832,62,19235,274,1,13791,0.0009979999999999989
433000,6916,902,126418,-3515,-3261,129717,81,19235,254,1,13792,0.0010000000000000009
434000,9462,-5686,127760,-979,-5618,129814,81,19228,332,0,13793,0.0010000000000000009
435000,6174,-2832,127591,4670,-3938,130541,79,19231,324,0,13794,0.0010000000000000009
436000,9759,6134,128919,-5633,7363,122636,77,19232,315,0,13795,0.0010000000000000009
437000,7462,3390,128488,-300,-6,125503,67,19232,274,0,13796,0.0010000000000000009
438000,11215,-12932,126351,1592,-12118,135230,82,19232,274,1,13797,0.0010000000000000009
439003,7393,1295,127826,1121,1814,121751,68,19232,336,1,13798,0.0010029999999999761
440000,7490,4525,128794,-3020,2372,125919,68,19238,279,1,13799,0.0009970000000000256
441000,8872,237,127797,-6401,-1092,128449,74,19235,303,1,13800,0.0010000000000000009
442000,7287,-6059,127537,5588,-7358,133118,63,19235,258,1,13801,0.0010000000000000009
443000,10407,2492,127746,1002,2711,124339,69,19232,283,1,13802,0.0010000000000000009
444000,6840,1706,127355,-953,506,123686,107,19232,438,0,13803,0.0010000000000000009
445002,10655,-5423,127213,-2821,-5778,130279,80,19237,438,0,13804,0.0010019999999999474
446001,12070,4535,129247,4688,4150,125785,70,19232,328,0,13805,0.0009990000000000276
447000,9862,4439,128982,2240,3190,127024,70,19233,287,0,13806,0.0009989999999999721
448000,8345,-3413,127270,-2059,-4461,128234,71,19231,291,1,13807,0.0010000000000000009
449001,6735,-7626,127482,724,-9040,129927,85,19239,348,1,13808,0.0010010000000000296
450000,14085,4735,129240,3725,5240,122495,71,19239,291,1,13809,0.0009989999999999721
451000,8475,5162,127311,1487,4337,125384,67,19237,291,1,13810,0.0010000000000000009
452001,11689,157,127191,-3124,-303,126230,67,19236,274,1,13811,0.0010010000000000296
453000,10166,-1488,127273,4109,-2209,128723,67,19231,274,0,13812,0.0009989999999999721
454000,9276,2259,129233,2904,1593,126736,92,19231,377,0,13813,0.0010000000000000009
455000,7640,-2318,127148,-1775,-4770,129482,77,19234,315,0,13814,0.0010000000000000009
456000,7891,-2292,128237,-5136,591,127153,72,19235,295,0,13815,0.0010000000000000009
457000,12948,3321,128388,3914,2477,125951,68,19235,295,0,13816,0.0010000000000000009
458000,8561,-35,126119,-2296,-821,126088,89,19233,279,0,13817,0.0010000000000000009
459000,8074,965,126648,-4891,475,125110,89,19229,365,1,13818,0.0010000000000000009
460000,9267,2606,127791,3241,2885,126787,64,19238,262,1,13819,0.0010000000000000009
461000,11308,4500,128323,1291,2727,126998,63,19236,258,1,13820,0.0010000000000000009
462002,8194,-2108,127293,698,-5179,128424,57,19235,233,1,13821,0.0010020000000000029
463000,9729,-1673,126881,-1243,-2117,125839,76,19235,233,0,13822,0.0009979999999999989
464000,9099,5446,128275,869,-904,125686,70,19232,311,0,13823,0.0010000000000000009
465001,9462,5154,128649,-1072,3492,127261,70,19232,287,0,13824,0.0010010000000000296
466000,8665,2477,127777,-4089,1749,125225,76,19237,311,0,13825,0.0009989999999999721
467000,8579,2730,128316,1305,2682,125500,67,19232,274,0,13826,0.0010000000000000009
468001,9067,-888,126973,3217,-5337,129943,81,19229,332,0,13827,0.0010010000000000296
469002,3925,-5544,125857,-4415,-400,124333,83,19229,332,1,13828,0.0010009999999999741
470000,10950,8139,127753,-7145,6653,125644,67,19233,340,1,13829,0.0009979999999999989
471001,9464,4758,126662,1461,3343,124851,67,19233,274,1,13830,0.0010010000000000296
472000,10528,10017,127507,9253,7967,122587,60,19240,246,1,13831,0.0009989999999999721
473000,6603,-4659,126181,-6141,-8260,132127,69,19229,283,1,13832,0.0010000000000000009
474000,6531,-6489,128067,-15641,-4443,125727,97,19235,397,0,13833,0.0010000000000000009
475000,9357,2759,130053,14401,1264,129815,75,19235,397,0,13834,0.0010000000000000009
476000,4783,2243,126757,-2296,3338,125448,68,19232,307,0,13835,0.0010000000000000009
477002,5491,11243,128245,-16339,9052,120473,68,19233,279,0,13836,0.0010020000000000029
478000,6834,-2990,125068,5801,-4997,130806,73,19233,299,1,13837,0.0009979999999999989
479000,10446,5169,127807,634,5620,122402,101,19235,414,1,13838,0.0010000000000000009
480000,10880,-1472,129376,-3376,-4056,130268,69,19235,283,1,13839,0.0010000000000000009
481000,4956,-6086,127937,-921,-7237,128811,62,19235,283,1,13840,0.0010000000000000009
482001,7629,622,128741,-5814,-349,128685,66,19235,254,1,13841,0.0010009999999999741
483000,4959,913,127121,135,1350,126787,66,19231,270,0,13842,0.0009990000000000276
484000,4758,7433,127077,-1938,6259,123007,95,19230,389,0,13843,0.0010000000000000009
485000,6210,-156,126173,-7889,-1693,127352,81,19232,332,0,13844,0.0010000000000000009
486000,8892,3513,127044,-5357,3145,124204,75,19236,307,0,13845,0.0010000000000000009
487000,11406,-1877,128549,7983,-3079,130581,71,19236,291,0,13846,0.0010000000000000009
488001,4445,-2647,127415,-510,-3664,126550,92,19233,291,0,13847,0.0010009999999999741
489000,4884,-3089,127347,-11723,-4105,129592,76,19225,377,1,13848,0.0009990000000000276
490000,5801,1648,128873,-591,1661,126851,76,19231,311,1,13849,0.0010000000000000009
491000,10678,6430,128918,1328,5579,124428,67,19236,274,1,13850,0.0010000000000000009
492000,8310,-2242,126784,-1411,-3194,126274,63,19240,258,1,13851,0.0010000000000000009
493000,8073,279,127048,-513,-777,125110,78,19240,319,0,13852,0.0010000000000000009
494000,8245,-4621,127322,-1550,-5769,131759,76,19228,319,0,13853,0.0010000000000000009
495000,7877,3972,129452,2136,4063,125294,77,19236,311,0,13854,0.0010000000000000009
496000,8379,868,127741,-3542,77,127055,77,19234,315,0,13855,0.0010000000000000009
497000,8242,-1370,127425,-1845,-2303,124955,70,19233,287,0,13856,0.0010000000000000009
498000,10581,-8399,128813,1484,-7995,132513,83,19224,340,1,13857,0.0010000000000000009
499000,6794,-2347,127221,2093,-3845,124646,73,19224,299,1,13858,0.0010000000000000009
500000,7405,3600,126888,-3123,2105,126205,71,19235,299,1,13859,0.0010000000000000009
501000,7897,1979,127953,-6502,-51,128301,63,19232,291,1,13860,0.0010000000000000009
502000,9180,-715,127535,5800,-2349,128021,63,19237,258,1,13861,0.0010000000000000009
503002,9529,-2657,126666,1181,-3711,127359,69,19226,283,1,13862,0.0010019999999999474
504000,8212,724,127247,-842,1748,122970,105,19236,430,0,13863,0.0009980000000000544
505000,9960,516,127884,893,-1903,129979,79,19232,324,0,13864,0.0010000000000000009
506000,10729,190,128911,-781,-831,127331,69,19232,324,0,13865,0.0010000000000000009
507000,9474,204,128380,2353,-4626,128747,71,19234,283,0,13866,0.0010000000000000009
508000,8263,-3684,127602,2349,-4088,128628,71,19231,291,1,13867,0.0010000000000000009
509000,7659,34,127782,-35,-761,126090,94,19237,385,1,13868,0.0010000000000000009
510000,12603,916,128554,1676,2036,127658,73,19236,299,1,13869,0.0010000000000000009
511000,10204,5553,127896,1728,5578,122530,65,19235,266,1,13870,0.0010000000000000009
512000,10604,2204,127568,1738,-1275,127536,66,19235,266,1,13871,0.0010000000000000009
513003,8959,-3982,127213,297,-4389,129028,90,19236,270,0,13872,0.0010029999999999761
514000,7822,-2848,127799,-1091,-1587,128852,90,19234,369,0,13873,0.0009970000000000256
515000,11362,-1417,128334,-15,2191,126905,78,19236,319,0,13874,0.0010000000000000009
516000,9336,6554,128242,900,4387,124380,73,19233,299,0,13875,0.0010000000000000009
517000,11000,-2224,127198,333,-3276,129113,69,19232,283,0,13876,0.0010000000000000009
518000,8580,338,126914,17,122,125822,86,19232,283,1,13877,0.0010000000000000009
519000,6351,565,127854,-642,-701,127215,66,19228,352,1,13878,0.0010000000000000009
520000,10444,2983,127210,1346,2933,124623,66,19233,270,1,13879,0.0010000000000000009
521000,8746,3628,128501,-1782,1869,127677,67,19240,274,1,13880,0.0010000000000000009
522001,12552,-1488,126890,1863,-2070,127296,59,19235,242,1,13881,0.0010009999999999186
523000,9251,1538,127458,4565,119,125033,75,19230,307,0,13882,0.0009990000000000832
524000,6982,725,127921,-2070,-581,128023,71,19230,307,0,13883,0.0010000000000000009
525000,8585,1126,127450,-2248,880,125439,77,19235,291,0,13884,0.0010000000000000009
526000,7986,3904,128259,-1036,2889,127966,77,19232,315,0,13885,0.0010000000000000009
527000,10498,3351,127251,1523,2807,123783,66,19237,270,0,13886,0.0010000000000000009
528001,6125,2416,127021,-711,834,125212,77,19226,315,1,13887,0.0010009999999999186
529002,5787,-1393,128298,-5751,-2677,130031,85,19238,348,1,13888,0.0010010000000000296
530000,8192,-4785,123938,994,-5020,128390,66,19238,348,1,13889,0.0009980000000000544
531001,6292,15463,129144,-3135,17343,118612,61,19234,270,1,13890,0.0010009999999999186
532000,14752,3411,125661,513,1665,129914,61,19234,250,1,13891,0.0009990000000000832
533000,4605,-4929,126757,4785,-4694,126995,69,19230,283,0,13892,0.0010000000000000009
534000,8318,979,129113,-18573,625,126214,102,19236,418,0,13893,0.0010000000000000009
535001,8045,1012,127903,8963,-596,128929,77,19233,315,0,13894,0.0010009999999999186
536000,3705,-3325,127402,3701,-4795,129355,67,19233,274,0,13895,0.0009989999999999721
537000,8938,3806,126598,-12941,3905,123904,69,19235,274,0,13896,0.0010000000000000009
538000,4726,11951,126418,-3204,10677,119651,101,19234,283,1,13897,0.0010000000000000009
539000,13137,524,128037,3625,-448,129373,101,19236,414,1,13898,0.0010000000000000009
540000,6739,-8117,125850,5708,-8712,129669,68,19236,279,1,13899,0.0010000000000000009
541000,6912,1275,129870,-13576,401,125994,65,19235,266,1,13900,0.0010000000000000009
542000,8208,2209,128384,74,1388,127411,65,19235,266,1,13901,0.0010000000000000009
543000,5799,-5346,126657,7265,-6709,128813,92,19230,266,0,13902,0.0010000000000000009
544002,5152,7097,127784,-11268,5959,119738,79,19229,377,0,13903,0.0010020000000000584
545002,3481,6211,126549,-3565,5764,127213,79,19236,324,0,13904,0.0010000000000000009
546000,12070,-315,127505,-6489,-1180,127981,77,19234,315,0,13905,0.0009979999999999434
547000,8255,-1518,128935,7492,-1506,128725,73,19232,299,0,13906,0.0010000000000000009
548000,4709,153,128174,-1860,-3198,125121,92,19232,377,1,13907,0.0010000000000000009
549000,3285,-2072,129048,-10279,-6407,131928,81,19224,377,1,13908,0.0010000000000000009
550000,8136,-4549,127632,-1807,389,128151,68,19233,332,1,13909,0.0010000000000000009
551000,10970,9685,128502,2206,10125,120701,68,19232,279,1,13910,0.0010000000000000009
552000,5582,4652,126957,-3875,-1564,126231,62,19234,254,1,13911,0.0010000000000000009
553000,9830,-8775,126119,-3825,-8981,131659,81,19225,332,0,13912,0.0010000000000000009
554000,6720,-4323,128243,7311,-1811,129378,81,19235,332,0,13913,0.0010000000000000009
555000,9137,7944,129906,-2523,7910,122096,78,19235,332,0,13914,0.0010000000000000009
556001,7443,1414,127390,-4531,-3735,129025,69,19236,319,0,13915,0.0010010000000000296
557000,8975,-6287,127098,239,-5706,129528,69,19236,283,0,13916,0.0009989999999999721
558000,11055,-572,127495,4358,-174,126245,81,19233,332,1,13917,0.0010000000000000009
559000,4806,2965,128605,-1467,2381,124605,83,19233,340,1,13918,0.0010000000000000009
560000,9237,-1608,127900,-7083,-4524,130164,77,19236,315,1,13919,0.0010000000000000009
561000,7651,-2562,128103,3366,-377,128865,67,19236,315,1,13920,0.0010000000000000009
562000,10945,5335,129039,4128,4085,124796,71,19235,274,1,13921,0.0010000000000000009
563000,7547,-3217,125944,-1848,-6429,127440,71,19228,291,0,13922,0.0010000000000000009
564000,7357,-3003,126905,-5182,-2798,126254,104,19233,426,0,13923,0.0010000000000000009
565000,12407,3779,128900,5975,-424,125997,79,19234,324,0,13924,0.0010000000000000009
566000,9360,4892,129306,2641,4486,127121,70,19233,287,0,13925,0.0010000000000000009
567000,9596,-2248,128390,-3783,-5508,128159,71,19233,287,0,13926,0.0010000000000000009
568000,7228,-8515,126206,1552,-7892,130681,99,19232,291,1,13927,0.0010000000000000009
569003,11264,4721,129002,5442,4321,126248,99,19235,405,1,13928,0.0010029999999999761
570001,11923,889,126837,1651,377,125591,68,19236,279,1,13929,0.0009980000000000544
571002,10001,4004,127801,-3451,3248,123517,67,19237,274,1,13930,0.0010010000000000296
572000,11210,1304,127942,4341,-519,128088,64,19231,262,1,13931,0.0009979999999999434
573000,8299,-1013,127713,2751,-1264,128975,85,19231,262,0,13932,0.0010000000000000009
574000,7388,-2175,128208,-2618,-3071,129249,77,19229,348,0,13933,0.0010000000000000009
575002,7760,-1057,128320,-1995,113,126611,77,19231,315,0,13934,0.0010020000000000584
576000,11729,5824,129253,2490,4932,125083,73,19234,299,0,13935,0.0009979999999999434
577000,10986,-2746,126604,4050,-4394,129601,67,19230,274,0,13936,0.0010000000000000009
578000,7834,-276,126626,-2653,188,124280,86,19232,352,1,13937,0.0010000000000000009
579000,6737,3782,128178,-3223,3000,125622,59,19232,242,1,13938,0.0010000000000000009
580000,11492,3852,127960,3825,3047,126292,65,19234,242,1,13939,0.0010000000000000009
581000,8229,-2089,127856,2071,-3304,129488,58,19236,266,1,13940,0.0010000000000000009
582000,9290,-4036,126937,-2912,-4958,125670,58,19236,238,1,13941,0.0010000000000000009
583002,9229,3244,127189,2359,2090,125988,71,19233,291,0,13942,0.0010020000000000584
584000,9095,4090,127873,1360,2129,126331,73,19235,299,0,13943,0.0009979999999999434
585000,8338,1635,127633,-2456,832,127135,77,19235,315,0,13944,0.0010000000000000009
586000,7592,3627,127923,-3723,2642,126325,67,19232,315,0,13945,0.0010000000000000009
587000,10209,-929,125518,4714,-1790,125410,76,19233,274,0,13946,0.0010000000000000009
588000,6496,250,126948,1950,-621,126251,76,19229,311,1,13947,0.0010000000000000009
589000,5946,2051,127460,-10464,1329,127789,89,19238,365,1,13948,0.0010000000000000009
590000,8045,4918,128385,-724,3896,124452,67,19236,274,1,13949,0.0010000000000000009
591000,9326,3743,126439,1254,2838,123322,61,19236,250,1,13950,0.0010000000000000009
592000,7092,3408,127749,7848,3002,129301,69,19235,250,1,13951,0.0010000000000000009
593000,8041,-8498,125432,-11516,-8966,130768,102,19229,283,0,13952,0.0010000000000000009
594000,8514,3431,129988,-5452,11349,121242,102,19234,418,0,13953,0.0010000000000000009
595000,8598,7839,128381,8568,-829,129215,76,19239,311,0,13954,0.0010000000000000009
596000,4886,948,128131,-6069,1072,123848,67,19236,274,0,13955,0.0010000000000000009
597000,6061,-5064,125112,-7534,-8702,134295,70,19229,287,0,13956,0.0010000000000000009
598000,5766,1410,126687,7379,14904,118484,100,19229,287,1,13957,0.0010000000000000009
599000,7971,12859,127591,-8012,3807,124014,73,19232,410,1,13958,0.0010000000000000009
600000,11188,-5845,128738,8939,-8001,132826,73,19235,299,1,13959,0.0010000000000000009
601000,5809,-2958,126204,-6251,-3983,127580,66,19233,270,1,13960,0.0010000000000000009
602000,8233,-2354,129043,-5140,-166,127625,66,19233,270,1,13961,0.0010000000000000009
603000,3753,5778,127099,4620,3658,124070,90,19233,369,0,13962,0.0010000000000000009
604000,6699,-431,128120,-6853,-1362,129100,79,19233,369,0,13963,0.0010000000000000009
605000,4646,5694,127494,-9729,6868,121832,77,19233,324,0,13964,0.0010000000000000009
606000,9224,2010,128624,5113,-3380,129073,77,19238,315,0,13965,0.0010000000000000009
607000,8567,-3897,126525,352,-5060,127141,68,19234,279,0,13966,0.0010000000000000009
608000,5588,-805,128723,-6623,-2772,127857,89,19227,365,1,13967,0.0010000000000000009
609000,4929,-1035,128310,-2344,308,128553,79,19235,324,1,13968,0.0010000000000000009
610000,7983,3196,128708,262,5,126809,67,19235,324,1,13969,0.0010000000000000009
611000,8461,-4341,126945,-2184,-3190,128275,62,19238,274,1,13970,0.0010000000000000009
612000,7221,5262,127768,2131,4784,121504,62,19234,254,1,13971,0.0010000000000000009
613002,8625,-2889,126047,-4980,-5561,131023,80,19232,328,0,13972,0.0010019999999999474
614000,8507,1220,128154,1033,2206,125918,80,19233,328,0,13973,0.0009980000000000544
615000,8370,997,127349,2880,711,128621,77,19236,315,0,13974,0.0010000000000000009
616000,7447,1132,127907,-4277,2160,122826,68,19236,315,0,13975,0.0010000000000000009
617000,9325,-3769,127565,-1089,-8491,131973,80,19239,279,0,13976,0.0010000000000000009
618000,8854,-9860,126451,3294,-7130,130225,80,19227,328,1,13977,0.0010000000000000009
619000,7987,7934,130363,-52,8040,121796,79,19236,324,1,13978,0.0010000000000000009
620000,8458,674,128656,-6425,-961,128257,72,19233,295,1,13979,0.0010000000000000009
621001,8253,-586,128066,2406,-1663,127931,63,19239,258,1,13980,0.0010010000000000296
622003,9827,-5571,127118,2242,-6243,131687,66,19239,270,1,13981,0.0010019999999999474
623002,8014,4355,127504,-979,4034,120762,103,19232,270,0,13982,0.0009989999999999721
624002,6998,-1159,128645,-170,-3392,129497,103,19229,422,0,13983,0.0010000000000000009
625002,12104,-3523,127800,-1386,-3177,128809,79,19229,324,0,13984,0.0010000000000000009
626000,9618,5095,129600,4232,3863,125403,70,19236,287,0,13985,0.0009980000000000544
627000,10044,-2751,127422,866,-4070,128651,71,19232,291,0,13986,0.0010000000000000009
628000,7246,-1463,127355,-1228,-2633,126441,97,19232,397,1,13987,0.0010000000000000009
629000,11904,-4018,127198,1307,-5221,132611,69,19237,397,1,13988,0.0010000000000000009
630000,11640,7739,127986,3416,7466,120924,68,19233,283,1,13989,0.0010000000000000009
631000,8925,2728,127515,2051,1641,126893,68,19236,279,1,13990,0.0010000000000000009
632000,12096,-2718,125919,-2891,-3078,127723,66,19233,270,1,13991,0.0010000000000000009
633002,7376,-3128,127895,2994,-4173,128421,87,19234,356,0,13992,0.0010019999999999474
634000,9904,708,129054,1661,676,128591,73,19234,299,0,13993,0.0009980000000000544
635000,8415,327,126913,-2953,-567,124915,74,19232,299,0,13994,0.0010000000000000009
636000,9465,-21,129498,-104,-506,129793,69,19236,303,0,13995,0.0010000000000000009
637000,11611,-1596,126155,2937,-2163,124610,69,19231,283,0,13996,0.0010000000000000009
638000,6030,2526,127142,1971,1264,126280,87,19228,356,1,13997,0.0010000000000000009
639000,8424,1959,127765,-4527,1697,126026,65,19234,266,1,13998,0.0010000000000000009
640000,9894,966,127544,712,194,125843,64,19235,262,1,13999,0.0010000000000000009
641002,11035,3068,129179,3732,-1138,128712,57,19235,262,1,14000,0.0010019999999999474
642000,9225,-3934,125759,1432,-4865,125746,74,19240,233,1,14001,0.0009980000000000544
643000,7316,672,127483,-2957,1200,127669,74,19228,303,0,14002,0.0010000000000000009
644001,9282,2300,127609,1977,1815,127497,71,19231,291,0,14003,0.0010009999999999186
645000,8362,5543,127125,-344,5887,123621,75,19235,307,0,14004,0.0009990000000000832
646000,9334,4067,128260,-125,262,126906,64,19235,262,0,14005,0.0010000000000000009
647000,8702,-250,126236,1214,-1656,125899,75,19235,262,0,14006,0.0010000000000000009
648000,6662,1207,127801,-1741,-753,128582,94,19229,307,1,14007,0.0010000000000000009
649001,6256,-1779,127738,-3641,-6947,128644,94,19232,385,1,14008,0.0010009999999999186
650000,6557,5302,128274,-1335,12642,117152,72,19238,295,1,14009,0.0009990000000000832
651000,13443,14008,129664,3117,6329,129985,62,19238,254,1,14010,0.0010000000000000009
652000,8098,-8344,124185,4273,-7312,127106,68,19230,279,1,14011,0.0010000000000000009
653000,5798,2367,128943,-21100,2800,123039,101,19230,279,0,14012,0.0010000000000000009
654001,11617,-539,130216,13342,-2563,131476,77,19236,414,0,14013,0.0010009999999999186
655000,1875,-5691,126751,3660,-7473,130425,77,19237,315,0,14014,0.0009989999999999721
656000,7024,1793,127876,-16752,5376,124501,66,19238,270,0,14015,0.0010000000000000009
657000,3937,10796,125359,-418,11623,118323,69,19229,283,0,14016,0.0010000000000000009
658000,11506,9068,127683,-315,5589,126107,96,19235,393,1,14017,0.0010000000000000009
659001,10625,-6266,126614,7476,-8637,131829,67,19235,393,1,14018,0.0010010000000000296
660000,6140,-5366,126940,-7799,-3326,127204,63,19235,274,1,14019,0.0009989999999999721
661000,7487,5156,130421,-8459,4320,124851,63,19235,258,1,14020,0.0010000000000000009
662003,6740,-5283,127469,9079,-7913,132864,64,19235,262,1,14021,0.0010030000000000872
663000,5138,1780,127492,-4607,4019,124143,91,19229,373,0,14022,0.0009969999999999146
664000,1868,10190,128235,-10074,7239,121903,78,19232,319,0,14023,0.0010000000000000009
665000,8735,245,126291,-7909,-1226,126195,74,19232,319,0,14024,0.0010000000000000009
666000,11477,3703,128639,8953,149,127578,72,19232,303,0,14025,0.0010000000000000009
667000,7649,-3552,128388,3322,-4219,129843,72,19235,295,0,14026,0.0010000000000000009
668000,3389,-107,128262,-10982,-1475,124418,90,19224,369,1,14027,0.0010000000000000009
669000,3108,-8235,128452,-5017,-9378,134879,82,19238,336,1,14028,0.0010000000000000009
670000,11530,5075,128329,3668,7239,122718,66,19234,270,1,14029,0.0010000000000000009
671000,7781,11127,128473,976,8761,121936,61,19234,250,1,14030,0.0010000000000000009
672000,7909,-5986,125490,-5651,-8074,129565,77,19236,250,1,14031,0.0010000000000000009
673000,7336,-6035,127148,-1851,-6816,129742,80,19227,315,0,14032,0.0010000000000000009
674000,10379,4910,128824,5230,4559,128780,80,19234,328,0,14033,0.0010000000000000009
675000,8323,8039,128695,-429,7044,121060,77,19235,315,0,14034,0.0010000000000000009
676000,6731,-6908,127218,-6528,-8386,132199,65,19234,266,0,14035,0.0010000000000000009
677000,11575,-3681,127257,-626,-3568,126958,78,19234,319,1,14036,0.0010000000000000009
678003,7368,4003,128878,7371,3145,124967,77,19224,319,1,14037,0.0010030000000000872
679000,8600,-437,128229,-4068,-1519,126985,74,19232,315,1,14038,0.0009969999999999146
680000,7131,-3586,128005,-8303,-4178,129126,74,19235,303,1,14039,0.0010000000000000009
681000,9583,1008,128483,5145,84,130130,66,19234,270,1,14040,0.0010000000000000009
682000,10309,2187,127558,5522,2159,123227,71,19226,291,1,14041,0.0010000000000000009
683000,6562,-7812,125830,-4315,-8322,128114,100,19226,410,0,14042,0.0010000000000000009
684000,11074,1625,128927,-4401,973,124245,78,19230,410,0,14043,0.0010000000000000009
685000,10506,4332,128936,7678,3672,128791,71,19237,319,0,14044,0.0010000000000000009
686001,9911,162,128629,-560,-315,127708,71,19233,291,0,14045,0.0010010000000000296
687000,6730,-7471,125930,-2663,-8905,131049,72,19232,295,1,14046,0.0009989999999999721
688001,8291,-1371,128376,1249,2525,127037,99,19234,405,1,14047,0.0010010000000000296
689000,13994,3335,128377,6187,1115,125681,69,19232,283,1,14048,0.0009989999999999721
690000,9030,2285,127187,-197,2143,124811,65,19232,283,1,14049,0.0010000000000000009
691000,11354,4112,127524,-4718,1335,124573,64,19235,266,1,14050,0.0010000000000000009
692000,8685,83,127637,6528,-1518,128671,64,19238,262,0,14051,0.0010000000000000009
693001,9219,-2010,128834,-4013,-4436,130555,89,19232,365,0,14052,0.0010010000000000296
694000,6638,-3917,127390,-2273,-2184,126818,78,19232,319,0,14053,0.0009989999999999721
695004,9944,5623,129108,317,5603,125454,77,19236,315,0,14054,0.0010040000000000049
696000,12009,-167,127221,6687,-2849,128950,68,19236,315,0,14055,0.0009959999999999969
697000,9305,-2782,125961,-3065,-1852,125632,87,19234,279,0,14056,0.0010000000000000009
698000,7850,2381,127208,-3412,3350,124759,87,19225,356,1,14057,0.0010000000000000009
699000,9844,5049,127805,1026,6692,124961,60,19233,246,1,14058,0.0010000000000000009
700000,11936,-2004,127240,1634,-4972,130445,65,19235,266,1,14059,0.0010000000000000009
701000,7990,-2285,127454,-46,-3174,127068,58,19235,238,1,14060,0.0010000000000000009
702002,10038,2539,126360,651,1688,124511,75,19235,238,0,14061,0.0010020000000000584
703004,8635,859,127637,1031,-573,127930,72,19229,307,0,14062,0.0010019999999999474
704002,9856,3142,127626,-570,2804,125249,72,19233,295,0,14063,0.0009980000000000544
705001,8024,4295,128277,-4863,2276,127457,77,19234,315,0,14064,0.0009989999999999721
706001,9207,1326,126630,3759,1523,122302,68,19236,279,0,14065,0.0010000000000000009
707000,8727,1627,127142,4732,-1150,128389,80,19228,328,0,14066,0.0009989999999999721
708000,5522,-5170,126718,-9504,-5868,129230,89,19228,328,1,14067,0.0010000000000000009
709000,9642,6641,128594,-3664,6886,122585,69,19237,365,1,14068,0.0010000000000000009
710000,7068,6204,128323,2605,2495,128964,69,19238,283,1,14069,0.0010000000000000009
711001,9202,-1448,125688,1345,-245,120453,63,19239,258,1,14070,0.0010010000000000296
712004,7198,4728,127398,1185,1167,132767,68,19231,279,1,14071,0.0010029999999999761
713000,7523,-9755,125244,-11707,-7169,127796,101,19232,414,0,14072,0.0009959999999999969
714000,9474,16340,130319,-1657,15895,118008,77,19232,414,0,14073,0.0010000000000000009
715000,8978,-6382,126916,9373,-8237,137345,68,19236,315,0,14074,0.0010000000000000009
716001,2493,-432,125827,-7447,-389,122418,68,19238,279,0,14075,0.0010010000000000296
717000,6602,-5961,124872,-7638,-6380,131944,70,19230,287,1,14076,0.0009989999999999721
718000,7825,15621,128544,740,17014,115760,104,19234,426,1,14077,0.0010000000000000009
719000,11928,9438,128723,3029,6824,125659,71,19236,291,1,14078,0.0010000000000000009
720000,6678,-12131,127663,-5852,-12730,134455,65,19236,266,1,14079,0.0010000000000000009
721000,7074,-3589,126892,-2708,-4386,125656,65,19235,266,1,14080,0.0010000000000000009
722001,7319,697,129745,2902,449,130240,89,19233,266,0,14081,0.0010010000000000296
723000,5145,6480,127754,-795,5645,121957,89,19228,365,0,14082,0.0009989999999999721
724000,5223,-2019,126324,-10374,-3730,129458,80,19234,328,0,14083,0.0010000000000000009
725002,6374,6758,127057,-6166,6159,122895,77,19234,315,0,14084,0.0010019999999999474
726000,11169,-661,126789,5184,-1241,126567,72,19234,295,0,14085,0.0009980000000000544
727000,6946,-1310,127610,904,-2360,128210,90,19234,295,0,14086,0.0010000000000000009
728000,5002,-4537,128028,-7581,-5218,128990,83,19224,369,1,14087,0.0010000000000000009
729000,7432,-586,128471,-4520,-1871,129489,83,19238,340,1,14088,0.0010000000000000009
730000,8112,3780,128739,4147,3419,125833,69,19234,283,1,14089,0.0010000000000000009
731000,8655,-2498,125877,-1548,-3713,122429,62,19233,254,1,14090,0.0010000000000000009
732001,7353,5744,127613,-4198,4830,127673,80,19233,328,0,14091,0.0010010000000000296
733003,8316,-3426,127603,-1268,-4829,129986,84,19228,328,0,14092,0.0010019999999999474
734002,9092,-151,127674,3043,-1147,127567,77,19238,344,0,14093,0.0009989999999999721
735002,6789,587,128663,-1429,-6,126123,77,19234,315,0,14094,0.0010000000000000009
736000,9414,384,127353,-4529,-2687,127093,68,19232,279,0,14095,0.0009980000000000544
737000,9383,-8023,127439,3333,-8549,134040,78,19229,319,1,14096,0.0010000000000000009
738000,7663,-392,127839,1023,4102,120952,81,19237,332,1,14097,0.0010000000000000009
739000,8388,6810,127237,-2921,3318,126093,73,19237,332,1,14098,0.0010000000000000009
740000,7358,668,128522,-1630,-406,128801,65,19231,299,1,14099,0.0010000000000000009
741000,9734,-4846,126775,5374,-5019,131816,65,19234,266,1,14100,0.0010000000000000009
742000,7634,-3738,127021,-1907,-739,125540,69,19230,283,1,14101,0.0010000000000000009
743002,8288,4936,127596,-2833,2717,122882,97,19231,397,0,14102,0.0010019999999999474
744000,10477,-2640,127113,1288,-4208,131046,78,19230,319,0,14103,0.0009980000000000544
745001,12238,862,128282,1335,1536,125926,71,19230,319,0,14104,0.0010009999999999186
746000,9581,667,127980,2043,-1843,127377,71,19233,291,0,14105,0.0009990000000000832
747000,7957,-1300,127314,-1714,-2383,126554,71,19232,291,1,14106,0.0010000000000000009
748000,7376,-3330,128213,1542,-5608,131143,97,19239,397,1,14107,0.0010000000000000009
749000,11841,-10,128625,3871,1495,127046,69,19236,283,1,14108,0.0010000000000000009
750000,10044,8682,128598,747,6463,122402,66,19234,270,1,14109,0.0010000000000000009
751000,10493,-89,126727,1493,-1277,128105,65,19234,270,1,14110,0.0010000000000000009
752001,11739,-1320,127177,964,-1165,126617,88,19232,266,0,14111,0.0010009999999999186
753000,8635,-43,128525,1998,-1529,128721,88,19233,360,0,14112,0.0009990000000000832
754003,7890,992,128062,-2087,609,127295,77,19235,315,0,14113,0.0010029999999999761
755001,8399,-966,128329,-1693,-2506,127571,75,19236,307,0,14114,0.0009979999999999434
756002,11299,-10,128187,3169,81,128135,69,19232,283,0,14115,0.0010010000000000296
757000,10179,1090,126717,2042,334,126072,83,19232,283,1,14116,0.0009980000000000544
758000,6305,1316,126828,-3214,1594,125169,60,19225,340,1,14117,0.0010000000000000009
759000,11211,3538,127267,-1645,2263,126128,60,19237,246,1,14118,0.0010000000000000009
760000,9689,2853,128108,3107,2591,126640,64,19237,262,1,14119,0.0010000000000000009
761001,9856,209,127486,2175,-1858,128224,58,19240,238,1,14120,0.0010009999999999186
762000,8337,-4333,126200,-1520,-4982,127776,70,19236,287,0,14121,0.0009990000000000832
763000,7856,2765,128272,-776,2125,126132,76,19236,311,0,14122,0.0010000000000000009
764000,9901,2790,128025,2586,2539,126717,77,19232,311,0,14123,0.0010000000000000009
765000,8050,5010,127696,-4110,4209,124227,67,19229,315,0,14124,0.0010000000000000009
766002,9604,2919,127660,61,1763,126165,67,19230,274,0,14125,0.0010019999999999474
767000,8612,956,127213,2604,-262,127601,76,19232,311,1,14126,0.0009980000000000544
768000,6029,302,128129,-2520,-639,129732,97,19235,397,1,14127,0.0010000000000000009
769002,6414,-1191,125669,-1857,-2132,123960,69,19235,283,1,14128,0.0010019999999999474
770000,11593,14697,128968,-7102,14544,120997,62,19236,283,1,14129,0.0009980000000000544
771000,11966,-1660,126319,12651,-2534,131008,70,19234,254,1,14130,0.0010000000000000009
772001,4272,-179,126275,-3898,-1256,123887,70,19232,287,0,14131,0.0010009999999999186
773000,9683,-1281,129060,-18559,-1546,127223,99,19233,405,0,14132,0.0009990000000000832
774000,4900,-1969,127038,15512,-3822,131071,75,19234,307,0,14133,0.0009999999999998899
775000,8200,-2475,126668,-2469,-4165,131218,65,19234,266,0,14134,0.0010000000000000009
776000,3890,10292,126377,-11470,9028,119556,69,19237,266,0,14135,0.0010000000000000009
777003,7447,8514,126030,-2315,7543,125142,99,19227,283,1,14136,0.0010030000000000872
778000,11264,464,127651,1500,298,129230,99,19233,405,1,14137,0.0009969999999999146
779000,8250,-5804,127525,6452,-6347,129357,68,19234,279,1,14138,0.0010000000000000009
780000,6746,2069,130115,-12347,323,124156,64,19233,262,1,14139,0.0010000000000000009
781000,7002,-2787,128491,82,-1866,133046,64,19232,262,1,14140,0.0010000000000000009
782000,6646,-3191,127176,3733,3583,124465,89,19232,262,0,14141,0.0010000000000000009
783000,4351,9242,128410,-7210,5744,123078,78,19228,365,0,14142,0.0010000000000000009
784000,5525,1802,125752,-4012,-2771,126776,78,19232,319,0,14143,0.0010000000000000009
785000,10658,5164,128459,1167,2043,127422,78,19232,319,0,14144,0.0010000000000000009
786002,10497,-4462,127054,3887,-5406,128889,72,19232,295,0,14145,0.0010020000000000584
787000,5464,2960,128674,-6047,1503,123811,88,19228,360,1,14146,0.0009979999999999434
788000,4202,-9180,127477,-4139,-13866,136590,87,19228,360,1,14147,0.0010000000000000009
789000,7018,-2578,126997,1820,5887,123302,65,19243,356,1,14148,0.0010000000000000009
790000,7936,12957,129211,-8722,9037,122561,65,19237,266,1,14149,0.0010000000000000009
791000,9169,3518,126302,2595,520,124068,62,19235,254,1,14150,0.0010000000000000009
792003,9519,-4698,126518,4015,-9502,133422,78,19228,319,0,14151,0.0010030000000000872
793002,7708,-10378,127081,-3086,-6053,129732,82,19235,336,0,14152,0.0009989999999999721
794000,8703,10222,129948,-398,10627,119589,80,19235,336,0,14153,0.0009979999999999434
795001,8282,-528,128412,312,-5233,132659,68,19233,328,0,14154,0.0010010000000000296
796000,8987,-1959,127037,-1870,-811,124320,68,19233,279,0,14155,0.0009989999999999721
797000,7878,-1817,127527,-35,-4224,129806,79,19229,324,1,14156,0.0010000000000000009
798000,6434,-483,127631,-186,1511,123450,86,19234,352,1,14157,0.0010000000000000009
799000,9367,1026,129067,-3309,-1773,129524,75,19234,307,1,14158,0.0010000000000000009
800001,9457,-4033,128580,1222,-3402,130198,67,19234,307,1,14159,0.0010010000000000296
801000,9113,6078,129321,3566,718,123522,69,19237,274,1,14160,0.0009989999999999721
802000,7415,-5301,126643,-3462,-7672,131450,69,19233,283,0,14161,0.0010000000000000009
803001,8998,-1833,126508,-2599,-1042,123346,101,19234,414,0,14162,0.0010010000000000296
804000,9641,3746,128479,5124,2277,128491,79,19229,324,0,14163,0.0009989999999999721
805000,10101,4480,128773,-3200,3572,124162,70,19230,287,0,14164,0.0010000000000000009
806000,9401,-3180,127216,500,-5796,129806,68,19230,279,0,14165,0.0010000000000000009
807000,9120,-8546,127001,3387,-8778,132678,95,19232,279,1,14166,0.0010000000000000009
808000,10593,3563,128012,3206,2227,122936,71,19238,389,1,14167,0.0010000000000000009
809000,11632,2983,127674,1068,1681,127502,71,19232,291,1,14168,0.0010000000000000009
810000,11204,3581,127378,-1504,2997,123389,67,19235,274,1,14169,0.0010000000000000009
811000,9917,1272,127428,3897,139,127632,64,19234,262,1,14170,0.0010000000000000009
812000,7726,-1206,127557,750,-1713,127255,84,19234,344,0,14171,0.0010000000000000009
813000,6521,-2247,128027,-1607,-3001,128608,77,19231,344,0,14172,0.0010000000000000009
814000,9515,-1091,128967,-1967,-1063,129313,75,19231,315,0,14173,0.0010000000000000009
815001,11099,3940,128234,3825,3697,124522,75,19234,307,0,14174,0.0010010000000000296
816000,10517,-785,127090,1576,-1691,127743,67,19235,274,0,14175,0.0009989999999999721
817000,8699,-2573,126432,-2576,-3216,126071,84,19229,344,1,14176,0.0010000000000000009
818000,6977,-329,128237,-144,-1175,126469,58,19229,238,1,14177,0.0010000000000000009
819000,10541,5713,127465,1507,4803,126572,64,19240,238,1,14178,0.0010000000000000009
820000,7316,-844,127190,-1189,-1509,127510,58,19241,262,1,14179,0.0010000000000000009
821000,10388,-1264,127055,565,-2434,127283,58,19235,238,1,14180,0.0010000000000000009
822000,9086,931,127578,2483,-49,126314,73,19228,299,0,14181,0.0010000000000000009
823000,9016,3243,127578,-628,1184,126416,72,19235,295,0,14182,0.0010000000000000009
824000,8188,1494,127284,-143,1267,125347,73,19235,299,0,14183,0.0010000000000000009
825000,8928,5529,127743,-2074,4140,123301,65,19233,299,0,14184,0.0010000000000000009
826000,10381,3614,127616,1778,3773,130310,75,19239,266,0,14185,0.0010000000000000009
827000,5234,-5733,126451,-242,-7113,126908,75,19234,307,1,14186,0.0010000000000000009
828000,4766,3909,129436,-7430,4260,125885,97,19236,397,1,14187,0.0010000000000000009
829001,6980,1712,128085,-153,-975,129289,69,19236,283,1,14188,0.0010010000000000296
830001,9108,-3759,124546,-2973,1653,121050,61,19232,250,1,14189,0.0010000000000000009
831000,9697,14176,129312,8655,10990,126366,67,19232,250,1,14190,0.0009989999999999721
832000,9396,-4881,124284,-5029,-8009,127361,99,19227,274,0,14191,0.0010000000000000009
833000,7059,5187,130012,-6080,7833,123753,99,19234,405,0,14192,0.0010000000000000009
834001,9692,-5193,128079,14588,-7343,136184,75,19238,307,0,14193,0.0010010000000000296
835000,3117,-4755,126429,-8424,2409,122169,68,19237,279,0,14194,0.0009989999999999721
836000,5653,-133,126537,-15719,-3473,129613,70,19233,287,0,14195,0.0010000000000000009
837000,7796,7040,125432,10504,13383,118393,99,19233,287,1,14196,0.0010000000000000009
838000,9734,17172,127669,-1392,9560,124135,67,19233,405,1,14197,0.0010000000000000009
839000,10191,-7176,128191,-5815,-10666,130651,67,19234,274,1,14198,0.0010000000000000009
840000,6192,-8144,125564,1631,-7793,130077,66,19235,270,1,14199,0.0010000000000000009
841000,9306,110,130619,328,1970,128874,65,19230,266,1,14200,0.0010000000000000009
842001,3611,2285,127228,-2076,2069,124976,90,19230,369,0,14201,0.0010010000000000296
843002,4936,-1257,127445,-8356,-551,127765,80,19230,369,0,14202,0.0010009999999999186
844000,4779,7171,127295,-4751,7416,122282,79,19232,328,0,14203,0.0009980000000000544
845000,11321,3760,127330,-283,1815,125572,79,19233,324,0,14204,0.0010000000000000009
846000,9213,-954,127052,4659,-2655,128107,72,19231,295,0,14205,0.0010000000000000009
847000,4400,-7679,127721,-5835,-9829,131493,89,19223,365,1,14206,0.0010000000000000009
848000,5872,-1321,128316,-6622,1026,126469,83,19235,340,1,14207,0.0010000000000000009
849000,7265,3876,129313,5818,777,128523,66,19235,340,1,14208,0.0010000000000000009
850001,7855,-989,126204,-4977,-690,125658,63,19237,270,1,14209,0.0010010000000000296
851000,6060,9201,127829,-5187,7741,121178,63,19242,258,1,14210,0.0009989999999999721
852001,11014,-3586,126479,375,-4024,131488,77,19229,315,0,14211,0.0010010000000000296
853000,8533,1653,128811,4667,-87,125181,87,19230,356,0,14212,0.0009989999999999721
854000,6529,-3543,128384,-2518,-4969,131655,80,19235,328,0,14213,0.0010000000000000009
855000,9632,2812,128467,-4231,3091,123031,69,19235,283,0,14214,0.0010000000000000009
856000,8958,-1729,127382,4399,-4109,129713,78,19239,283,0,14215,0.0010000000000000009
857000,9846,-5118,127217,-1053,-4612,128619,85,19234,319,1,14216,0.0010000000000000009
858000,6792,5133,128562,-365,5004,122157,85,19237,348,1,14217,0.0010000000000000009
859000,9449,127,128884,-5523,-385,129014,75,19236,307,1,14218,0.0010000000000000009
860000,9246,-600,128272,3602,-1735,127207,66,19234,270,1,14219,0.0010000000000000009
861000,8175,-6107,126875,3539,-7302,132820,68,19234,279,1,14220,0.0010000000000000009
862000,8148,2912,126923,-4521,2215,121862,97,19233,279,0,14221,0.0010000000000000009
863000,6956,279,128201,136,-155,126809,79,19235,397,0,14222,0.0010000000000000009
864000,13946,-587,127698,1498,-1015,128611,79,19233,324,0,14223,0.0010000000000000009
865000,8833,3280,128994,3167,2600,124614,73,19233,299,0,14224,0.0010000000000000009
866000,9713,-2514,127670,-2577,-3362,128872,72,19234,295,0,14225,0.0010000000000000009
867000,7149,-3480,127725,1629,-4572,129130,96,19234,393,1,14226,0.0010000000000000009
868000,9931,-772,128560,2646,-2624,132621,67,19232,393,1,14227,0.0010000000000000009
869000,12007,5983,127942,-547,4741,123657,67,19234,274,1,14228,0.0010000000000000009
870002,8884,5284,127867,2130,4892,122358,67,19238,274,1,14229,0.0010019999999999474
871000,13581,-1903,126426,-312,-2397,128447,63,19236,258,1,14230,0.0009980000000000544
872000,7442,-1011,128084,3963,-1966,127461,86,19227,352,0,14231,0.0010000000000000009
873000,8781,1283,129379,-1150,1092,127513,79,19235,324,0,14232,0.0010000000000000009
874000,7679,-1671,127998,-1418,-2637,127955,77,19235,324,0,14233,0.0010000000000000009
875000,9865,420,129378,677,-1621,129294,67,19232,315,0,14234,0.0010000000000000009
876000,11496,-406,126456,2609,157,124917,67,19234,274,0,14235,0.0010000000000000009
877002,6590,4593,126933,59,4120,123647,83,19226,340,1,14236,0.0010019999999999474
878001,9923,1529,127936,-4414,627,127507,65,19236,266,1,14237,0.0009989999999999721
879000,9776,2837,127990,3895,3787,125752,66,19237,270,1,14238,0.0009990000000000832
880002,10290,1468,128963,-15,-2783,130155,60,19237,270,1,14239,0.0010019999999999474
881001,8480,-4801,126287,906,-3924,125878,72,19235,246,1,14240,0.0009989999999999721
882000,8469,1243,127603,-1118,1589,127380,72,19229,295,0,14241,0.0009990000000000832
883000,9591,3594,127496,1647,3228,125887,76,19233,311,0,14242,0.0010000000000000009
884000,7904,5889,127403,-4299,4511,123703,77,19231,315,0,14243,0.0010000000000000009
885003,8617,1269,128478,367,-3719,126734,65,19236,266,0,14244,0.0010029999999999761
886000,8450,667,126833,1290,19,127104,76,19236,266,0,14245,0.0009970000000000256
887002,6471,-335,128377,-667,-3092,128963,104,19232,311,1,14246,0.0010019999999999474
888002,4447,-5012,126151,-1935,-1642,124960,104,19237,426,1,14247,0.0010000000000000009
889000,9528,11529,129059,-6966,11108,123725,71,19235,291,1,14248,0.0009980000000000544
890000,11222,2345,125768,7410,2165,125488,64,19239,262,1,14249,0.0010000000000000009
891000,7481,6940,127562,1828,4974,123695,67,19230,274,1,14250,0.0010000000000000009
892000,8355,-5194,128052,-14387,-9167,130986,96,19230,274,0,14251,0.0010000000000000009
893000,5315,-4091,129710,3275,-3432,127766,77,19231,393,0,14252,0.0009999999999998899
894000,8274,-1395,127869,5281,-1961,132257,77,19238,315,0,14253,0.0010000000000000009
895000,2972,7336,127982,-8065,8067,119809,69,19233,283,0,14254,0.0010000000000000009
896000,6542,8543,124997,-10245,5239,124107,67,19233,274,0,14255,0.0010000000000000009
897000,9999,1035,126498,4766,228,127918,96,19229,393,1,14256,0.0010000000000000009
898000,8798,1251,126603,5010,-848,125608,69,19229,393,1,14257,0.0010000000000000009
899000,9704,-1909,128883,-9170,-3099,128352,65,19236,283,1,14258,0.0010000000000000009
900000,6581,-3021,127909,1918,-4348,129539,65,19236,266,1,14259,0.0010000000000000009
901000,6649,-3154,127550,867,-3645,129828,61,19234,250,1,14260,0.0010000000000000009
902001,1913,8146,127574,-9444,5956,119602,87,19233,356,0,14261,0.0010010000000000296
903000,7408,3819,128219,-4230,3324,127878,78,19234,319,0,14262,0.0009989999999999721
904000,8080,4757,127332,1555,3778,123405,81,19234,332,0,14263,0.0010000000000000009
905000,9023,-2818,128206,-1011,-4061,129477,71,19232,332,0,14264,0.0010000000000000009
906001,8655,-151,127650,-4483,-604,125475,85,19233,291,0,14265,0.0010010000000000296
907000,5065,-3895,128636,1659,-5558,130245,85,19227,348,1,14266,0.0009989999999999721
908000,3302,-5624,127370,-2955,-6142,131465,91,19237,373,1,14267,0.0010000000000000009
909000,8088,9601,129093,-8188,9053,120101,68,19232,279,1,14268,0.0010000000000000009
910001,9147,1802,127558,1800,629,128804,62,19232,254,1,14269,0.0010010000000000296
911001,9941,322,126762,3738,-481,124204,75,19236,254,1,14270,0.0010000000000000009
912003,8289,-7086,127274,-2731,-8407,132002,87,19228,307,0,14271,0.0010020000000000584
913000,8179,4435,128001,193,2330,124161,87,19231,356,0,14272,0.0009969999999999146
914000,8591,840,128276,1176,251,128869,76,19236,311,0,14273,0.0010000000000000009
915000,8574,-508,127712,-1739,-1590,127413,67,19231,274,0,14274,0.0010000000000000009
916000,9696,878,127448,-2617,609,124205,77,19230,315,0,14275,0.0010000000000000009
917000,6975,-5064,127795,1092,-6049,130379,87,19230,315,1,14276,0.0010000000000000009
918000,9254,-1649,128504,1208,-1576,128834,73,19235,356,1,14277,0.0010000000000000009
919000,6768,-3964,127866,-4068,-4236,127835,73,19230,299,1,14278,0.0010000000000000009
920000,8124,7936,128777,302,6970,123934,67,19238,274,1,14279,0.0010000000000000009
921000,9922,-3597,126299,2516,-2818,130778,66,19228,270,1,14280,0.0010000000000000009
922000,8892,-2917,126934,-1440,-921,124772,95,19230,389,0,14281,0.0010000000000000009
923000,8809,730,128383,-388,-1367,127250,77,19230,389,0,14282,0.0010000000000000009
924000,10730,-38,128015,2848,1639,126398,71,19234,315,0,14283,0.0010000000000000009
925000,9392,1660,128922,729,-1805,128224,71,19236,291,0,14284,0.0010000000000000009
926000,9019,-3531,127187,-1577,-5205,129631,69,19233,283,0,14285,0.0010000000000000009
927000,9088,165,128352,2813,-494,126183,92,19234,377,1,14286,0.0010000000000000009
928000,10858,-858,127308,7189,-1708,128286,69,19236,283,1,14287,0.0010000000000000009
929002,10451,2626,127287,-7651,3642,123672,69,19236,283,1,14288,0.0010020000000000584
930002,10792,3691,127702,3378,1886,125884,63,19236,283,1,14289,0.0010000000000000009
931000,10892,1398,127763,7331,646,127622,63,19235,258,1,14290,0.0009979999999999434
932000,8485,-1240,127889,-5581,-3678,128219,83,19229,340,0,14291,0.0010000000000000009
933000,7996,-3674,128425,-691,-4257,129113,78,19233,319,0,14292,0.0010000000000000009
934000,9394,89,127892,3569,847,127573,77,19235,315,0,14293,0.0010000000000000009
935000,10942,1258,127837,-1196,3037,125987,68,19235,315,0,14294,0.0010000000000000009
936000,8656,-1547,126526,851,-657,125416,81,19232,279,0,14295,0.0010000000000000009
937007,6804,2403,127009,210,-43,126918,81,19224,332,1,14296,0.0010069999999999801
938000,10018,367,126795,-2884,35,126257,70,19235,287,1,14297,0.0009930000000000216
939000,9256,1098,127916,4067,274,128304,66,19236,270,1,14298,0.0010000000000000009
940000,10800,682,127329,673,-348,126623,58,19240,238,1,14299,0.0010000000000000009
941000,10442,1368,126741,-1112,750,125229,69,19240,238,1,14300,0.0010000000000000009
942000,7691,2238,127919,1639,1156,127939,80,19233,283,0,14301,0.0010000000000000009
943000,8566,-640,126847,-606,-951,127047,80,19230,328,0,14302,0.0010000000000000009
944000,6777,2958,127790,-4697,2585,124307,77,19236,315,0,14303,0.0010000000000000009
945002,9786,4266,127760,1382,2247,126426,66,19238,270,0,14304,0.0010020000000000584
946000,8572,-2345,126541,1956,-3339,128066,75,19229,307,0,14305,0.0009979999999999434
947000,5907,2566,128657,-4635,1966,125503,109,19229,446,1,14306,0.0010000000000000009
948000,6743,1820,128482,-2819,815,127598,70,19234,446,1,14307,0.0010000000000000009
949002,8499,-3869,124581,-1691,-5297,128017,63,19235,287,1,14308,0.0010020000000000584
950000,8624,11669,128669,5588,12476,119163,63,19233,258,1,14309,0.0009979999999999434
951000,11253,-357,124096,-1623,-2951,132903,65,19231,266,1,14310,0.0010000000000000009
952002,4488,1126,128258,-9671,2404,121442,94,19231,385,0,14311,0.0010019999999999474
953000,11850,885,130032,-2406,-260,130649,73,19231,299,0,14312,0.0009980000000000544
954000,4835,-2890,127525,15282,-3668,130394,69,19236,299,0,14313,0.0010000000000000009
955000,3713,-2830,126957,-18985,-4343,126432,68,19237,283,0,14314,0.0010000000000000009
956000,8480,5204,127084,-1309,5108,124773,68,19234,279,0,14315,0.0010000000000000009
957000,5806,16125,127595,2472,14892,117425,97,19231,397,1,14316,0.0010000000000000009
958000,14424,-4010,128110,-1757,-3890,131594,67,19233,274,1,14317,0.0010000000000000009
959004,2957,-8905,125263,-1151,-10494,129810,65,19235,266,1,14318,0.0010040000000000049
960000,10297,2867,131269,-5267,1857,126518,64,19235,266,1,14319,0.0009959999999999969
961002,4807,2455,128217,2348,2002,126532,85,19234,262,0,14320,0.0010019999999999474
962002,6331,-5542,127353,-983,-6210,130768,85,19228,348,0,14321,0.0010000000000000009
963000,3831,6793,126529,-9994,4408,122769,78,19233,319,0,14322,0.0009980000000000544
964000,6318,6654,127631,-3508,7064,122890,80,19232,328,0,14323,0.0010000000000000009
965000,12099,-1330,126817,-1470,-1904,128327,72,19235,295,0,14324,0.0010000000000000009
966003,4069,-4580,127905,6908,-5099,130335,86,19235,295,0,14325,0.0010029999999999761
967002,7621,-1471,128229,-11334,-3341,124793,93,19224,352,1,14326,0.0009989999999999721
968001,4369,2506,129182,-237,2147,131285,93,19233,381,1,14327,0.0009990000000000832
969000,10843,-4136,125831,911,-407,126974,69,19236,283,1,14328,0.0009989999999999721
970000,8178,9791,128435,-2028,11664,118357,63,19240,258,1,14329,0.0010000000000000009
971000,7296,130,126731,-2340,-6670,130107,75,19229,307,1,14330,0.0010000000000000009
972000,9285,-3996,127807,-2937,-3796,128352,90,19229,307,0,14331,0.0010000000000000009
973015,6122,-2908,129034,1913,-2577,130911,78,19233,369,0,14332,0.0010149999999999881
974003,10645,5562,128946,-5498,7576,120015,78,19236,319,0,14333,0.0009879999999999889
975003,6468,837,128138,2404,-6856,131924,69,19236,283,0,14334,0.0010000000000000009
976000,11297,-11062,126932,-49,-7600,129753,77,19231,315,1,14335,0.0009970000000000256
977000,6637,5581,128040,1511,7976,121507,85,19233,348,1,14336,0.0010000000000000009
978000,7756,3261,128660,-5613,-33,128174,73,19233,348,1,14337,0.0010000000000000009
979001,8936,-2188,127565,-2124,-3381,128806,66,19230,299,1,14338,0.0010010000000000296
980001,7492,-5642,127406,5201,-5426,132695,66,19236,270,1,14339,0.0010000000000000009
981000,10646,4004,127800,-103,5517,120219,67,19233,274,1,14340,0.0009989999999999721
982000,6636,253,127199,-1543,-4263,128607,92,19232,377,0,14341,0.0010000000000000009
983000,11842,-5505,126921,-2558,-3717,129066,77,19231,315,0,14342,0.0010000000000000009
984000,11123,5991,128853,5356,5903,123734,74,19231,315,0,14343,0.0010000000000000009
985000,9088,2604,128432,-1340,-1171,127824,70,19235,303,0,14344,0.0010000000000000009
986000,8006,-2367,126933,-788,-7740,128106,70,19233,287,1,14345,0.0010000000000000009
987003,6971,-5582,128419,2232,-4263,133159,93,19233,381,1,14346,0.0010029999999999761
988000,13400,4620,129599,4173,5831,122300,67,19234,274,1,14347,0.0009970000000000256
989002,8247,5464,127780,-667,3733,123753,66,19235,270,1,14348,0.0010019999999999474
990001,12989,-581,127119,-1103,-1219,127969,63,19235,270,1,14349,0.0009989999999999721
991000,10266,-2239,126698,7225,-2152,127215,83,19232,258,0,14350,0.0009990000000000832
992000,8462,1954,128832,-1748,1077,128319,83,19232,340,0,14351,0.0010000000000000009
993000,7596,-3119,126864,-3169,-4734,128244,78,19232,319,0,14352,0.0010000000000000009
994000,8749,650,128445,-1370,985,127582,79,19232,324,0,14353,0.0010000000000000009
995001,12724,1826,127776,5823,777,127605,67,19236,274,0,14354,0.0010009999999999186
996000,7993,-757,125813,-796,-1390,125128,79,19236,324,0,14355,0.0009990000000000832
997000,8791,1454,127095,-5085,902,126108,79,19226,324,1,14356,0.0010000000000000009
998000,9959,4148,127725,3329,3860,125083,68,19238,324,1,14357,0.0010000000000000009
999000,10793,3611,128284,290,2698,127336,68,19236,279,1,14358,0.0010000000000000009
1000000,7829,-4157,126857,307,-5639,129223,60,19240,246,1,14359,0.0010000000000000009
1001000,9768,-1359,126664,-77,-1986,125737,70,19231,287,0,14360,0.0009999999999998899
1002000,8493,3880,128595,2756,3104,126582,84,19231,344,0,14361,0.001000000000000112
1003001,8824,4207,128032,-2535,3731,125539,77,19231,344,0,14362,0.0010010000000000296
1004003,8311,4492,128674,-4970,3719,126647,69,19237,315,0,14363,0.0010019999999999474
1005000,8839,4125,128022,2098,3238,124515,69,19234,283,0,14364,0.0009969999999999146
1006000,8827,-3729,126368,2869,-4422,128652,76,19232,311,1,14365,0.001000000000000112
1007000,3097,-2255,126808,-1856,-3975,127191,109,19236,446,1,14366,0.0009999999999998899
1008000,11250,8132,127425,-7500,7128,124269,69,19236,283,1,14367,0.001000000000000112
1009000,9188,3969,127576,439,2975,126424,60,19234,283,1,14368,0.0009999999999998899
1010000,10536,6809,128372,5318,6682,121710,65,19234,246,1,14369,0.001000000000000112
1011000,5950,-3150,126110,2171,-2842,131832,65,19229,266,0,14370,0.0009999999999998899
1012000,6172,-8080,127815,-17815,-9560,126560,93,19230,381,0,14371,0.001000000000000112
1013003,9527,4837,129660,6393,2932,129669,77,19232,315,0,14372,0.0010029999999998651
1014000,5388,2461,126115,8006,1258,121394,71,19237,291,0,14373,0.0009970000000001367
1015000,4871,11990,128294,-17479,11091,124046,68,19237,291,0,14374,0.0009999999999998899
1016000,8007,-7692,124343,-1505,-8104,131777,94,19237,279,1,14375,0.001000000000000112
1017000,8602,7744,127966,9753,10015,119425,94,19228,385,1,14376,0.0009999999999998899
1018000,10342,447,129808,-8769,-4665,131000,70,19236,287,1,14377,0.001000000000000112
1019000,6862,-7834,127118,-1954,-2743,128197,68,19238,279,1,14378,0.0009999999999998899
1020000,8033,-4500,127770,-2377,-4842,131132,66,19233,270,1,14379,0.001000000000000112
1021000,5018,2664,127775,-5942,5772,121001,85,19233,270,0,14380,0.0009999999999998899
1022014,3974,9052,126884,144,4481,125982,79,19232,348,0,14381,0.0010140000000000704
1023002,7232,-3895,126223,-5226,-4052,129676,79,19237,324,0,14382,0.0009879999999999889
1024002,7714,5607,127335,-4379,5701,121480,81,19233,332,0,14383,0.0009999999999998899
1025000,10895,-1188,128613,5297,-3773,131294,72,19231,295,0,14384,0.0009980000000000544
1026000,4863,-2367,127199,-462,-3757,125663,84,19226,344,0,14385,0.001000000000000112
1027000,4641,-6183,127547,-11944,-7687,132471,96,19226,344,1,14386,0.0009999999999998899
1028000,7358,3829,129143,512,7540,122198,69,19237,393,1,14387,0.001000000000000112
1029001,8374,7610,128550,560,2292,126498,69,19236,283,1,14388,0.0010010000000000296
1030000,9113,-5407,126172,-2628,-5405,127583,62,19233,254,1,14389,0.0009989999999999721
1031001,6980,1259,127527,643,-713,126007,75,19228,307,0,14390,0.0010010000000000296
1032000,8208,-3415,127477,-1392,-3667,130389,88,19236,360,0,14391,0.0009989999999999721
1033000,8180,6142,129935,635,5453,122873,78,19236,360,0,14392,0.0009999999999998899
1034000,7895,-3544,127635,-2369,-5710,131969,69,19230,319,0,14393,0.001000000000000112
1035000,9810,1006,127590,-157,2267,122522,69,19233,283,0,14394,0.0009999999999998899
1036000,8017,-4155,127781,1606,-6335,131284,76,19229,311,1,14395,0.001000000000000112
1037000,8729,-7726,126340,-2416,-6390,126893,94,19238,385,1,14396,0.0009999999999998899
1038001,8800,5258,128971,923,4501,124942,75,19234,307,1,14397,0.0010010000000000296
1039000,7444,3542,127830,-1496,2316,127770,68,19234,279,1,14398,0.0009989999999999721
1040002,10034,-2069,127080,109,-3316,126964,64,19239,279,1,14399,0.0010019999999999474
1041002,8241,-5603,126590,3080,-6108,130343,92,19234,262,0,14400,0.001000000000000112
1042000,9127,4346,127604,-4666,3975,122353,92,19229,377,0,14401,0.0009980000000000544
1043000,9798,1206,128261,606,-340,127225,79,19233,324,0,14402,0.0009999999999998899
1044000,8799,-3279,128057,3266,-4236,130401,74,19236,303,0,14403,0.001000000000000112
1045000,9961,-2417,127476,-2712,-3700,127495,70,19236,287,0,14404,0.0009999999999998899
1046000,9052,436,127409,1239,-280,126350,88,19232,287,1,14405,0.001000000000000112
1047000,10724,1709,128105,6223,246,127386,65,19236,360,1,14406,0.0009999999999998899
1048000,11254,-1328,127350,-275,-2014,127390,65,19236,266,1,14407,0.001000000000000112
1049000,9378,5503,129053,-4039,4671,125122,66,19239,270,1,14408,0.0009999999999998899
1050003,9191,-274,127054,6727,-1158,127489,62,19234,254,1,14409,0.0010030000000000872
1051002,7945,493,128261,529,-7,126762,82,19234,336,0,14410,0.0009989999999999721
1052000,7776,-2825,128381,-4556,-3685,130497,77,19230,336,0,14411,0.0009980000000000544
1053000,10664,404,127699,2160,-558,126425,78,19234,315,0,14412,0.0009999999999998899
1054000,11035,2433,126990,3174,943,123963,78,19236,319,0,14413,0.001000000000000112
1055000,12449,-1393,127264,117,-1647,127646,66,19233,270,0,14414,0.0009999999999998899
1056000,8920,2939,126890,-407,2398,124416,80,19231,328,1,14415,0.001000000000000112
1057000,5158,-1299,128005,191,-2284,130726,82,19234,336,1,14416,0.0009999999999998899
1058000,9211,3958,127207,-1598,2714,123366,68,19234,336,1,14417,0.001000000000000112
1059002,7950,2846,128699,-1877,2668,129562,59,19239,279,1,14418,0.0010019999999999474
1060000,12527,-97,127420,1982,-1471,125177,59,19235,242,1,14419,0.0009980000000000544
1061000,10044,-2929,126386,4082,-3090,128610,69,19226,283,0,14420,0.0009999999999998899
1062000,8401,2554,128039,-1666,248,123902,82,19233,336,0,14421,0.001000000000000112
1063000,8630,4386,127883,-276,2547,126325,77,19232,315,0,14422,0.0009999999999998899
1064000,8478,2303,128047,-3466,1811,127845,67,19232,315,0,14423,0.001000000000000112
1065000,8657,2915,127408,1323,899,124469,69,19236,274,0,14424,0.0009999999999998899
1066000,4929,-792,126511,1787,-1872,127948,69,19232,283,1,14425,0.001000000000000112
1067000,6107,412,128023,-4096,559,126854,105,19231,430,1,14426,0.0009999999999998899
1068000,8590,-2780,125362,2975,-4897,128478,75,19239,307,1,14427,0.001000000000000112
1069000,9371,12251,128800,-1331,19306,115916,65,19236,266,1,14428,0.0009999999999998899
1070000,13698,11141,128311,3949,-1995,133259,66,19236,266,1,14429,0.001000000000000112
1071002,4742,-17806,123500,-3041,-9909,130445,91,19234,270,0,14430,0.0010019999999999474
1072000,7832,7540,130462,-12051,7466,121598,91,19232,373,0,14431,0.0009979999999998324
1073000,7711,-916,127756,15792,-3116,132804,75,19236,307,0,14432,0.001000000000000112
1074000,4092,-1270,127047,-11568,-2024,125764,70,19239,287,0,14433,0.0009999999999998899
1075000,9448,3298,127372,-4351,5410,123723,69,19238,283,0,14434,0.001000000000000112
1076000,5487,13662,126339,41,11951,119976,90,19238,283,1,14435,0.0009999999999998899
1077000,13821,3110,129387,1048,-2266,128652,64,19229,369,1,14436,0.001000000000000112
1078001,5836,-14519,126322,6788,-14034,136101,64,19235,262,1,14437,0.0010010000000000296
1079000,7773,1715,129412,-12739,4686,122285,64,19236,262,1,14438,0.0009989999999999721
1080000,6551,5148,129562,1589,1264,127924,61,19231,250,1,14439,0.0009999999999998899
1081000,5411,-6183,125971,3351,-6345,131153,83,19227,340,0,14440,0.001000000000000112
1082000,5705,6684,127473,-9409,8386,120369,77,19227,315,0,14441,0.0009999999999998899
1083000,3337,9030,128046,-4554,6529,124552,79,19234,315,0,14442,0.001000000000000112
1084000,13471,-2012,127275,-2269,-3255,127650,71,19235,324,0,14443,0.0009999999999998899
1085000,6716,-4969,128380,8898,-6148,131358,71,19234,291,0,14444,0.001000000000000112
1086001,7008,-413,128538,-7544,-1107,125894,82,19226,336,1,14445,0.0010010000000000296
1087000,2939,4546,129663,-5253,1279,126495,98,19232,401,1,14446,0.0009989999999999721
1088000,8178,-5237,127427,-1158,-5328,134215,70,19232,287,1,14447,0.0009999999999998899
1089000,11608,8689,128450,-296,9510,118270,62,19238,287,1,14448,0.001000000000000112
1090001,5979,7011,127800,2232,4819,123572,73,19234,254,1,14449,0.0010010000000000296
1091000,10280,-9743,126061,-6207,-11426,132639,73,19231,299,0,14450,0.0009989999999999721
1092000,5939,-6821,127831,3840,-8256,131184,86,19236,352,0,14451,0.0009999999999998899
1093000,9980,9042,129726,518,8965,124331,78,19232,319,0,14452,0.001000000000000112
1094000,7971,6862,127993,-2888,5593,121513,71,19232,291,0,14453,0.0009999999999998899
1095000,9239,-11145,126570,-1551,-12244,134969,74,19237,291,0,14454,0.001000000000000112
1096000,10503,-3103,127156,1320,-3569,126864,90,19230,303,1,14455,0.0009999999999998899
1097000,6514,6158,129454,4046,5960,122828,90,19232,369,1,14456,0.001000000000000112
1098000,9275,-1672,128592,-7233,-1878,128839,73,19232,299,1,14457,0.0009999999999998899
1099000,6774,-4201,127796,105,-5137,131064,68,19238,279,1,14458,0.001000000000000112
1100000,11039,3421,128465,3122,2644,126807,66,19238,270,1,14459,0.0009999999999998899
1101000,7085,2352,126876,1413,2180,122391,91,19238,270,0,14460,0.001000000000000112
1102000,7418,-6062,127167,-4528,-6512,128700,77,19227,373,0,14461,0.0009999999999998899
1103000,13327,1044,128541,447,108,128308,77,19234,315,0,14462,0.001000000000000112
1104000,9377,7979,129704,7182,7759,124418,73,19237,299,0,14463,0.0009999999999998899
1105000,10025,-2319,128157,-1189,-2958,131280,69,19232,283,0,14464,0.001000000000000112
1106000,6589,-8635,126718,-1593,-10402,128956,92,19233,377,1,14465,0.0009999999999998899
1107000,13364,5536,128962,3350,3239,125059,65,19233,377,1,14466,0.001000000000000112
1108000,10993,5067,127049,5776,4579,124051,66,19238,266,1,14467,0.0009999999999998899
1109000,10738,1107,127110,-2262,-312,126128,66,19235,270,1,14468,0.001000000000000112
1110000,11859,-2131,126972,239,-2362,128489,63,19233,258,1,14469,0.0009999999999998899
1111000,7708,1665,128658,5765,510,126947,79,19226,324,0,14470,0.001000000000000112
1112000,8520,-1203,128797,-1185,-5417,130464,76,19235,311,0,14471,0.0009999999999998899
1113000,7259,-1987,127821,-4106,621,125805,78,19235,311,0,14472,0.001000000000000112
1114000,11550,5614,129437,5043,4166,125896,67,19237,319,0,14473,0.0009999999999998899
1115000,11027,-522,126346,2572,-3256,127240,67,19235,274,0,14474,0.001000000000000112
1116000,7799,-616,126673,-3457,133,125551,78,19228,319,1,14475,0.0009999999999998899
1117003,7219,1721,128923,-563,1706,126844,76,19232,311,1,14476,0.0010030000000000872
1118000,11183,4894,128363,2478,3802,125842,65,19236,266,1,14477,0.0009969999999999146
1119000,8217,-746,128680,1703,-3939,130615,60,19236,266,1,14478,0.001000000000000112
1120003,9410,-4487,126617,-3896,-3338,125749,68,19235,246,1,14479,0.0010029999999998651
1121002,8611,3283,127653,1079,374,125494,68,19227,279,0,14480,0.0009990000000001942
1122000,9704,4333,128007,2588,2105,128207,82,19234,336,0,14481,0.0009979999999998324
1123003,8779,581,125863,-4850,447,126173,76,19235,311,0,14482,0.0010030000000000872
1124002,7440,4685,128576,-2296,4664,125176,65,19234,266,0,14483,0.0009989999999999721
1125002,9974,-196,125875,4251,-3557,127681,71,19234,291,0,14484,0.001000000000000112
1126006,4963,-4238,126000,1325,-2981,126532,109,19229,291,1,14485,0.0010039999999997828
1127000,6964,5555,128880,-9981,5160,126509,109,19237,446,1,14486,0.0009940000000001614
1128000,9317,3709,127390,-1138,3497,124201,68,19237,279,1,14487,0.0009999999999998899
1129000,10262,9769,128005,10297,9041,121648,62,19232,254,1,14488,0.001000000000000112
1130000,7542,-2129,126285,-296,-6115,131960,63,19233,258,1,14489,0.0009999999999998899
1131000,5406,-10131,127105,-17628,-8846,126798,91,19233,373,0,14490,0.001000000000000112
1132000,8693,5281,130848,7983,5201,126877,78,19230,373,0,14491,0.0009999999999998899
1133000,6833,2019,126825,6972,1467,127930,69,19232,319,0,14492,0.001000000000000112
1134001,4020,8697,128983,-17686,8028,119835,69,19231,283,0,14493,0.0010010000000000296
1135000,7400,-4479,124757,1857,-6374,132691,70,19232,287,0,14494,0.0009989999999999721
1136000,8040,6778,127295,3632,6999,121182,91,19230,373,1,14495,0.0009999999999998899
1137000,11565,2198,129042,-4545,-239,126777,65,19230,266,1,14496,0.001000000000000112
1138000,6781,-8906,127975,5119,-10376,131167,66,19237,266,1,14497,0.0009999999999998899
1139002,8042,-131,128203,-7626,-1397,128959,64,19236,270,1,14498,0.0010019999999999474
1140002,5503,1199,127151,-1563,347,126881,64,19236,262,1,14499,0.001000000000000112
1141002,4141,4947,126648,2872,3747,124000,87,19226,356,0,14500,0.0009999999999998899
1142000,5758,527,128246,-8884,308,126813,76,19232,311,0,14501,0.0009980000000000544
1143000,7272,4995,127051,-7181,4030,123935,81,19232,332,0,14502,0.001000000000000112
1144000,10928,-1816,128452,6515,-2217,129941,71,19234,332,0,14503,0.0009999999999998899
1145000,6096,-2343,126959,1788,-3253,125504,83,19234,291,0,14504,0.001000000000000112
1146000,5550,-5058,128086,-10045,-5642,129272,83,19227,340,1,14505,0.0009999999999998899
1147000,3349,2849,128940,-2405,1295,127240,101,19233,414,1,14506,0.001000000000000112
1148000,9804,1026,128545,1294,1037,128239,69,19235,283,1,14507,0.0009999999999998899
1149000,7710,1911,127485,-3675,258,123958,62,19234,254,1,14508,0.001000000000000112
1150000,7580,1950,127661,1164,2145,124538,73,19234,254,1,14509,0.0009999999999998899
1151000,10152,-6198,126068,-1221,-7831,132084,91,19228,299,0,14510,0.001000000000000112
1152000,7398,5083,128286,1759,2535,127192,91,19236,373,0,14511,0.0009999999999998899
1153000,8702,702,127569,-699,-841,125584,78,19235,319,0,14512,0.001000000000000112
1154000,8068,4414,127761,-3107,2501,124101,71,19237,291,0,14513,0.0009999999999998899
1155000,12718,-10967,127169,2035,-10969,134706,73,19230,299,0,14514,0.001000000000000112
1156000,6979,-2023,127288,4127,550,122645,89,19230,299,1,14515,0.0009999999999998899
1157000,7641,2529,128489,-2312,707,127434,73,19233,365,1,14516,0.001000000000000112
1158000,9340,2173,128876,-7191,1402,126717,73,19232,299,1,14517,0.0009999999999998899
1159000,7822,73,127627,5297,-2827,129375,66,19231,270,1,14518,0.001000000000000112
1160000,10515,-2423,127427,1439,-1902,126728,64,19231,262,1,14519,0.0009999999999998899
1161000,6867,1035,127046,-1496,-562,124149,90,19231,369,0,14520,0.001000000000000112
1162000,9661,-3659,128452,-310,-3591,130087,78,19231,369,0,14521,0.0009999999999998899
1163000,10880,2305,129504,2583,2622,125820,75,19236,319,0,14522,0.001000000000000112
1164002,9171,-438,128459,173,-3402,129335,75,19238,307,0,14523,0.0010019999999999474
1165000,9584,-2524,126900,-465,-3586,127020,71,19231,291,0,14524,0.0009980000000000544
1166000,7174,-2170,127432,1697,-3256,128798,89,19236,365,1,14525,0.0009999999999998899
1167000,14183,1526,127740,1092,2659,127017,66,19234,270,1,14526,0.001000000000000112
1168000,9869,4175,127527,1580,2921,123557,68,19234,270,1,14527,0.0009999999999998899
1169003,9569,2898,127731,1057,1191,126849,63,19234,279,1,14528,0.0010030000000000872
1170000,10368,-2079,127287,1336,-2615,128636,63,19233,258,1,14529,0.0009969999999999146
1171000,6578,547,128729,-1526,1364,128733,83,19232,340,0,14530,0.001000000000000112
1172000,11248,-1417,127487,-1530,-30,128032,76,19231,311,0,14531,0.0009999999999998899
1173003,7606,1916,128309,-211,1365,124720,77,19235,315,0,14532,0.0010030000000000872
1174000,11272,992,128033,885,-365,128590,69,19235,315,0,14533,0.0009969999999999146
1175000,9648,-2474,126317,2022,-2995,127837,79,19234,283,0,14534,0.001000000000000112
1176000,7528,3410,127329,-2007,3239,123793,79,19230,324,1,14535,0.0009999999999998899
1177000,9666,2393,128050,1706,1255,127505,82,19236,336,1,14536,0.001000000000000112
1178000,9531,1629,127634,-1243,1796,126156,67,19236,274,1,14537,0.0009999999999998899
1179000,10711,362,127997,622,-719,129206,59,19235,242,1,14538,0.001000000000000112
1180000,9670,-1366,126078,2499,-1937,125533,69,19235,283,1,14539,0.0009999999999998899
1181000,8202,1603,127742,-992,609,126364,81,19231,283,0,14540,0.001000000000000112
1182000,8669,1322,126871,-308,1028,127991,76,19232,332,0,14541,0.0009999999999998899
1183001,9171,3323,127334,-3545,2785,125292,76,19231,311,0,14542,0.0010010000000000296
1184002,8767,3658,127396,1456,2510,125618,69,19231,283,0,14543,0.0010010000000000296
1185002,8612,585,126522,200,-197,126079,74,19233,303,0,14544,0.0009999999999998899
1186000,5786,-1048,127978,-3548,-1934,127951,106,19233,434,1,14545,0.0009980000000000544
1187000,6651,-1330,127733,-2329,-1806,130085,68,19232,434,1,14546,0.001000000000000112
1188000,5948,7201,127825,-228,6541,121152,63,19235,279,1,14547,0.0009999999999998899
1189000,12902,13980,129172,-3877,13916,124198,63,19236,258,1,14548,0.001000000000000112
1190000,7602,-6587,125248,11104,-7558,130123,66,19232,270,1,14549,0.0009999999999998899
1191000,4740,1327,128732,-16753,657,123685,92,19233,377,0,14550,0.0009999999999998899
1192000,12298,-1626,130238,-1635,-1427,129097,75,19234,307,0,14551,0.001000000000000112
1193000,1723,-4432,126540,16781,-6038,130604,70,19234,307,0,14552,0.0009999999999998899
1194003,8286,2174,127624,-16464,439,127053,68,19240,287,0,14553,0.0010030000000000872
1195000,4054,10817,126218,-5746,9557,118759,68,19232,279,0,14554,0.0009969999999999146
1196002,11848,7596,127782,1296,7499,125473,90,19225,369,1,14555,0.0010020000000001694
1197000,9566,-4284,126428,7223,-4931,128074,66,19234,270,1,14556,0.0009979999999998324
1198000,5144,-5570,127600,-3674,-7522,130222,67,19235,274,1,14557,0.001000000000000112
1199000,8499,4516,129661,-11823,3425,126591,63,19235,274,1,14558,0.0009999999999998899
1200000,5736,-4396,127637,9638,-4279,132547,83,19233,258,1,14559,0.001000000000000112
1201000,6135,2819,127708,-3315,114,120507,83,19229,340,0,14560,0.0009999999999998899
1202000,2101,9337,127812,-6852,9786,125213,76,19232,311,0,14561,0.001000000000000112
1203000,9299,-1665,126355,-8211,-426,126587,80,19234,328,0,14562,0.0009999999999998899
1204000,11261,1570,128407,2281,-1888,127956,69,19234,283,0,14563,0.001000000000000112
1205000,6234,-3506,128233,6872,-8315,126452,79,19234,283,0,14564,0.0009999999999998899
1206007,4580,321,128349,-11487,-1383,127758,101,19227,324,1,14565,0.0010070000000002022
1207002,4419,-5543,128756,-7418,-5499,131936,101,19233,414,1,14566,0.0009949999999998571
1208000,12472,5221,128420,2579,8916,121273,68,19235,279,1,14567,0.0009980000000000544
1209000,6603,9111,128114,-346,3970,124220,64,19233,262,1,14568,0.0009999999999998899
1210002,8173,-6629,125368,-7735,-8738,129366,74,19232,303,1,14569,0.0010020000000001694
1211002,7530,-4964,127748,2819,-4359,130577,91,19232,303,0,14570,0.0009999999999998899
1212000,8999,3428,129042,3864,4243,126442,77,19233,373,0,14571,0.0009980000000000544
1213000,9113,6304,128977,-5679,2982,124064,77,19237,315,0,14572,0.0009999999999998899
1214000,6206,-5378,126746,-3019,-8349,131591,69,19236,283,0,14573,0.001000000000000112
1215000,12558,-3430,128096,3105,-834,126547,75,19226,307,1,14574,0.0009999999999998899
1216000,6673,3524,128611,3574,1904,125042,107,19236,438,1,14575,0.001000000000000112
1217000,8314,-124,127823,-7783,-2524,127968,73,19236,438,1,14576,0.0009999999999998899
1218001,7440,-3027,128091,-3700,-3354,129547,66,19239,299,1,14577,0.0010010000000000296
1219000,9489,1759,128235,6592,2068,127687,66,19232,270,1,14578,0.0009989999999999721
1220000,10206,1413,127353,2852,-720,125273,64,19235,262,1,14579,0.001000000000000112
1221001,5925,-6699,125863,-5528,-7211,127215,90,19229,369,0,14580,0.0010010000000000296
1222000,11779,-142,128650,-2286,-1312,125225,80,19237,328,0,14581,0.0009989999999999721
1223000,10090,5010,128871,7342,4151,127814,75,19237,307,0,14582,0.0009999999999998899
1224000,10543,1341,128604,-2799,-666,126053,69,19235,307,0,14583,0.001000000000000112
1225000,6698,-9369,125812,-37,-10971,131669,86,19232,283,1,14584,0.0009999999999998899
1226000,7847,-440,128493,1000,-304,127959,86,19231,352,1,14585,0.001000000000000112
1227000,13036,2852,128276,4419,2526,125727,65,19233,266,1,14586,0.0009999999999998899
1228000,8493,4105,127639,-2956,3455,123956,69,19235,283,1,14587,0.001000000000000112
1229002,12427,3730,127266,1156,2588,125083,63,19235,258,1,14588,0.0010019999999999474
1230000,8876,-3026,127254,6149,-3779,129549,81,19234,258,0,14589,0.0009980000000000544
1231002,9632,-208,128569,-2546,-846,127963,75,19228,332,0,14590,0.0010019999999999474
1232000,6688,-3215,127149,-5,-4494,128954,75,19233,307,0,14591,0.0009980000000000544
1233000,10120,5722,129190,-2918,5342,124009,79,19235,324,0,14592,0.0009999999999998899
1234000,11002,-1283,127205,5076,-1892,129360,67,19232,274,0,14593,0.001000000000000112
1235001,9331,-1317,125903,-180,-2167,126306,79,19232,324,0,14594,0.0010010000000000296
1236000,7685,3744,127908,-2574,3195,124344,81,19230,324,1,14595,0.0009989999999999721
1237000,9905,3327,127455,546,2479,126051,65,19236,332,1,14596,0.0009999999999998899
1238000,10455,-822,127916,1075,-1034,128277,65,19234,266,1,14597,0.001000000000000112
1239002,6659,-4585,126355,-3,-5205,128106,58,19239,238,1,14598,0.0010019999999999474
1240000,10375,3320,127824,-820,2396,125550,69,19233,283,0,14599,0.0009980000000000544
1241000,7825,2299,127526,1528,1132,125423,87,19233,356,0,14600,0.0009999999999998899
1242000,9732,1473,127999,69,1494,127831,77,19233,356,0,14601,0.001000000000000112
1243000,7546,3905,127634,-3973,2954,126741,66,19233,315,0,14602,0.0009999999999998899
1244000,9663,1520,126368,-946,539,124530,66,19234,270,0,14603,0.001000000000000112
1245003,8569,1334,127119,6826,707,128737,69,19237,283,0,14604,0.0010029999999998651
1246000,4924,-4210,126842,-5149,-4279,129002,103,19239,422,1,14605,0.0009970000000001367
1247000,9021,5360,128087,-8029,3757,122686,68,19234,279,1,14606,0.0009999999999998899
1248000,7378,5920,127296,2088,6459,127979,62,19234,279,1,14607,0.001000000000000112
1249000,8688,1891,126486,5174,-120,121726,64,19231,254,1,14608,0.0009999999999998899
1250000,7061,1183,126769,-1291,-6894,134023,64,19234,262,1,14609,0.001000000000000112
1251001,8527,-8914,126393,-9277,701,123497,87,19230,356,0,14610,0.0010010000000000296
1252000,8500,16956,130500,429,11599,122922,78,19237,319,0,14611,0.0009989999999999721
1253000,7972,-6447,126921,3942,-8253,132081,72,19237,295,0,14612,0.0009999999999998899
1254000,3762,-629,126155,-6173,-321,125843,66,19237,295,0,14613,0.001000000000000112
1255000,6316,-4795,126286,29,1770,128555,89,19229,270,1,14614,0.0009999999999998899
1256000,6003,14435,128035,-5889,17487,114543,89,19227,365,1,14615,0.001000000000000112
1257000,12275,1782,128674,5394,-6073,134586,68,19234,279,1,14616,0.0009999999999998899
1258000,5548,-10007,126251,-4782,-7365,128397,70,19237,287,1,14617,0.001000000000000112
1259000,7695,-279,128209,-3424,-1063,127732,63,19236,258,1,14618,0.0009999999999998899
1260000,6401,919,128587,2553,1238,126927,83,19236,258,0,14619,0.001000000000000112
1261000,4623,2508,127510,-2034,574,126536,75,19226,340,0,14620,0.0009999999999998899
1262000,5095,1222,126954,-11997,2323,126511,75,19233,307,0,14621,0.001000000000000112
1263000,6791,8247,127698,1058,6234,122141,80,19235,328,0,14622,0.0009999999999998899
1264000,9978,-4675,127312,1911,-6713,130649,70,19236,287,0,14623,0.001000000000000112
1265000,6410,-1164,127665,-1535,-1826,125774,79,19226,324,0,14624,0.0009999999999998899
1266000,5219,-1523,128583,-6736,-2708,129585,110,19226,451,1,14625,0.001000000000000112
1267002,7912,1457,128776,-2128,1293,126552,69,19236,451,1,14626,0.0010019999999999474
1268002,8683,-1349,127768,359,-3366,129222,62,19234,283,1,14627,0.0009999999999998899
1269000,8600,1067,126441,303,1512,123507,62,19237,254,1,14628,0.0009980000000000544
1270000,7256,4333,127466,-3689,1970,124354,71,19236,291,0,14629,0.001000000000000112
1271000,7910,-5449,126996,-1938,-6134,131886,96,19236,393,0,14630,0.0009999999999998899
1272000,8326,1423,128401,3888,2742,125826,79,19236,324,0,14631,0.001000000000000112
1273003,5889,-905,128335,-4929,-1582,127548,72,19234,324,0,14632,0.0010029999999998651
1274002,9675,569,127570,-2603,-1222,125742,73,19234,295,0,14633,0.0009989999999999721
1275000,9532,-11108,125634,4754,-12210,134412,73,19232,299,1,14634,0.0009980000000000544
1276000,7730,2849,129039,-1402,3615,123846,105,19233,430,1,14635,0.001000000000000112
1277000,8393,6483,127861,-3139,4798,123245,73,19231,299,1,14636,0.0009999999999998899
1278000,7070,-653,128250,-2785,-1912,129999,68,19231,279,1,14637,0.001000000000000112
1279000,9490,-5112,127513,3191,-5714,130606,64,19237,279,1,14638,0.0009999999999998899
1280000,7864,349,127344,1607,-401,125498,89,19233,262,1,14639,0.001000000000000112
1281000,7848,3450,127938,-2891,2381,123160,89,19228,365,0,14640,0.0009999999999998899
1282000,10481,-4883,126894,-1490,-6019,130969,77,19235,315,0,14641,0.001000000000000112
1283000,11346,2589,128955,2165,1791,127094,74,19233,303,0,14642,0.0009999999999998899
1284001,9962,1665,128204,2958,872,125651,70,19231,287,0,14643,0.0010010000000000296
1285002,7718,-2528,127275,-1886,-3870,127803,86,19231,287,1,14644,0.0010010000000000296
1286000,8603,-5410,127953,-689,-6567,131614,67,19234,352,1,14645,0.0009980000000000544
1287000,11715,3563,128180,4821,2136,126541,67,19234,274,1,14646,0.0009999999999998899
1288000,9322,7744,128109,-585,7013,122767,69,19236,283,1,14647,0.001000000000000112
1289000,10916,-610,126305,-65,-1711,127357,62,19234,254,1,14648,0.0009999999999998899
1290000,10895,-1571,127958,2632,-3679,129109,79,19227,324,0,14649,0.001000000000000112
1291000,8538,-506,128465,2020,-836,128430,72,19227,324,0,14650,0.0009999999999998899
1292001,8213,822,127923,-2156,-55,125708,78,19233,295,0,14651,0.0010010000000000296
1293000,8772,-645,129203,-2892,-800,129554,78,19234,319,0,14652,0.0009989999999999721
1294000,11272,-239,127944,3735,-733,125932,67,19234,274,0,14653,0.001000000000000112
1295000,8450,1486,126807,1838,909,126877,77,19229,315,1,14654,0.0009999999999998899
1296000,6210,838,127094,-3834,-812,124893,85,19242,348,1,14655,0.001000000000000112
1297000,11284,4813,127536,-696,4794,124981,68,19242,348,1,14656,0.0009999999999998899
1298000,10248,2144,128408,2644,-425,128747,61,19236,279,1,14657,0.001000000000000112
1299002,10118,-2454,126856,2372,-3178,126900,61,19239,250,1,14658,0.0010019999999999474
1300000,8435,-1957,126436,-1467,-2146,127015,65,19229,266,0,14659,0.0009980000000000544
1301000,7819,4329,128277,2367,4073,125440,82,19231,336,0,14660,0.0009999999999998899
1302002,8821,4321,128018,-1175,2512,126606,75,19233,307,0,14661,0.0010019999999999474
1303000,8126,2826,127266,-4444,2433,125160,69,19233,307,0,14662,0.0009980000000000544
1304000,9580,3842,127954,2377,1944,125312,72,19236,283,0,14663,0.001000000000000112
1305001,7744,-344,127033,1587,-3358,128341,72,19230,295,1,14664,0.0010009999999998076
1306002,4662,-793,127036,-4412,-5443,129256,104,19235,426,1,14665,0.0010010000000000296
1307000,6418,3613,127561,-592,8306,120144,68,19238,279,1,14666,0.0009980000000000544
1308000,11906,14036,129141,-2932,10682,125500,63,19239,258,1,14667,0.001000000000000112
1309000,10537,-2952,126242,11849,-4369,128017,62,19239,258,1,14668,0.0009999999999998899
1310000,4359,-83,126745,-13975,-1017,125206,87,19232,254,0,14669,0.0009999999999998899
1311000,9930,-1419,129191,-6954,-1494,127823,87,19226,356,0,14670,0.001000000000000112
1312000,5766,-4585,126525,15107,-6318,131945,76,19229,311,0,14671,0.0009999999999998899
1313000,7286,1634,128213,-5989,2985,126020,72,19240,295,0,14672,0.001000000000000112
1314000,3644,12156,126241,-12207,11095,118531,67,19231,274,0,14673,0.0009999999999998899
1315001,8652,8315,127233,-2233,7025,125107,87,19231,356,1,14674,0.0010010000000000296
1316000,10489,-3540,127276,7570,-5463,129421,64,19227,356,1,14675,0.0009989999999999721
1317000,7932,-4603,128081,3287,-4144,128543,67,19236,262,1,14676,0.001000000000000112
1318000,5875,3579,129872,-15589,2549,125115,67,19237,274,1,14677,0.0009999999999998899
1319000,8476,-5905,127872,6176,-7318,132207,62,19236,254,1,14678,0.001000000000000112
1320000,5555,1501,127548,1332,2131,125959,81,19228,332,0,14679,0.0009999999999998899
1321000,3633,8497,128320,-11199,7392,122177,74,19228,303,0,14680,0.001000000000000112
1322000,5693,-1281,125571,-3330,-2367,126567,81,19236,303,0,14681,0.0009999999999998899
1323001,9719,2747,128953,2620,983,127208,70,19234,332,0,14682,0.0010010000000000296
1324001,10583,16,128554,1541,-484,127892,70,19230,287,0,14683,0.001000000000000112
1325000,4365,959,128238,-3837,-401,123722,80,19225,328,1,14684,0.0009989999999999721
1326003,5205,-14112,127538,-7725,-15783,137208,109,19235,446,1,14685,0.0010030000000000872
1327000,6979,2094,127082,3271,1008,126289,69,19235,283,1,14686,0.0009969999999999146
1328000,6212,13332,129176,-6112,12736,120183,62,19238,283,1,14687,0.0009999999999998899
1329000,8315,4084,126311,-4286,3032,123827,73,19236,254,1,14688,0.001000000000000112
1330000,9404,-6654,126267,5661,-7561,132110,73,19232,299,0,14689,0.0009999999999998899
1331000,9006,-4139,127837,-729,-6275,130908,98,19232,401,0,14690,0.001000000000000112
1332000,9493,7543,129928,-3553,7318,119555,78,19235,319,0,14691,0.0009999999999998899
1333000,8906,-5211,128192,1878,-5948,133408,69,19239,283,0,14692,0.001000000000000112
1334000,7729,-3070,127372,1097,-4416,127650,73,19239,283,0,14693,0.0009999999999998899
1335000,6108,1702,127634,-5711,1055,125886,106,19230,299,1,14694,0.001000000000000112
1336000,6230,3011,127903,-240,2235,124561,106,19234,434,1,14695,0.0009999999999998899
1337000,10547,-2935,127627,150,-2647,128125,73,19236,299,1,14696,0.001000000000000112
1338000,11324,-1211,128439,-2638,-2988,130332,69,19232,283,1,14697,0.0009999999999998899
1339000,9960,2536,127927,7880,3113,127451,65,19232,266,1,14698,0.001000000000000112
1340000,8626,-9300,126018,-826,-6961,129320,88,19232,266,0,14699,0.0009999999999998899
1341000,7068,1591,128584,-7493,-716,124631,78,19231,360,0,14700,0.001000000000000112
1342002,9073,4775,127734,4993,3404,127296,78,19231,319,0,14701,0.0010019999999999474
1343000,9408,2574,128824,-1702,443,124962,78,19232,319,0,14702,0.0009980000000000544
1344000,10258,-5374,127287,-2470,-8791,131953,71,19234,291,0,14703,0.0009999999999998899
1345001,10773,-5056,127304,5826,-1981,127708,86,19230,352,1,14704,0.0010010000000000296
1346002,10163,5158,128421,3319,3132,124666,67,19230,352,1,14705,0.0010010000000000296
1347000,11049,-123,127285,-809,-1250,127871,71,19236,274,1,14706,0.0009980000000000544
1348001,10730,3351,127618,2654,2306,124260,71,19236,291,1,14707,0.0010010000000000296
1349000,9605,1936,127772,3530,-12,127559,65,19235,266,1,14708,0.0009989999999999721
1350001,8179,-879,128060,-1387,-2546,127392,78,19229,319,0,14709,0.0010010000000000296
1351001,6833,-4322,128000,-1169,-4337,130680,74,19228,303,0,14710,0.0009999999999998899
1352002,10542,960,129128,-533,3330,127004,78,19228,303,0,14711,0.0010010000000000296
1353000,10648,4720,128537,4800,3175,124648,66,19233,319,0,14712,0.0009980000000000544
1354001,10714,-809,126767,-879,-2188,127833,66,19233,270,0,14713,0.0010010000000000296
1355000,8889,-2688,126516,-1725,-876,126202,77,19228,315,1,14714,0.0009989999999999721
1356000,7573,3164,128038,1694,3807,126308,88,19240,360,1,14715,0.0009999999999998899
1357000,11292,65,126445,2120,-132,125962,67,19237,274,1,14716,0.001000000000000112
1358000,7919,1143,128732,-1888,-73,127054,59,19237,242,1,14717,0.0009999999999998899
1359001,10787,431,126889,1946,-1156,127763,65,19236,242,1,14718,0.0010010000000000296
1360000,9184,-1192,127555,2366,-2083,128340,87,19231,266,0,14719,0.0009989999999999721
1361000,9214,3867,127357,253,2643,124216,87,19232,356,0,14720,0.001000000000000112
1362003,8743,1653,126599,-1858,559,126262,76,19236,311,0,14721,0.0010029999999998651
1363002,9368,7002,127808,-278,7086,122371,68,19238,279,0,14722,0.0009990000000001942
1364000,8975,-95,126531,1898,-2600,129840,70,19238,287,0,14723,0.0009979999999998324
1365000,5397,-3116,127077,-5389,-2709,126892,100,19227,287,1,14724,0.001000000000000112
1366001,4254,5230,129756,-2767,4668,124627,68,19230,410,1,14725,0.0010010000000000296
1367000,8159,-2346,127030,329,-3639,131233,68,19234,279,1,14726,0.0009989999999999721
1368000,9365,-1411,125719,-228,-749,121884,64,19233,262,1,14727,0.0009999999999998899
1369001,10995,16189,128708,6301,15409,123350,62,19231,254,1,14728,0.0010010000000000296
1370000,7596,-7159,123734,-6620,-8088,128246,85,19231,348,0,14729,0.0009989999999999721
1371000,6708,8341,130708,-13262,7960,122474,74,19230,348,0,14730,0.001000000000000112
1372000,9572,-10262,127523,16740,-11332,137112,73,19235,303,0,14731,0.0009999999999998899
1373000,-123,2336,128004,-2716,1298,123593,73,19233,299,0,14732,0.001000000000000112
1374000,8856,-7520,124804,-20388,-8781,126970,68,19236,279,0,14733,0.0009999999999998899
1375000,5916,13278,126567,12376,11730,120879,87,19225,356,1,14734,0.001000000000000112
1376000,11786,13475,127728,-3844,12841,121193,61,19235,250,1,14735,0.0009999999999998899
1377000,6742,-9954,126843,-3414,-10806,131896,67,19235,250,1,14736,0.001000000000000112
1378000,7048,-6526,126636,-80,-7961,129545,63,19235,274,1,14737,0.0009999999999998899
1379000,9153,3257,130168,405,1711,127809,63,19235,258,1,14738,0.001000000000000112
1380000,2807,1631,127333,112,1405,125439,78,19230,319,0,14739,0.0009999999999998899
1381000,6183,-3052,126931,-8600,-4411,129430,82,19234,336,0,14740,0.001000000000000112
1382003,4051,9386,127510,-5136,8212,121289,84,19235,344,0,14741,0.0010029999999998651
1383002,12363,2106,127091,-2180,2999,125016,71,19235,344,0,14742,0.0009989999999999721
1384000,7957,-456,127690,5042,-1231,127941,79,19233,291,0,14743,0.0009980000000000544
1385000,5167,-10806,127474,-3128,-11258,131904,79,19232,324,1,14744,0.001000000000000112
1386000,4928,2974,129227,-9834,-42,124121,115,19236,471,1,14745,0.0009999999999998899
1387000,6937,463,128453,4999,1656,132617,71,19238,291,1,14746,0.001000000000000112
1388000,9347,-921,125852,-4505,-3674,119365,63,19235,258,1,14747,0.0009999999999998899
1389000,6944,9307,128447,-2651,8200,126773,69,19235,258,1,14748,0.001000000000000112
1390000,11370,-2655,126711,-551,-2227,128937,101,19230,283,0,14749,0.0009999999999998899
1391000,6307,-1094,127073,314,-2414,130683,101,19235,414,0,14750,0.001000000000000112
1392000,7999,-4554,128642,-212,-1890,128099,79,19239,324,0,14751,0.0009999999999998899
1393000,9947,7819,128693,-4750,5633,121271,71,19238,291,0,14752,0.001000000000000112
1394000,8518,-6387,127317,4562,-9850,136242,73,19229,299,0,14753,0.0009999999999998899
1395000,9589,-3614,127031,-2158,-681,121568,101,19229,299,1,14754,0.001000000000000112
1396000,6384,4647,128530,-380,3128,126781,75,19232,414,1,14755,0.0009999999999998899
1397000,10143,3693,130018,-5179,2506,125850,75,19236,307,1,14756,0.001000000000000112
1398000,7312,-4013,127894,6014,-7968,132835,70,19236,287,1,14757,0.0009999999999998899
1399000,8695,-6176,127327,-2045,-4046,129840,63,19230,258,1,14758,0.001000000000000112
1400000,8088,5420,127351,-244,4466,119826,85,19225,348,0,14759,0.0009999999999998899
1401001,8043,-2613,127494,1074,-3777,131170,75,19225,348,0,14760,0.0010010000000000296
1402000,13502,700,127715,402,1868,124913,74,19232,307,0,14761,0.0009989999999999721
1403000,8609,1555,128653,1896,157,127147,74,19234,303,0,14762,0.001000000000000112
1404000,10538,909,128092,-952,-795,126455,68,19232,279,0,14763,0.0009999999999998899
