t_us,ax,ay,az,ax1,ay1,az1,shunt_raw,bus_raw,curr_raw,pg_rpm,seq,dt
0,12869,-56,130927,26722,-9296,147792,1000,19185,4096,1,52803,
1000,10156,-10337,130265,-9504,282,129032,763,19130,3125,0,52804,0.001
1998,15146,19286,128592,-13597,1462,118719,774,19130,3125,0,52805,0.0009979999999999998
2999,2953,-9982,132712,25655,-13402,144919,787,19114,3170,1,52806,0.0010010000000000002
3998,7597,1708,137606,-19518,1679,126207,787,19165,3223,0,52807,0.0009989999999999999
4998,13853,-9886,132540,-10970,-22771,151472,862,19145,3530,0,52808,0.001
5998,1733,-13758,129590,17124,-3573,120079,809,19104,3313,1,52809,0.001
6998,11947,-1775,120438,2149,-6261,120002,535,19145,2191,1,52810,0.001
7998,14559,11292,128727,18317,24481,124124,934,19145,2191,0,52811,0.001
8998,1957,-2813,122104,-17040,-7682,120132,899,19148,3825,1,52812,0.0009999999999999992
9998,15785,4987,125616,-26083,16620,114447,899,19126,3682,1,52813,0.0010000000000000009
10998,10017,7727,127815,56014,-6123,131489,619,19140,2535,0,52814,0.0009999999999999992
11998,-2942,-21556,120066,-24057,-27881,126604,789,19138,3232,0,52815,0.0010000000000000009
12998,256,-10661,121200,-27415,-3278,124987,1018,19190,4169,1,52816,0.0009999999999999992
13998,12977,20593,126356,26912,35264,104551,751,19190,3076,0,52817,0.0010000000000000009
14998,20025,53628,127852,-6435,44248,103795,704,19108,3076,0,52818,0.0009999999999999992
15998,5403,-9446,124418,-18078,-25599,138732,782,19127,2883,1,52819,0.0009999999999999992
16998,6900,-16817,125169,-5758,-11470,130345,782,19171,3203,1,52820,0.0010000000000000009
17998,8498,-1743,135610,25171,-3805,135648,817,19144,3346,0,52821,0.0010000000000000009
18998,7496,877,137427,-8505,3014,124041,807,19114,3305,1,52822,0.0009999999999999974
19998,2404,-7789,132697,-15596,-14645,145535,745,19114,3051,1,52823,0.0010000000000000009
20998,10752,-5769,129218,-9453,1553,128857,909,19164,3051,0,52824,0.0010000000000000009
21998,19673,28791,130570,13981,18493,120369,858,19169,3723,0,52825,0.0010000000000000009
22998,108,-7915,129947,9945,-11847,139027,858,19119,3514,1,52826,0.0009999999999999974
23998,11792,-12135,135673,-22690,-9425,131165,572,19147,2343,0,52827,0.0010000000000000009
24999,5494,-20906,130095,13036,-14159,151330,843,19150,3453,0,52828,0.0010010000000000019
25998,10048,-6176,127134,-1055,-6288,124313,908,19150,3719,1,52829,0.0009989999999999999
26998,9170,2781,120572,-9696,3592,115010,692,19152,3719,1,52830,0.0009999999999999974
27998,14809,12328,125741,31856,12845,127187,757,19121,2834,0,52831,0.0010000000000000009
28998,5013,3088,125240,-7779,3826,114009,757,19126,3100,1,52832,0.0010000000000000009
29998,10655,3367,129081,-42721,1272,122633,1053,19190,4313,1,52833,0.0010000000000000009
30998,11780,-1211,127994,54039,-3278,127978,723,19122,2961,0,52834,0.0009999999999999974
31998,-7517,-6695,122793,-6745,-14230,124777,734,19124,3006,0,52835,0.0010000000000000009
32998,964,-7950,124783,-44588,-5178,121636,794,19124,3006,1,52836,0.0010000000000000009
33998,16467,20136,128781,23587,25955,110519,854,19166,3252,0,52837,0.0010000000000000009
34998,17791,30138,124033,16883,27825,112079,854,19145,3498,0,52838,0.0010000000000000009
35998,6189,116,123143,-26765,-3979,136235,797,19106,3264,1,52839,0.000999999999999994
36998,3255,-20462,125495,-10492,-26818,138010,551,19157,2257,1,52840,0.0010000000000000009
37998,9051,-572,133738,18342,-189,127330,930,19157,3809,0,52841,0.0010000000000000009
38998,9235,2435,136791,2192,4089,135883,878,19157,3809,1,52842,0.0010000000000000009
40006,1165,-9109,126701,-7662,-3891,131456,634,19136,3596,1,52843,0.001008000000000002
40998,13167,9547,131031,-20228,7929,128513,634,19139,2597,0,52844,0.0009919999999999998
41998,19215,13015,130136,28333,2785,128593,810,19142,3318,0,52845,0.0010000000000000009
43000,4458,1754,131000,-9404,-1250,132144,940,19159,3850,1,52846,0.001001999999999996
44000,4197,-18787,135375,-22750,-28034,144289,726,19112,2973,0,52847,0.0010000000000000009
44998,6056,-19267,129711,16075,-10206,137095,719,19112,2973,0,52848,0.0009979999999999989
45998,10674,3468,132015,5973,4007,127810,996,19129,2945,1,52849,0.0010000000000000009
46998,9758,-4908,118098,-8092,-2941,109573,996,19180,4079,1,52850,0.0010000000000000009
47999,15715,25725,128567,22376,27732,119300,794,19131,3252,0,52851,0.0010010000000000019
48998,4308,-8413,123861,-13560,-25708,131634,785,19115,3215,1,52852,0.0009989999999999999
49998,9022,-669,124742,-32043,15126,110161,796,19173,3260,1,52853,0.0010000000000000009
50998,12915,3849,129077,64171,-14767,144367,855,19173,3260,0,52854,0.000999999999999994
51998,-5127,-12078,116841,-29861,6320,100999,833,19159,3502,0,52855,0.0010000000000000009
52998,6293,12356,126447,-30692,4722,131920,833,19102,3412,1,52856,0.0010000000000000009
53998,13094,-16406,124169,42246,2667,119174,562,19144,2302,0,52857,0.0010000000000000009
54998,18794,47033,124189,-18787,45187,95453,945,19157,3870,0,52858,0.0010000000000000009
56000,4479,1413,127180,-14061,-20369,142329,879,19154,3600,1,52859,0.001001999999999996
57000,4834,-8855,123379,4312,-5878,124620,665,19154,3600,1,52860,0.0010000000000000009
58018,9319,-10211,134159,12733,-17444,150742,751,19130,2724,0,52861,0.001018000000000005
58998,3454,6342,134533,-17376,15575,110425,751,19139,3076,1,52862,0.0009799999999999948
59998,9095,8202,130517,-6633,-5379,141761,1022,19180,4186,1,52863,0.0010000000000000009
60998,8470,-11640,128047,2133,-400,133968,717,19121,2937,0,52864,0.0010000000000000009
62000,21597,20863,131425,1931,8349,122023,711,19134,2912,0,52865,0.0010020000000000029
62998,-557,-10008,130877,9435,-9817,141039,907,19134,3715,1,52866,0.0009979999999999989
63998,8549,-2227,139204,-20446,-5864,126342,821,19171,3715,0,52867,0.0010000000000000009
64998,7694,-24496,129703,5680,-27904,156999,784,19141,3363,0,52868,0.0010000000000000009
65998,4023,-6773,126800,-1645,-5316,124161,784,19112,3211,1,52869,0.0010000000000000009
66999,16528,14492,124307,5626,15460,106193,695,19154,2847,1,52870,0.0010010000000000019
67999,11092,10780,123016,27227,5412,132646,975,19168,3993,0,52871,0.000999999999999987
68998,13046,-1335,128884,-32740,3267,110711,865,19168,3543,1,52872,0.0009990000000000138
69998,11176,-375,126215,-6682,2115,127628,527,19094,3543,1,52873,0.000999999999999987
70998,6278,-3847,125389,43345,-7024,129915,847,19147,2158,0,52874,0.0010000000000000009
71998,-4904,-6943,122439,-36223,-15424,118889,847,19145,3469,1,52875,0.0010000000000000009
72998,2747,-11115,120661,-3760,-9134,130607,939,19168,3846,1,52876,0.0010000000000000009
73998,17178,28973,124563,14108,36907,100642,709,19118,2904,0,52877,0.0010000000000000009
74999,14458,34183,125871,-8806,28002,113029,795,19118,3256,0,52878,0.0010010000000000019
75998,3160,-4760,120976,-11780,-13004,129744,898,19132,3256,1,52879,0.0009989999999999999
76998,6232,-10412,127924,3983,-14159,135351,753,19184,3678,0,52880,0.0010000000000000009
77998,6143,-4634,133871,566,-3792,133538,753,19125,3084,0,52881,0.0010000000000000009
79000,9643,5494,136915,2565,5012,124718,763,19119,3125,1,52882,0.0010020000000000029
79998,-741,-6898,130558,-8463,-8835,141691,792,19173,3244,1,52883,0.0009979999999999989
80998,20417,3089,128431,-17027,5038,124694,831,19155,3404,0,52884,0.0010000000000000009
81998,15372,7020,128711,17376,-1006,133112,815,19155,3404,0,52885,0.0010000000000000009
82998,4796,1651,131418,11043,439,129740,597,19106,3338,1,52886,0.0010000000000000009
83998,7357,-14255,134707,-20308,-15243,146941,597,19145,2445,0,52887,0.000999999999999987
85000,3201,-22108,128790,5907,-21851,133478,953,19160,3903,0,52888,0.0010020000000000029
85998,9725,4507,126337,1704,2798,124516,873,19145,3576,1,52889,0.0009979999999999989
86998,11951,7367,121827,-2719,19119,109656,656,19136,2687,0,52890,0.0010000000000000009
88000,17714,21887,124432,22464,3968,128118,839,19136,2687,0,52891,0.0010020000000000029
89000,5366,-15779,124465,-9655,-4536,121945,993,19149,3436,1,52892,0.0010000000000000009
89999,9792,9346,127514,-28986,2109,120530,993,19158,4067,1,52893,0.0009989999999999999
90998,4903,-9884,125735,37650,-18892,139450,698,19116,2859,0,52894,0.0009989999999999999
91998,-4705,-3735,121121,-54851,3186,106637,678,19128,2777,1,52895,0.0010000000000000009
92998,8105,3872,124330,8954,2626,128897,959,19172,3928,1,52896,0.0010000000000000009
94001,13405,17645,125178,21673,37423,100318,824,19172,3928,0,52897,0.0010030000000000039
94998,18908,36432,126223,-20177,8978,117104,778,19128,3375,0,52898,0.0009969999999999979
96004,1299,-14918,122021,-4462,-17943,137477,778,19120,3186,1,52899,0.001005999999999993
96999,10728,-2932,127998,7255,-3280,131711,695,19160,2847,0,52900,0.0009950000000000098
98003,6910,-11907,129883,-1783,-2673,136768,896,19158,3670,0,52901,0.001003999999999991
98998,5003,10530,136287,-10021,9749,123317,842,19105,3449,1,52902,0.0009949999999999959
99998,4959,-8184,127857,-7259,-10820,142460,538,19105,3449,1,52903,0.0010000000000000009
100998,13142,5057,128454,2647,12766,124054,866,19152,2203,0,52904,0.0010000000000000009
101999,15413,10387,128915,21444,-3001,129361,866,19152,3547,1,52905,0.0010010000000000019
103001,2382,-1471,131350,-17736,-1845,130056,913,19148,3739,1,52906,0.0010020000000000029
103998,14642,-10340,136744,-14587,-19772,145642,667,19128,2732,0,52907,0.0009969999999999979
104998,5266,-18910,129449,19568,-11972,138161,817,19133,3346,0,52908,0.0010000000000000009
106001,6368,4904,126638,-4058,-872,121500,1003,19133,4108,1,52909,0.0010030000000000039
106998,10613,5324,125060,-795,1184,119780,743,19185,4108,0,52910,0.0009969999999999979
107998,11317,1970,121959,25536,-3838,130630,714,19123,3043,0,52911,0.0010000000000000009
108998,15230,4423,128360,-42635,13615,112876,714,19125,2924,1,52912,0.0010000000000000009
109998,14066,17892,128903,12280,6938,116066,919,19178,3764,1,52913,0.0010000000000000009
110998,718,-4262,124099,36378,-18044,137747,781,19141,3199,0,52914,0.0010000000000000009
111998,1841,-26764,119554,-47171,-31555,129790,863,19141,3535,1,52915,0.0010000000000000009
112999,-160,-1797,121613,12441,15251,114248,645,19106,3535,1,52916,0.001000999999999988
113998,21155,41824,127508,7573,42496,105124,980,19153,2642,0,52917,0.0009989999999999999
114998,11028,15203,119087,-11906,14697,114796,980,19166,4014,0,52918,0.0010000000000000009
116013,7,-5675,122216,-11140,-12232,135140,848,19143,3473,1,52919,0.001015000000000002
116998,13338,-11185,127260,14538,-12120,133302,631,19142,2584,0,52920,0.0009849999999999998
118000,2312,4618,133217,-494,4686,125237,802,19147,3285,0,52921,0.0010020000000000029
118998,10115,-5298,134784,-9237,-12370,141667,953,19147,3285,1,52922,0.0009979999999999989
119999,-452,-6265,126986,-10872,-1640,129748,679,19148,3903,1,52923,0.0010010000000000019
120998,18884,22207,133650,-3267,16114,128537,679,19118,2781,0,52924,0.0009989999999999999
122001,10513,-1145,127177,16426,-7351,130235,700,19130,2867,1,52925,0.0010030000000000039
123000,4921,5240,134749,-7789,4382,126492,1071,19193,4386,1,52926,0.0009989999999999999
123998,8698,-21579,133338,-9079,-26692,150999,780,19127,3195,0,52927,0.0009979999999999989
124998,4364,-17006,128795,7912,-14054,134005,746,19127,3195,0,52928,0.0010000000000000009
125998,10951,1333,129742,-966,-3212,129625,787,19118,3055,1,52929,0.0010000000000000009
126998,13529,3264,120308,2938,2780,113216,787,19162,3223,0,52930,0.0010000000000000009
127998,13696,24329,125439,19897,20003,121963,887,19145,3633,0,52931,0.0010000000000000009
129001,8929,-21549,119617,-25499,-22287,113504,837,19093,3428,1,52932,0.0010030000000000039
129998,7660,18059,129021,-10111,19868,124041,670,19165,2744,1,52933,0.0009969999999999979
130998,3378,-10647,124043,43463,-18587,140480,958,19165,2744,0,52934,0.0010000000000000009
131998,-4847,-4114,119980,-38155,-6358,103793,884,19164,3924,1,52935,0.0010000000000000009
132999,9715,6827,124494,-7827,5710,134001,884,19147,3621,1,52936,0.0010010000000000019
133998,15280,21416,121336,27151,47416,88034,694,19133,2842,0,52937,0.0009989999999999999
134998,16602,35877,127915,-23357,-8170,133538,855,19143,3502,0,52938,0.0010000000000000009
135998,-954,-28347,121521,3103,-18104,135606,970,19201,3973,1,52939,0.0009999999999999731
136998,10223,7681,129670,-3403,-230,127252,721,19201,3973,0,52940,0.0010000000000000009
137998,10781,-10955,133190,2980,3075,133962,684,19106,2953,0,52941,0.0010000000000000009
138998,641,19038,135313,-9279,4082,129705,684,19130,2801,1,52942,0.0010000000000000009
140004,7364,-18189,129484,-9378,-21136,147339,944,19180,3866,1,52943,0.0010060000000000069
140999,11288,5467,127024,20691,22820,111864,770,19140,3154,0,52944,0.0009949999999999959
141998,13924,18920,128239,531,-4863,137274,785,19117,3215,1,52945,0.0009989999999999999
142998,7940,-10790,130404,-31104,1922,128500,725,19117,3215,1,52946,0.0010000000000000009
143999,13843,-1754,136078,18434,-15222,148168,904,19162,2969,0,52947,0.0010010000000000019
144998,4209,-20369,131202,9586,-13463,135533,904,19165,3703,0,52948,0.0009989999999999999
145998,1166,-4699,121898,-11416,-1624,115073,824,19119,3375,1,52949,0.0010000000000000009
146998,13795,2709,126565,18880,-5639,138997,584,19145,2392,0,52950,0.0010000000000000009
147998,13607,176,118136,-12930,12417,105097,853,19149,3494,0,52951,0.0010000000000000009
149001,19446,34521,126857,-13211,27383,113951,926,19149,3793,1,52952,0.0010030000000000039
149998,2050,-3796,123845,38798,-11124,131175,669,19137,3793,1,52953,0.0009969999999999979
150998,-1968,-13154,120301,-13748,-20689,127427,669,19141,2740,0,52954,0.0010000000000000009
151998,-2101,-27821,119887,-20888,-21362,137606,814,19127,3334,1,52955,0.0010000000000000009
153001,4846,15684,123182,13338,37465,97932,1072,19195,4391,1,52956,0.0010030000000000039
154000,23509,39349,123783,5898,32349,110478,756,19125,3096,0,52957,0.0009989999999999999
154999,6216,9028,123901,-20190,565,119062,693,19125,2838,0,52958,0.0009989999999999999
155998,9194,-5735,122435,-251,-13531,133585,756,19127,2838,1,52959,0.0009989999999999999
156998,8733,-7073,129013,14457,-6368,133251,828,19164,3096,0,52960,0.0010000000000000009
157998,8164,6361,133211,-14577,6406,125292,828,19137,3391,0,52961,0.0010000000000000009
158998,1886,-9174,130123,-795,-13181,143794,819,19104,3354,1,52962,0.0010000000000000009
159998,3715,724,130158,-9547,11866,128325,621,19162,2543,1,52963,0.0010000000000000009
160998,22218,7822,128054,13378,1591,131860,946,19162,3875,0,52964,0.0010000000000000009
161998,5887,5455,127028,7004,4768,123724,864,19166,3875,1,52965,0.0010000000000000009
162998,10558,1119,133137,-21397,-4024,135936,609,19126,3539,1,52966,0.0010000000000000009
163998,7389,-20302,130994,7629,-21614,144842,609,19141,2494,0,52967,0.0010000000000000009
164998,4268,-5392,130172,1532,-6772,133529,840,19149,3440,0,52968,0.0010000000000000009
165998,5093,-5494,127406,-7733,-12765,130701,932,19150,3817,1,52969,0.0009999999999999731
166998,15897,8869,122638,12811,13621,107925,700,19111,2867,0,52970,0.0010000000000000009
167998,20010,21857,127369,19198,14907,127362,728,19111,2867,0,52971,0.0010000000000000009
168998,7738,-14438,120045,-29243,-15633,121864,1088,19140,2982,1,52972,0.0010000000000000009
169998,9771,14776,130258,-8062,15263,111201,1088,19194,4456,1,52973,0.0010000000000000009
170998,394,-11992,125086,46684,-23390,145096,764,19136,3129,0,52974,0.0010000000000000009
171998,-3961,-5448,119817,-37168,-6697,109271,775,19115,3174,1,52975,0.0010000000000000009
172998,8768,-3448,122481,-13648,-5288,133988,767,19157,3141,1,52976,0.0010000000000000009
173998,14587,20956,117060,35732,28418,102943,891,19157,3141,0,52977,0.0010000000000000009
174998,12316,41374,130414,-37063,35457,104444,813,19136,3649,0,52978,0.0010000000000000009
175999,1910,-23301,120655,-233,-30059,148215,813,19116,3330,1,52979,0.0010010000000000019
176998,9075,-2706,126438,16100,-2794,130709,547,19147,2240,0,52980,0.0009989999999999999
177998,6836,-1776,131271,-5387,-2861,124918,844,19149,3457,0,52981,0.0010000000000000009
178999,3914,14499,130520,-7499,14543,127172,903,19141,3698,1,52982,0.0010010000000000019
179998,11027,-6051,134055,-20599,-9836,152951,645,19141,3698,1,52983,0.0009989999999999999
180998,18775,-6642,129513,12224,17607,114894,795,19137,2642,0,52984,0.0010000000000000009
181998,5219,16725,131392,22591,-12970,140125,795,19136,3256,1,52985,0.0010000000000000009
183001,1136,-12668,131343,-20175,1049,127654,994,19171,4071,1,52986,0.0010030000000000039
183998,12235,-2255,131800,-18868,-16748,150939,722,19118,2957,0,52987,0.0009969999999999979
184998,5809,-12470,132047,23909,4790,124602,666,19131,2728,0,52988,0.0010000000000000009
185998,8757,9183,121574,-16676,2197,111478,863,19131,2728,1,52989,0.0010000000000000009
187000,13817,-4618,123544,19553,-9650,142643,805,19175,3535,0,52990,0.0010020000000000029
188000,8731,-16962,116291,-10037,2707,115171,805,19140,3297,0,52991,0.0010000000000000009
189000,20318,21867,123982,-24675,27778,112131,796,19114,3260,1,52992,0.0010000000000000009
189998,7326,17343,127530,49737,4082,124307,826,19160,3383,1,52993,0.0009979999999999989
190998,-1492,-8090,121176,-18325,-27900,131797,909,19159,3723,0,52994,0.0010000000000000009
191998,3081,-31029,116691,-29780,-18421,132158,853,19159,3723,1,52995,0.0010000000000000009
192998,3171,14349,125800,28405,31670,100899,633,19129,3494,1,52996,0.0010000000000000009
193998,21386,45354,123221,5912,31503,111586,633,19138,2593,0,52997,0.0010000000000000009
194998,1418,9322,125356,-22657,837,119843,941,19154,3854,0,52998,0.0010000000000000009
196000,6392,-8585,124589,-2455,-13621,139180,909,19156,3723,1,52999,0.0010019999999999751
196998,9933,-5530,129042,18209,-1274,127349,680,19125,2785,0,53000,0.0009979999999999989
197998,8584,2422,132636,-16846,2853,127898,735,19125,3010,0,53001,0.0010000000000000009
199000,5835,-13981,128686,2893,-13592,142742,1054,19132,3010,1,53002,0.0010020000000000029
200000,105,4649,130074,-7097,13959,124908,744,19191,4317,1,53003,0.0010000000000000009
201001,21993,11388,132353,2185,2507,134421,744,19126,3047,0,53004,0.0010010000000000019
201998,4029,739,126408,8743,-722,125391,742,19124,3039,1,53005,0.0009969999999999979
202999,10037,-1162,134245,-22323,-6322,137497,864,19158,3539,1,53006,0.0010010000000000019
203998,9987,-18214,129166,14610,-17464,145618,831,19158,3404,0,53007,0.0009989999999999999
204998,2334,-5199,131284,905,-2116,131251,793,19133,3404,0,53008,0.0010000000000000009
205998,10523,50,126291,-11845,-9299,131538,630,19108,3248,1,53009,0.0010000000000000009
206998,13083,2734,122123,26759,12425,109587,630,19154,2580,0,53010,0.0010000000000000009
207998,15303,21451,125774,-399,10669,130666,932,19160,3817,0,53011,0.0010000000000000009
209001,9280,-19005,119576,-35083,-16115,121626,883,19122,3617,1,53012,0.0010030000000000039
209998,6996,20694,130234,21985,17663,110731,619,19122,2535,1,53013,0.0009969999999999979
210998,5039,-9681,122968,28594,-21442,143332,805,19139,2535,0,53014,0.0010000000000000009
211998,-3804,-2368,121421,-41120,630,104081,951,19144,3297,1,53015,0.0010000000000000009
212998,10742,-2065,123265,3364,-5404,139723,951,19176,3895,1,53016,0.0010000000000000009
213998,15500,20176,116995,27565,32999,95004,724,19115,2965,0,53017,0.0010000000000000009
214998,7421,43036,132515,-39738,30894,109075,729,19135,2986,1,53018,0.0010000000000000009
215998,5545,-36266,122428,8724,-40804,153135,875,19176,3584,1,53019,0.0010000000000000009
216998,3441,-2632,126740,23242,446,121505,774,19176,3584,0,53020,0.0010000000000000009
217998,4664,1150,134014,-38889,-110,138432,782,19140,3170,0,53021,0.0010000000000000009
218999,8891,10712,127935,-2385,11572,115116,782,19114,3203,1,53022,0.0010010000000000019
219998,8881,-4704,133000,29978,-9432,149200,752,19161,3080,1,53023,0.0009989999999999999
220998,16255,-1509,129077,-21810,3613,126541,854,19158,3498,0,53024,0.0010000000000000009
221998,12178,9457,127567,1482,1738,125602,829,19098,3395,1,53025,0.0010000000000000009
222998,2287,-8569,131308,21031,-5642,141541,531,19098,3395,1,53026,0.0010000000000000009
223998,11565,6262,132935,-26550,3851,143422,931,19160,2175,0,53027,0.0010000000000000009
224998,-618,-21501,130794,-5133,-22730,134845,931,19155,3813,0,53028,0.0010000000000000009
225998,7436,-2990,125230,17247,-4296,116841,881,19151,3608,1,53029,0.0009999999999999731
226998,19806,5668,124145,7360,593,123666,673,19124,2756,0,53030,0.0010000000000000009
227998,8667,13442,125853,10890,12864,121466,830,19139,3399,0,53031,0.0010000000000000009
228998,12494,440,123410,-30504,5984,120525,1015,19139,3399,1,53032,0.0010000000000000009
229998,9228,12108,129676,-2110,5008,123291,703,19169,4157,1,53033,0.0010000000000000009
230998,3598,-3435,123862,49796,-20056,130304,703,19121,2879,0,53034,0.0010000000000000009
231998,-104,-21689,119717,-41621,-15978,126768,708,19118,2900,1,53035,0.0010000000000000009
232999,2576,-6956,122451,21243,23816,111004,815,19168,3338,1,53036,0.0010010000000000019
233998,21732,47065,124277,14304,50210,101007,835,19126,3420,0,53037,0.0009989999999999999
235000,9324,22752,124053,-12136,-4123,124572,790,19126,3420,1,53038,0.0010020000000000029
235998,1550,-20518,122378,-25099,-20658,138173,583,19112,3236,1,53039,0.0009979999999999989
236998,13119,-7201,128212,22658,-6486,132927,583,19159,2388,0,53040,0.0010000000000000009
237999,4823,4867,134193,3117,5194,125313,945,19159,3870,0,53041,0.0010010000000000019
239000,2072,8386,131499,-8502,-11442,139387,862,19106,3530,1,53042,0.0010010000000000019
239998,-3047,-14552,130294,-12401,-2882,133607,594,19149,2433,0,53043,0.0009979999999999989
240998,24527,15106,132754,2941,16363,125297,810,19149,2433,0,53044,0.0010000000000000009
241998,10340,8740,129189,18510,-2467,129634,937,19144,3318,1,53045,0.0010000000000000009
242998,4930,-4775,132321,-25854,-5791,134443,937,19147,3838,1,53046,0.0010000000000000009
243998,12361,-23239,129715,10568,-19945,148580,691,19123,2830,0,53047,0.0010000000000000009
244999,895,-13049,130863,15602,-6864,131603,749,19138,3068,0,53048,0.0010010000000000019
245998,9076,761,127350,-22415,-5099,124091,1023,19190,4190,1,53049,0.0009989999999999999
246998,17534,5236,121178,18454,10530,115930,761,19190,3117,0,53050,0.0010000000000000009
247998,12773,18850,123909,12886,14429,124098,766,19126,3117,0,53051,0.0010000000000000009
248998,8879,-7064,119555,-44849,-5645,122338,892,19116,3137,1,53052,0.0010000000000000009
249998,7303,6203,127761,32030,6702,118641,892,19182,3653,1,53053,0.0010000000000000009
250998,5679,-4728,124319,32178,-20152,140092,825,19140,3379,0,53054,0.0010000000000000009
251998,-1860,-13203,119329,-56491,-2551,111114,820,19104,3358,1,53055,0.0010000000000000009
252998,4714,9116,125769,3418,11264,126043,577,19104,2363,1,53056,0.0010000000000000009
254000,17040,22867,119842,32423,31704,104628,1002,19153,2363,0,53057,0.0010020000000000029
254998,7517,36512,129597,-21133,19844,106390,855,19169,4104,1,53058,0.0009979999999999989
255998,1235,-23342,125087,-13261,-31923,149327,855,19146,3502,1,53059,0.0010000000000000009
256998,11195,-8333,128172,12664,-2471,124363,645,19136,2642,0,53060,0.0010000000000000009
257998,7531,2943,136410,-5586,1053,138600,823,19139,3371,0,53061,0.0010000000000000009
259001,3625,1391,130518,925,-46,124906,981,19166,4018,1,53062,0.0010029999999999761
259998,785,-2507,130699,-10314,-2965,138833,729,19166,4018,0,53063,0.0009970000000000256
260998,22705,-1817,130580,-4098,7088,130233,687,19114,2986,0,53064,0.0010000000000000009
261999,14374,13163,127976,23954,6886,121665,687,19129,2814,1,53065,0.0010009999999999741
262998,2184,-4884,132277,-19590,-8719,140372,1059,19184,4337,1,53066,0.0009990000000000276
263999,8126,-20136,129800,-6248,-21132,135718,779,19131,3191,0,53067,0.0010009999999999741
264998,-184,-13181,130648,17797,-12292,143938,764,19116,3129,1,53068,0.0009990000000000276
265998,9776,3973,128065,-8980,2540,121598,779,19116,3129,1,53069,0.0010000000000000009
266998,20620,16183,123097,10750,14306,111246,897,19169,3191,0,53070,0.0010000000000000009
267998,9716,9054,121542,19823,6531,132127,897,19164,3674,0,53071,0.0010000000000000009
268998,6046,-4419,121496,-40655,-1813,114096,835,19105,3420,1,53072,0.0010000000000000009
269998,11058,4368,129073,9534,3056,123302,535,19154,2191,0,53073,0.0009999999999999454
270998,1366,-9017,123656,55403,-12581,136384,864,19153,3539,0,53074,0.0010000000000000009
271998,966,-4995,121439,-61780,-8455,118694,914,19153,3539,1,53075,0.0010000000000000009
272998,5149,5771,126004,-982,9099,118742,685,19149,3743,1,53076,0.0010000000000000009
273998,17294,31019,122191,33383,30949,106270,685,19126,2806,0,53077,0.0010000000000000009
274998,10189,18932,126597,-24274,15085,124030,837,19143,3428,1,53078,0.0010000000000000009
276001,-448,-14615,125902,-5810,-14498,137846,985,19190,4034,1,53079,0.0010030000000000316
277000,15235,-8279,128827,10395,-6144,132466,736,19123,3014,0,53080,0.0009989999999999721
277998,2945,-3235,131266,-4778,10707,124174,738,19123,3014,0,53081,0.0009979999999999989
278998,3612,6888,132419,-10215,-2158,139968,850,19122,3023,1,53082,0.0010000000000000009
279998,5467,-11621,129451,-8664,-3804,130697,850,19172,3481,0,53083,0.0010000000000000009
280998,20816,7884,132391,5726,6555,128955,815,19136,3338,0,53084,0.0010000000000000009
281998,11887,2941,126163,12830,-2392,127689,799,19106,3272,1,53085,0.0010000000000000009
283000,1589,3249,130201,-22037,-7558,135177,678,19155,2777,1,53086,0.0010020000000000029
283998,11512,-12611,131904,10643,-21610,151159,940,19155,2777,0,53087,0.0009979999999999989
284999,-706,-9703,132342,10628,-2393,125264,842,19154,3850,1,53088,0.0010010000000000296
286000,7340,-4824,126151,-18414,-3096,120562,842,19123,3449,1,53089,0.0010009999999999741
286998,18078,7431,123280,24190,7061,125574,610,19141,2498,0,53090,0.0009979999999999989
287998,7361,-6007,118402,-4675,3874,119449,842,19145,3449,0,53091,0.0010000000000000009
288998,16911,13735,123862,-28841,23343,112967,942,19150,3858,1,53092,0.0010000000000000009
289998,4361,5762,126441,50327,-3698,129212,673,19150,2756,0,53093,0.0010000000000000009
290998,-1269,-15548,120688,-21789,-22070,129103,710,19134,2756,0,53094,0.0010000000000000009
291999,4622,-20941,116787,-23110,-12962,128116,997,19130,2908,1,53095,0.0010010000000000296
293000,174,10559,124364,20216,32238,106254,997,19169,4083,1,53096,0.0010009999999999741
294000,24527,44437,123591,3518,37973,107032,787,19120,3223,0,53097,0.0010000000000000009
294998,858,9002,124122,-14942,-2418,122977,722,19123,2957,1,53098,0.0009979999999999989
295998,9484,-9399,125270,-10221,-11762,136279,728,19123,2982,1,53099,0.0010000000000000009
296998,11055,-10744,127794,17462,-7555,131285,863,19161,2982,0,53100,0.0010000000000000009
297998,4249,4689,135344,-8020,6957,128296,831,19149,3535,0,53101,0.0010000000000000009
298998,1702,-12080,129468,-978,-15554,142375,831,19108,3404,1,53102,0.0010000000000000009
299998,-151,2974,132498,-9075,9512,123482,591,19151,2421,0,53103,0.0010000000000000009
300998,27761,11542,133297,4085,2924,133844,889,19158,3641,0,53104,0.0010000000000000009
301998,6573,32,125705,13392,-1101,123829,880,19139,3604,1,53105,0.0010000000000000009
303000,5166,5139,135683,-22699,-3493,138017,650,19139,3604,1,53106,0.0010020000000000029
303998,5533,-25523,128209,12477,-23021,146927,826,19135,2662,0,53107,0.0009979999999999989
304998,3362,-9053,131270,6598,-3704,128225,826,19136,3383,1,53108,0.0010000000000000009
305999,12845,-5635,124000,-10540,-591,126691,968,19177,3965,1,53109,0.0010009999999999741
306999,17492,11808,121491,18081,17823,112644,727,19107,2978,0,53110,0.0010000000000000009
307998,7947,7407,121856,-5815,1007,128166,678,19124,2777,0,53111,0.0009990000000000276
308998,9355,-6607,122401,-25521,-917,117476,1091,19124,2777,1,53112,0.0010000000000000009
310000,6662,8223,129664,38188,6490,123437,768,19191,4468,0,53113,0.0010020000000000029
311000,267,-12544,124419,3363,-20222,135587,768,19138,3146,0,53114,0.0010000000000000009
311998,4813,-2673,121265,-38749,-1569,115978,789,19110,3232,1,53115,0.0009979999999999989
313000,7435,12050,124227,15590,17500,121981,750,19156,3072,1,53116,0.0010020000000000029
314000,15940,34332,123196,11600,37579,99583,918,19152,3760,0,53117,0.0010000000000000009
314998,8889,7704,128535,-23994,319,124990,820,19152,3760,1,53118,0.0009979999999999989
315998,2624,-22328,125134,14149,-22989,140631,568,19111,3358,1,53119,0.0010000000000000009
316998,6594,702,128295,350,-2426,124333,568,19146,2326,0,53120,0.0010000000000000009
317998,9071,3435,132924,-22061,7229,127960,840,19148,3440,0,53121,0.0010000000000000009
318998,1706,11046,133634,3545,7024,150237,921,19146,3772,1,53122,0.0010000000000000009
319998,15306,-20851,131185,-303,-20453,127970,668,19128,2736,0,53123,0.0010000000000000009
320998,11765,9902,130896,14990,10751,124268,790,19128,2736,0,53124,0.0010000000000000009
322000,7180,-1886,126821,-4766,-4390,135601,1025,19141,3236,1,53125,0.0010020000000000029
323000,6490,1469,131148,-26446,5319,130800,1025,19183,4198,1,53126,0.0010000000000000009
323998,11167,-2139,134247,18252,-14037,149359,734,19107,3006,0,53127,0.0009979999999999989
324998,2925,-19687,129453,1733,-16302,118233,684,19127,2801,1,53128,0.0010000000000000009
325998,3059,3578,128701,1196,843,128717,847,19170,3469,1,53129,0.0010000000000000009
326998,15814,-12593,119522,12957,-18381,134649,829,19170,3469,0,53130,0.0010000000000000009
327998,11014,13887,124451,-30790,37253,98845,809,19134,3395,0,53131,0.0010000000000000009
328998,18377,33206,130185,23635,-1507,129306,809,19110,3313,1,53132,0.0010000000000000009
329998,-789,-5908,125017,9582,-6235,118074,799,19159,3272,0,53133,0.0009999999999999454
330998,1858,-16270,127986,-40235,-43744,148093,923,19160,3780,0,53134,0.0010000000000000009
331998,5550,-31627,120137,23128,4053,110725,864,19133,3539,1,53135,0.0010000000000000009
332998,7731,50983,129514,6836,56068,99802,654,19133,2679,1,53136,0.0010000000000000009
333998,17339,19754,128315,-10773,1804,125212,939,19138,2679,0,53137,0.0010000000000000009
334999,639,-2785,124338,-14011,-6321,124579,919,19153,3846,1,53138,0.0010010000000000296
336000,13057,-14913,127857,8466,-16927,142817,919,19172,3764,1,53139,0.0010009999999999741
336999,6294,4405,128486,4727,18984,109007,698,19120,2859,0,53140,0.0009990000000000276
337998,7025,5842,135363,-4449,-13993,149062,740,19123,3031,0,53141,0.0009989999999999721
338998,-984,-24971,127883,-14262,-1409,131270,1085,19123,4444,1,53142,0.0010000000000000009
339998,12343,18834,133090,1012,15752,126220,746,19196,4444,0,53143,0.0010000000000000009
340999,19600,-205,129796,12585,-3136,132981,760,19137,3055,0,53144,0.0010010000000000296
341998,8000,7856,127119,-13186,4007,119428,760,19123,3113,1,53145,0.0009989999999999721
342998,7051,-13169,136627,-1838,-19241,154331,793,19161,3248,1,53146,0.0010000000000000009
343998,5781,-12701,130421,20352,-6021,130222,852,19139,3490,0,53147,0.0010000000000000009
344998,253,-2781,133972,-9271,-8943,133892,803,19139,3289,1,53148,0.0010000000000000009
345998,7735,-14422,123994,-11492,-12326,124186,528,19109,3289,1,53149,0.0010000000000000009
346998,18375,17795,123695,32711,24022,112789,927,19149,2163,0,53150,0.0010000000000000009
347998,7610,5256,124256,-12065,-9522,136484,927,19153,3797,0,53151,0.0010000000000000009
349000,9972,-5791,120697,-23216,9840,102837,893,19122,3657,1,53152,0.0010020000000000029
349998,6582,14127,131195,40543,2195,136326,623,19143,2552,0,53153,0.0009979999999999989
350998,7118,-27170,118378,-5020,-20282,128610,830,19143,3399,0,53154,0.0010000000000000009
351998,1390,1885,123957,-41780,3890,115874,1001,19140,3399,1,53155,0.0010000000000000009
352998,11155,-1637,121049,28312,7030,128150,732,19179,4100,1,53156,0.0010000000000000009
353998,12436,46221,122740,6791,51459,84752,732,19109,2998,0,53157,0.0010000000000000009
354998,12180,6526,130788,-30701,-11418,141502,703,19134,2879,1,53158,0.0010000000000000009
355998,2323,-29129,122204,15357,-22273,133372,855,19173,3502,1,53159,0.0010000000000000009
356998,3280,10398,132892,10166,5734,128393,793,19134,3248,0,53160,0.0010000000000000009
357998,3707,3382,134446,-35361,7205,128086,795,19134,3248,0,53161,0.0010000000000000009
358998,8838,1485,131973,12594,-2112,132073,737,19106,3256,1,53162,0.0010000000000000009
359998,9567,-13330,132831,20911,-9362,145472,737,19155,3019,0,53163,0.0010000000000000009
360998,17844,19987,132223,-31223,19111,112426,891,19158,3649,0,53164,0.0010000000000000009
362000,8261,-16170,127405,10112,-22392,142139,840,19099,3440,1,53165,0.0010020000000000029
362998,2198,2047,132617,10955,4786,128459,537,19148,2199,1,53166,0.0009979999999999989
363998,10384,-3239,132654,-17727,-8222,141972,910,19148,2199,0,53167,0.0010000000000000009
364998,-442,-17880,131265,5049,-14172,134532,894,19147,3727,1,53168,0.0010000000000000009
365998,10546,2935,125843,9305,-2785,129787,894,19153,3662,1,53169,0.0010000000000000009
366998,22224,-3777,122295,8636,2760,113951,681,19123,2789,0,53170,0.0010000000000000009
367998,598,19714,123390,858,17836,125736,810,19135,3318,0,53171,0.0010000000000000009
369006,14571,-11514,122740,-23178,8672,117089,1033,19170,4231,1,53172,0.0010080000000000089
369999,8232,17714,130424,23736,1081,126503,717,19170,4231,0,53173,0.0009929999999999661
370998,840,-17720,123126,30440,-28901,132968,727,19123,2937,0,53174,0.0009990000000000276
371998,3528,-14814,121341,-51765,1222,115114,727,19118,2978,1,53175,0.0010000000000000009
372998,4662,8388,123298,8842,19526,116626,785,19160,3215,1,53176,0.0010000000000000009
373998,23867,46709,127743,22835,47208,95280,845,19130,3461,0,53177,0.0010000000000000009
374999,3161,16921,127749,-16115,-26092,141561,794,19122,3252,1,53178,0.0010009999999999741
375998,2638,-30745,123996,-11559,-15518,132220,547,19122,3252,1,53179,0.0009990000000000276
376998,11318,1577,133588,26198,3244,129320,913,19156,2240,0,53180,0.0010000000000000009
378000,4057,-1379,131997,-5335,1569,130559,913,19157,3739,0,53181,0.0010020000000000029
379000,3891,-2241,133202,-14047,-3155,135224,872,19118,3571,1,53182,0.0010000000000000009
380000,967,-11829,131156,-12342,-5518,137144,597,19136,2445,0,53183,0.0010000000000000009
380998,26136,18595,132413,11262,21789,117911,790,19143,3236,0,53184,0.0009979999999999989
381998,6471,3800,129635,12262,-11164,138124,945,19143,3870,1,53185,0.0010000000000000009
382998,2479,-12250,130199,-23953,-10152,134068,694,19156,3870,1,53186,0.0010000000000000009
383998,9177,-14605,131451,17672,-12881,144786,728,19118,2842,0,53187,0.0010000000000000009
384998,3138,-17201,129289,1278,-6748,129683,728,19138,2982,1,53188,0.0010000000000000009
385998,12670,5310,125507,-18777,451,116704,999,19185,4092,1,53189,0.0010000000000000009
386999,17364,1194,122888,34657,13530,120197,775,19132,3174,0,53190,0.0010009999999999741
387998,7840,21875,124092,2535,8248,121567,775,19132,3174,0,53191,0.0009990000000000276
388998,4763,-15217,120480,-52898,-9540,123300,858,19118,3174,1,53192,0.0009999999999999454
389998,12300,7512,130472,50619,3888,122089,839,19171,3514,0,53193,0.0010000000000000009
390998,3202,-6915,123639,11282,-20218,133526,839,19149,3436,0,53194,0.0010000000000000009
391998,3148,-7986,122423,-53896,1221,111320,841,19101,3444,1,53195,0.0010000000000000009
392998,3691,6436,124812,23823,7150,128330,550,19159,2253,1,53196,0.0010000000000000009
393999,18741,23730,124070,12717,38574,99841,1031,19159,4223,0,53197,0.0010010000000000296
394998,10894,33273,132739,-19910,12966,117518,870,19162,4223,1,53198,0.0009989999999999721
395998,2080,-37491,124032,-7103,-39489,152706,662,19155,3563,1,53199,0.0010000000000000009
396998,5189,-8252,129696,9214,7244,120724,662,19127,2711,0,53200,0.0010000000000000009
397998,6652,3156,134851,-12941,1129,138000,814,19139,3334,0,53201,0.0010000000000000009
398998,7471,854,128453,18532,3671,125659,999,19174,4092,1,53202,0.0010000000000000009
399999,1846,-4924,132480,-13116,-9993,140083,718,19110,2941,0,53203,0.0010010000000000296
400998,26218,2813,128759,-27207,9050,126036,676,19110,2941,0,53204,0.0009989999999999721
402000,5826,16243,131546,39670,7879,126769,1022,19127,2769,1,53205,0.0010020000000000029
403006,171,-8523,132026,-19721,-7765,142848,1022,19183,4186,1,53206,0.0010060000000000069
404001,9086,-22183,129546,-8901,-20481,134624,791,19133,3240,0,53207,0.0009950000000000236
405000,-596,-12359,133160,19248,-11632,144191,770,19117,3154,1,53208,0.0009989999999999721
406000,15234,-1983,122794,-9795,-924,117106,782,19157,3203,1,53209,0.0010000000000000009
406998,16973,17709,125849,12149,19884,109493,936,19157,3203,0,53210,0.0009979999999999989
407998,7408,3376,122701,12248,-2598,131854,851,19157,3834,0,53211,0.0010000000000000009
408998,9304,323,124020,-37936,1756,114618,851,19083,3485,1,53212,0.0010000000000000009
409998,14078,-9678,129766,34685,-14322,136936,524,19142,2146,0,53213,0.0010000000000000009
410998,-3265,-3303,121784,21310,-6200,121978,855,19151,3502,0,53214,0.0010000000000000009
411998,6777,-2257,122795,-60206,529,116450,924,19146,3784,1,53215,0.0010000000000000009
412998,8061,5642,123298,22844,13809,124589,693,19146,3784,1,53216,0.0010000000000000009
413998,20822,28764,123653,22679,30858,111846,816,19124,2838,0,53217,0.0010000000000000009
415001,7576,11533,127497,-19153,10171,121522,816,19140,3342,1,53218,0.0010030000000000316
415998,1205,-4276,126699,-17637,-10236,140976,995,19192,4075,1,53219,0.0009969999999999701
416998,12676,-23677,130409,19442,-21888,138198,741,19128,3035,0,53220,0.0010000000000000009
417998,-1077,8045,135860,-6132,11307,118605,756,19116,3096,0,53221,0.0010000000000000009
418998,6043,-681,132803,-9892,-12652,139457,897,19116,3096,1,53222,0.0010000000000000009
419999,6318,-814,131748,2714,13222,123239,805,19178,3674,0,53223,0.0010009999999999741
420998,24322,13101,132439,-8046,-6935,139940,805,19137,3297,0,53224,0.0009990000000000276
422000,8420,-11659,129604,12716,4784,120688,802,19106,3285,1,53225,0.0010020000000000029
422998,-357,8976,133659,-15225,-10134,140012,682,19155,2793,1,53226,0.0009979999999999989
424002,8158,-32849,130278,2993,-24533,152114,991,19177,4059,0,53227,0.0010040000000000049
425000,1061,-10810,131842,3994,6240,120376,849,19177,3477,1,53228,0.0009979999999999989
425999,13212,5855,125305,-6884,-6004,125413,669,19132,3477,1,53229,0.0009989999999999721
426998,19463,8650,122645,31595,27927,105171,837,19129,2740,0,53230,0.0009990000000000276
427998,2219,14731,122032,-8942,-13811,135539,837,19141,3428,0,53231,0.0010000000000000009
429000,11116,-21990,121389,-40997,-20,116671,963,19149,3944,1,53232,0.0010020000000000029
429998,11123,13978,130245,56622,9239,124426,688,19117,2818,0,53233,0.0009979999999999989
430998,2154,-11347,121423,-13091,-21417,130083,689,19117,2822,0,53234,0.0010000000000000009
432000,3354,-6616,121681,-41476,11926,107212,932,19146,2822,1,53235,0.0010020000000000029
432998,6549,4801,126533,34296,4160,134502,779,19172,3817,1,53236,0.0009979999999999989
433998,19741,27569,124571,-5158,43111,90515,779,19131,3191,0,53237,0.0010000000000000009
434998,12894,26791,131300,-13618,-8971,131256,736,19118,3014,1,53238,0.0010000000000000009
435998,-1075,-26726,125695,-5029,-26941,141654,692,19165,2834,1,53239,0.0010000000000000009
436998,7602,-3055,133643,222,-1335,128840,878,19165,3596,0,53240,0.0010000000000000009
437998,659,-2517,135681,9711,-950,136471,832,19152,3596,1,53241,0.0010000000000000009
439001,6656,4945,133195,-4826,2324,125916,546,19095,3408,1,53242,0.0010029999999999761
440000,8604,-6320,133178,-23917,-4476,137026,546,19153,2236,0,53243,0.0009990000000000276
440999,22739,7450,132223,4893,15924,126194,850,19153,3481,0,53244,0.0009989999999999721
441998,10915,-2843,129072,27727,-7233,133994,886,19149,3629,1,53245,0.0009990000000000276
442998,-1555,-7487,132779,-24936,-8308,133616,661,19135,2707,1,53246,0.0010000000000000009
444000,6574,-20703,130507,2384,-22719,145513,819,19135,2707,0,53247,0.0010020000000000029
444998,5436,-13761,131994,11126,-5282,133019,975,19146,3354,1,53248,0.0009979999999999989
446000,11833,12294,122413,-14922,5067,116642,975,19185,3993,1,53249,0.0010020000000000029
446998,14945,13454,125566,22040,19396,113205,741,19112,3035,0,53250,0.0009979999999999989
447998,5293,6759,123170,11362,-4085,127748,696,19125,2851,0,53251,0.0010000000000000009
448998,8297,-10771,127051,-46531,-2536,121117,1060,19189,4341,1,53252,0.0009999999999999454
449998,15105,2744,132419,39161,-3323,128319,784,19189,4341,0,53253,0.0010000000000000009
450998,-3883,-9482,121262,11864,-12295,128499,826,19133,3211,0,53254,0.0010000000000000009
452000,5837,3578,127622,-54864,4679,109131,826,19110,3383,1,53255,0.0010020000000000029
452998,7409,819,125149,33386,2917,129235,712,19156,2916,1,53256,0.0009979999999999989
453998,18641,28929,126174,10163,32550,104634,921,19163,3772,0,53257,0.0010000000000000009
454998,9768,10523,128727,-19469,1650,120166,827,19125,3387,1,53258,0.0010000000000000009
455998,776,-11205,124355,-13110,-14573,136355,615,19125,3387,1,53259,0.0010000000000000009
457001,11216,-10339,133531,16377,-8747,135849,840,19142,2519,0,53260,0.0010030000000000316
458024,1367,-5449,133204,-3428,4276,132352,840,19143,3440,1,53261,0.0010229999999999961
458999,7429,10116,133304,-13997,6491,130413,934,19148,3825,1,53262,0.0009750000000000036
459999,9092,-14130,127236,1158,-12968,135911,688,19123,2818,0,53263,0.0010000000000000009
460998,21374,20631,130987,-5298,19954,129679,773,19137,3166,0,53264,0.0009989999999999721
461998,6152,-10165,131292,13470,-11893,137135,1053,19137,3166,1,53265,0.0010000000000000009
462998,-454,-746,134087,-16113,2526,128904,745,19194,4313,0,53266,0.0010000000000000009
463998,11579,-15934,134766,5215,-17728,150583,745,19111,3051,0,53267,0.0010000000000000009
464998,1263,-13608,131847,9318,-11489,123462,704,19125,2883,1,53268,0.0010000000000000009
465998,13689,1616,123369,-16225,10119,113014,812,19167,3326,1,53269,0.0010000000000000009
466998,15706,9795,124766,27501,4593,128527,840,19138,3440,0,53270,0.0010000000000000009
467998,1287,2601,121469,-1891,13214,109506,814,19138,3334,0,53271,0.0010000000000000009
468998,15644,6776,127522,-6690,-2819,129717,679,19120,3334,1,53272,0.0010000000000000009
470000,9950,-13695,127070,50890,-7482,130216,945,19158,2781,0,53273,0.0010020000000000029
470998,-3014,-240,124500,-42199,-16528,120574,945,19158,3870,0,53274,0.0009979999999999989
472000,3520,-17242,123070,-3947,-3561,124786,877,19137,3592,1,53275,0.0010020000000000029
473000,9223,19379,126076,16776,36502,104127,652,19137,2670,0,53276,0.0010000000000000009
474000,21807,37321,128955,-9429,17210,114976,834,19137,3416,0,53277,0.0010000000000000009
475000,7672,1382,124972,-13252,-5957,126129,941,19142,3416,1,53278,0.0010000000000000009
475999,4773,-9579,124031,3766,-17538,139593,725,19177,3854,1,53279,0.0009990000000000276
476998,4193,-14997,133148,3148,-2212,129459,725,19112,2969,0,53280,0.0009989999999999721
477998,8745,8445,135651,1060,3360,129604,678,19135,2777,1,53281,0.0010000000000000009
478998,76,-8938,132343,-10911,-5353,137560,1078,19190,4415,1,53282,0.0010000000000000009
480000,13965,5431,130450,-18377,8572,123898,754,19134,3088,0,53283,0.0010020000000000029
480998,22077,7114,129911,19343,-7656,136615,766,19134,3088,0,53284,0.0009979999999999989
481999,1906,708,132380,9396,4845,124347,800,19119,3137,1,53285,0.0010009999999999741
483001,4999,-5236,136206,-22889,-17944,142404,800,19162,3277,0,53286,0.0010020000000000029
483998,5313,-24999,130120,7216,-18057,143687,877,19149,3592,0,53287,0.0009970000000000256
484998,9442,-6937,131315,5671,1515,126627,813,19105,3330,1,53288,0.0010000000000000009
485998,8010,-4923,119839,-5086,4775,117047,529,19152,2167,1,53289,0.0010000000000000009
486998,17894,21946,127915,24601,22561,116843,914,19152,2167,0,53290,0.0010000000000000009
487999,4588,-6659,121514,-8345,-13150,128853,904,19155,3743,1,53291,0.0010009999999999741
488998,11128,2579,125841,-31926,10758,112894,904,19135,3703,1,53292,0.0009990000000000276
489998,11370,-3813,129039,53771,-17080,140699,629,19131,2576,0,53293,0.0010000000000000009
490998,-5229,-12122,119162,-27225,-9695,114860,780,19131,3195,0,53294,0.0010000000000000009
492000,9702,8435,124293,-23550,4966,120150,1019,19198,4174,1,53295,0.0010020000000000029
492998,9086,8445,125516,35209,23250,114289,746,19198,4174,0,53296,0.0009979999999999989
493998,19739,38874,126844,-13718,31500,104312,690,19110,3055,0,53297,0.0010000000000000009
494998,3456,-9673,128318,-16001,-19564,135326,690,19133,2826,1,53298,0.0010000000000000009
495998,5964,-3990,126486,173,-5907,129396,771,19165,3158,1,53299,0.0010000000000000009
497000,9188,-12740,134581,16205,-17372,140813,823,19134,3371,0,53300,0.0010020000000000029
498000,736,4589,136765,-8240,10830,120692,807,19118,3305,1,53301,0.0010000000000000009
498998,7369,-1135,132173,-14584,-11571,144314,707,19118,3305,1,53302,0.0009979999999999989
499998,11875,-2422,130798,-4005,3617,127775,922,19161,2896,0,53303,0.0010000000000000009
500998,22690,13561,128918,10436,3264,127821,922,19167,3776,0,53304,0.0009999999999999454
502002,154,-6591,129603,6891,-3207,131540,857,19099,3510,1,53305,0.0010040000000000049
502998,6839,-6451,136256,-24926,-3122,135530,557,19140,2281,0,53306,0.0009959999999999969
503998,9897,-22178,130592,16781,-22189,153073,825,19148,3379,0,53307,0.0010000000000000009
504998,5666,60,130479,5903,2482,119007,912,19148,3379,1,53308,0.0010000000000000009
505998,10042,1776,123562,-17900,-380,119240,699,19163,3735,1,53309,0.0010000000000000009
506998,12455,6052,123808,31096,5218,126250,699,19119,2863,0,53310,0.0010000000000000009
507998,5557,-1573,128109,-7113,4306,115664,731,19140,2994,1,53311,0.0010000000000000009
508998,16727,17504,128993,-30098,17857,115433,1070,19190,4382,1,53312,0.0010000000000000009
509998,6828,4993,132265,52681,3039,139852,746,19130,3055,0,53313,0.0010000000000000009
510998,-3435,-20823,124915,-26018,-27326,126469,751,19130,3055,0,53314,0.0010000000000000009
511998,2354,-12322,124842,-23601,-7747,116935,784,19110,3076,1,53315,0.0010000000000000009
512998,11189,24002,129517,25500,41293,104309,784,19171,3211,0,53316,0.0010000000000000009
513998,21245,31645,124688,3853,16054,111856,873,19136,3576,0,53317,0.0010000000000000009
514998,4632,-4309,126290,-18063,-16396,140140,808,19109,3309,1,53318,0.0010000000000000009
515998,7549,-15329,124918,-4538,-7341,129550,521,19145,2134,1,53319,0.0010000000000000009
516998,5185,-2603,131468,-789,5318,128404,897,19145,3674,0,53320,0.0010000000000000009
517998,7598,-258,137924,-6952,-10469,137447,879,19158,3674,1,53321,0.0010000000000000009
518998,2806,-10050,130267,-10156,-7037,131832,642,19141,3600,1,53322,0.0010000000000000009
519998,14766,14106,135701,-2311,14938,128879,642,19146,2629,0,53323,0.0010000000000000009
521000,18277,8892,126530,17796,-3288,126626,821,19144,3363,0,53324,0.0010020000000000584
522000,1770,-3389,131979,-8239,2070,132002,974,19167,3989,1,53325,0.0010000000000000009
522999,7666,-10235,137133,-9725,-28786,147981,707,19167,2896,0,53326,0.0009989999999999721
523998,5432,-22816,132403,6737,-11871,135749,696,19114,2896,0,53327,0.0009989999999999721
524998,9115,795,132206,-884,954,124396,962,19136,2851,1,53328,0.0010000000000000009
525998,7814,-1682,121406,3089,1963,113845,962,19179,3940,1,53329,0.0010000000000000009
526998,15312,18834,127158,21743,19106,123412,795,19136,3256,0,53330,0.0010000000000000009
527998,3544,-8564,124377,-25732,-17041,127712,790,19109,3236,1,53331,0.0010000000000000009
528998,12583,5493,126689,-18379,19507,105946,823,19109,3371,1,53332,0.0010000000000000009
529998,11187,5152,131226,57548,-15223,145094,859,19172,3371,0,53333,0.0010000000000000009
530998,-5308,-25805,117672,-38407,-11606,115326,837,19151,3518,0,53334,0.0010000000000000009
531998,6685,2376,126784,-12497,1540,125222,837,19119,3428,1,53335,0.0010000000000000009
532998,10801,6017,125054,34114,24001,110681,583,19142,2388,0,53336,0.0010000000000000009
533998,18224,47478,126834,-26695,36976,100630,1023,19159,4190,0,53337,0.0010000000000000009
534998,4252,-9602,126373,-4477,-27192,145970,884,19159,3621,1,53338,0.0010000000000000009
535998,3800,-8394,124371,-1282,-5220,123325,669,19159,3621,1,53339,0.0010000000000000009
536998,13179,-1318,134517,11616,-9209,138551,802,19126,2740,0,53340,0.0010000000000000009
537998,2145,4704,136504,-1580,15276,118302,802,19139,3285,1,53341,0.0010000000000000009
539000,7704,-2024,132888,-28141,-16767,148975,1027,19186,4206,1,53342,0.0010019999999999474
539998,11067,-12058,130600,5683,2802,127758,723,19114,2961,0,53343,0.0009980000000000544
540998,16820,22132,130658,18748,8218,122525,726,19126,2973,0,53344,0.0010000000000000009
542000,1928,-7128,130354,-12562,-10825,135170,994,19126,2973,1,53345,0.0010019999999999474
542998,6489,-4124,138024,-17504,-8899,137151,816,19163,4071,0,53346,0.0009980000000000544
543998,10091,-20264,132098,20406,-20776,151330,816,19135,3342,0,53347,0.0010000000000000009
544998,7193,-1529,128878,-3789,-3394,117273,785,19119,3215,1,53348,0.0010000000000000009
545998,7646,3466,126615,-3679,421,122845,734,19157,3006,1,53349,0.0010000000000000009
546998,9205,-8842,121102,23565,-8031,133341,958,19165,3924,0,53350,0.0010000000000000009
547999,13234,15128,131100,-28205,32184,103626,862,19165,3924,1,53351,0.0010010000000000296
548998,20281,17101,129691,2661,11156,119726,544,19098,3530,1,53352,0.0009989999999999721
549998,4803,-2554,127366,35895,-7889,126183,544,19148,2228,0,53353,0.0010000000000000009
551000,479,-24691,124581,-42587,-36049,137467,836,19158,3424,0,53354,0.0010019999999999474
551998,-1116,-14093,123462,9486,-4156,119462,954,19155,3907,1,53355,0.0009980000000000544
552999,16422,44539,130067,9211,49157,100552,709,19110,2904,0,53356,0.0010010000000000296
553998,14281,23859,125832,-1089,14493,116893,797,19110,2904,0,53357,0.0009989999999999721
554998,3171,-1818,123911,-19558,-4516,124586,976,19137,3264,1,53358,0.0010000000000000009
555998,9020,-12603,130625,-839,-15901,131850,976,19191,3997,1,53359,0.0010000000000000009
556999,243,4584,132708,13962,6389,123970,752,19133,3080,0,53360,0.0010010000000000296
557998,10025,-3281,139569,-4452,-4899,146518,766,19122,3137,1,53361,0.0009989999999999721
558998,969,-16336,129070,-8324,-11982,122415,779,19168,3191,1,53362,0.0010000000000000009
559999,21670,15305,134148,-10219,2770,136975,836,19168,3191,0,53363,0.0010010000000000296
560998,13975,-1131,126230,11873,3077,120858,814,19144,3424,0,53364,0.0009989999999999721
562000,4851,10749,132685,543,-199,135405,648,19107,3334,1,53365,0.0010019999999999474
562998,7243,-22952,136855,-13623,-28348,149243,648,19153,2654,0,53366,0.0009980000000000544
563998,5680,-15658,130292,16750,-6115,126881,1000,19168,4096,0,53367,0.0010000000000000009
565000,9643,4901,131757,-7714,-9589,135656,864,19133,3539,1,53368,0.0010019999999999474
565998,5726,-7779,118772,9600,13556,103325,655,19133,2683,1,53369,0.0009980000000000544
566999,16559,25963,128577,15669,10332,132925,839,19128,2683,0,53370,0.0010009999999999186
568001,9602,-17029,125020,-25591,-15331,121988,974,19142,3436,1,53371,0.0010020000000000584
568998,6531,10696,127630,-6944,18078,109193,974,19153,3989,1,53372,0.0009970000000000256
569998,11764,-963,130756,46574,-24110,148607,686,19122,2810,0,53373,0.0010000000000000009
570999,-6222,-13475,118371,-35481,-324,102840,668,19125,2736,0,53374,0.0010009999999999186
572005,8174,6995,127821,-12138,-3553,136063,909,19125,3723,1,53375,0.0010060000000000624
572998,14601,938,124092,29876,30568,99601,821,19174,3723,0,53376,0.0009930000000000216
573998,14470,49057,127836,-30573,28449,110478,761,19117,3363,0,53377,0.0010000000000000009
574998,11059,-18802,124770,6246,-27625,146244,761,19123,3117,1,53378,0.0010000000000000009
575998,699,-3777,122992,7356,5212,122201,660,19163,2703,1,53379,0.0010000000000000009
576999,10895,-9968,133642,-13750,-10876,142228,894,19167,3662,0,53380,0.0010009999999999186
578000,4572,11865,137453,1502,19406,111890,853,19098,3494,1,53381,0.0010010000000000296
578999,8172,-3769,132308,-13767,-23795,159422,531,19098,3494,1,53382,0.0009989999999999721
579999,11924,-14393,128065,5487,2900,120323,838,19145,2175,0,53383,0.0010000000000000009
580998,9966,24001,129390,10779,4224,125896,838,19150,3432,0,53384,0.0009990000000000832
581998,8853,-5146,129718,-10106,-1644,133080,898,19147,3678,1,53385,0.0010000000000000009
582998,11027,1312,135678,-8511,-4958,133206,688,19127,2818,0,53386,0.0010000000000000009
583999,8830,-21133,132670,10183,-23631,153299,812,19142,3326,0,53387,0.0010009999999999186
584998,6895,-11400,123163,2567,-5465,112131,1013,19142,3326,1,53388,0.0009990000000000832
585998,5943,9397,127693,7921,-2394,134706,747,19189,4149,1,53389,0.0010000000000000009
587001,10018,-14214,119721,4188,-8328,123521,747,19114,3059,0,53390,0.0010029999999999761
587998,17787,28011,131162,-28578,31740,104962,723,19128,2961,1,53391,0.0009970000000000256
588998,16183,11884,128754,22661,-636,129246,1023,19182,4190,1,53392,0.0010000000000000009
589998,536,-4366,123956,10653,-13707,120519,791,19138,3240,0,53393,0.0010000000000000009
590998,1403,-32461,120843,-38752,-39977,147185,802,19138,3240,1,53394,0.0010000000000000009
591998,1845,-1738,123538,21028,20111,104007,585,19109,3285,1,53395,0.0010000000000000009
592998,21207,45613,128320,9383,44672,107416,585,19150,2396,0,53396,0.0010000000000000009
593998,9861,7206,120917,-18765,-140,122421,954,19162,3907,0,53397,0.0010000000000000009
594998,4219,-4520,121586,-11871,-7662,125731,837,19148,3428,1,53398,0.0010000000000000009
595998,10579,-6896,127530,12965,-10051,139002,629,19141,2576,0,53399,0.0010000000000000009
597001,3660,10842,133140,4255,9299,116118,815,19141,2576,0,53400,0.0010029999999999761
597998,5032,-8014,135020,-8004,-16585,147423,951,19132,3338,1,53401,0.0009969999999999146
599000,522,-5359,130985,-17400,-1054,129894,951,19154,3895,1,53402,0.0010020000000000584
599998,20422,17276,133104,2838,15835,126753,691,19119,2830,0,53403,0.0009979999999999434
601000,11278,2040,129016,11585,-4476,131782,739,19129,3027,0,53404,0.0010020000000000584
601998,7199,4071,133066,-10921,2192,123143,1077,19198,4411,1,53405,0.0009979999999999434
602998,9661,-21198,137514,1102,-22590,143568,752,19198,4411,0,53406,0.0010000000000000009
603998,5502,-14056,132029,12829,-10239,127750,730,19121,3080,0,53407,0.0010000000000000009
604998,7401,-177,131142,-17442,-4252,133516,730,19134,2990,1,53408,0.0010000000000000009
605998,9496,-8541,118575,-838,-8572,106599,780,19162,3195,1,53409,0.0010000000000000009
606998,15430,25135,126799,35608,25237,131422,867,19146,3551,0,53410,0.0010000000000000009
607998,9551,-13855,123019,-18989,-14504,118376,827,19099,3387,1,53411,0.0010000000000000009
608998,9155,8285,126364,-27777,16480,112645,632,19099,2588,1,53412,0.0010000000000000009
609998,6860,7092,128114,45196,-28344,148369,920,19152,2588,0,53413,0.0010000000000000009
611000,-6317,-17761,117685,-49350,4433,101639,879,19153,3768,1,53414,0.0010020000000000584
612000,3207,8746,126748,-2267,-3928,139262,879,19143,3600,1,53415,0.0010000000000000009
612998,17724,-1094,125926,35562,34303,94937,687,19115,2814,0,53416,0.0009979999999999434
613998,14715,51196,126502,-37203,25452,111424,842,19142,3449,0,53417,0.0010000000000000009
615000,9581,-16080,126375,4400,-34751,151191,965,19142,3952,1,53418,0.0010020000000000584
615998,4283,-13719,123478,15613,5099,118786,717,19188,3952,0,53419,0.0009979999999999434
616998,2122,7190,137273,-20532,-2135,143531,695,19109,2937,0,53420,0.0010000000000000009
617998,3775,-1584,135264,-9524,3258,119385,695,19126,2847,1,53421,0.0010000000000000009
618998,9404,636,129938,14399,-8433,145317,1039,19180,4255,1,53422,0.0010000000000000009
619998,11716,-4583,129105,-12522,13972,122847,769,19146,3150,0,53423,0.0010000000000000009
620998,23360,16761,127252,6343,-2546,127991,778,19146,3186,1,53424,0.0010000000000000009
621998,803,-15125,129782,11582,-10937,142155,777,19109,3186,1,53425,0.0010000000000000009
623001,10189,-1550,136099,-24591,-2452,128034,897,19160,3182,0,53426,0.0010030000000000872
624000,7165,-19535,130251,3798,-20505,151344,897,19164,3674,0,53427,0.0009989999999999721
624998,1972,-2536,128433,7218,7167,116495,823,19108,3371,1,53428,0.0009979999999999434
625998,13074,434,121416,-2828,-11260,122521,564,19145,2310,0,53429,0.0010000000000000009
626998,14864,13749,124310,25749,26547,116859,889,19151,3641,0,53430,0.0010000000000000009
627998,4188,4857,124754,-19708,-11189,123203,921,19151,3641,1,53431,0.0010000000000000009
628998,15166,-4211,122550,-32012,9679,115678,651,19147,3772,1,53432,0.0010000000000000009
629998,7815,13464,130204,70959,-5451,134035,651,19131,2666,0,53433,0.0010000000000000009
630998,-5748,-25900,118405,-34976,-27815,127313,823,19142,3371,1,53434,0.0010000000000000009
632000,730,-2761,122136,-31967,9244,113889,1044,19189,4276,1,53435,0.0010020000000000584
632999,12745,13275,128029,35699,18197,119095,771,19099,3158,0,53436,0.0009989999999999721
633998,21242,44451,122525,-14548,44978,94890,680,19099,3158,0,53437,0.0009989999999999721
634999,3544,3375,125909,-12613,-20317,139868,737,19128,2785,1,53438,0.0010010000000000296
635998,10918,-20366,123509,786,-12234,130857,737,19166,3019,0,53439,0.0009989999999999721
637000,10566,1043,133373,17242,-2890,135929,826,19127,3383,0,53440,0.0010020000000000584
637998,5422,-6583,135885,-11756,448,132091,811,19102,3322,1,53441,0.0009979999999999434
638998,4830,682,128804,-6936,-3716,132846,679,19159,2781,1,53442,0.0010000000000000009
639998,7192,-1900,129832,-7553,4698,134498,922,19159,2781,0,53443,0.0010000000000000009
641000,22620,19219,128779,9822,10681,121183,858,19171,3776,1,53444,0.0010020000000000584
642000,-2154,-3647,129656,12899,-5138,135515,858,19127,3514,1,53445,0.0010000000000000009
642998,12364,-7925,136391,-27846,-15147,134076,617,19134,2527,0,53446,0.0009979999999999434
643998,5725,-19421,128842,12923,-21682,147572,810,19146,3318,0,53447,0.0010000000000000009
644998,5513,-6380,129074,3267,-7412,128967,927,19155,3797,1,53448,0.0010000000000000009
645999,14138,14515,125555,-7192,15519,106026,695,19155,3797,0,53449,0.0010010000000000296
646998,12986,14065,125626,31565,10668,128962,706,19120,2847,0,53450,0.0009989999999999721
647998,10129,-3525,126258,-21387,-3455,117878,706,19145,2892,1,53451,0.0010000000000000009
648998,9281,-3275,126660,-28201,-3510,120998,1082,19192,4432,1,53452,0.0010000000000000009
649998,4740,200,126845,49769,-3788,129330,752,19130,3080,0,53453,0.0010000000000000009
650998,-2902,-9774,120688,-22901,-18719,119427,763,19121,3125,1,53454,0.0010000000000000009
651998,1707,-4886,119247,-22595,-1641,118065,782,19121,3125,1,53455,0.0010000000000000009
652998,21403,24535,126007,19511,28968,104631,879,19165,3203,0,53456,0.0010000000000000009
654000,15500,31258,121951,4355,2209,116831,813,19137,3600,0,53457,0.0010020000000000584
654998,2007,-3541,120969,-20019,-22254,140371,813,19109,3330,1,53458,0.0009979999999999434
655998,6687,-16793,126492,-4645,-6737,132309,530,19149,2171,0,53459,0.0010000000000000009
656998,6721,2436,133111,14543,8138,131570,873,19152,3576,0,53460,0.0010000000000000009
657998,8775,1357,137155,-4878,-7834,134650,895,19152,3666,1,53461,0.0010000000000000009
658998,863,-7199,127090,-8881,317,131090,650,19150,3666,1,53462,0.0010000000000000009
659998,15903,8106,130981,-8269,9070,130702,849,19135,2662,0,53463,0.0010000000000000009
660998,16995,11390,130276,22105,1625,126232,849,19151,3477,1,53464,0.0010000000000000009
661998,3569,3547,133199,-14900,-4552,137686,987,19170,4042,1,53465,0.0010000000000000009
662998,6946,-19865,134870,-8351,-24773,141749,722,19112,2957,0,53466,0.0010000000000000009
663998,4079,-16165,128823,14048,-7739,136088,665,19112,2724,0,53467,0.0010000000000000009
664998,8100,1661,129441,-6882,4473,128809,910,19123,2724,1,53468,0.0010000000000000009
666000,14603,-9103,116656,-42,8247,107290,807,19175,3727,0,53469,0.0010019999999999474
666998,18371,28989,126472,22538,27346,122261,807,19134,3305,0,53470,0.0009980000000000544
667999,5873,-13101,119676,-28731,-23966,126776,800,19109,3277,1,53471,0.0010010000000000296
669003,10450,-10,124979,-5986,12088,113274,819,19162,3354,1,53472,0.0010040000000000049
669998,3460,2315,127507,56460,-19591,146515,907,19160,3715,0,53473,0.0009949999999999681
670999,-2141,-4795,118900,-47649,8697,95213,849,19160,3715,1,53474,0.0010010000000000296
671998,3908,21215,127064,-8427,-2234,138409,612,19126,3477,1,53475,0.0009989999999999721
672998,14165,-14695,122208,33623,9256,112470,612,19141,2507,0,53476,0.0010000000000000009
673998,18728,47942,125823,-22550,41657,97296,1001,19152,4100,0,53477,0.0010000000000000009
674998,-214,-516,128163,-4671,-23565,146793,898,19160,3678,1,53478,0.0010000000000000009
675998,11661,-12926,123565,2678,-5124,123719,689,19125,2822,0,53479,0.0010000000000000009
676998,4480,-10583,132235,-85,-11916,149409,773,19125,2822,0,53480,0.0010000000000000009
678001,7777,5186,134520,-10591,12369,112123,1049,19138,3166,1,53481,0.0010029999999999761
679000,5290,5447,127518,5635,-6159,139959,1049,19188,4296,1,53482,0.0009989999999999721
679998,10433,-6397,130077,-11156,-814,134825,733,19123,3002,0,53483,0.0009980000000000544
680998,21558,14267,127322,12017,7154,121150,739,19120,3027,1,53484,0.0010000000000000009
681998,-1859,-1420,133608,3541,-734,141208,818,19174,3350,1,53485,0.0010000000000000009
682998,12022,-5307,135010,-21950,-12065,130512,823,19174,3350,0,53486,0.0010000000000000009
683998,2996,-23520,126462,11090,-21909,152333,787,19146,3371,0,53487,0.0010000000000000009
684998,3407,-4069,127396,-2336,-1014,124139,787,19097,3223,1,53488,0.0010000000000000009
685998,20583,10631,122911,6392,14860,103560,597,19153,2445,0,53489,0.0010000000000000009
687001,13730,16436,123936,29382,7669,134966,984,19161,4030,0,53490,0.0010029999999999761
687999,8563,-6305,126916,-38914,-6812,111407,878,19103,3596,1,53491,0.0009979999999999434
688998,11947,10646,126906,-15307,7614,121773,592,19103,3596,1,53492,0.0009990000000000832
689998,5916,-3118,127514,60952,-9866,135569,821,19143,2425,0,53493,0.0010000000000000009
690998,-4270,-6177,122425,-40424,-14413,114929,821,19148,3363,1,53494,0.0010000000000000009
691998,3702,-9984,121629,-13680,-7728,130932,969,19176,3969,1,53495,0.0010000000000000009
692998,16730,28629,123837,21984,37208,101352,732,19118,2998,0,53496,0.0010000000000000009
693998,14657,27173,123542,-9007,21088,115387,776,19133,3178,0,53497,0.0010000000000000009
694998,-2016,-6051,121624,-13949,-11432,128969,932,19133,3178,1,53498,0.0010000000000000009
695998,9241,-8187,128200,2610,-13806,135457,756,19184,3817,0,53499,0.0010000000000000009
696998,6821,-8641,131386,3776,-4913,123570,771,19135,3096,0,53500,0.0010000000000000009
698000,10786,10474,135597,-2414,7596,140018,771,19119,3158,1,53501,0.0010019999999999474
698999,-43,-9436,127027,-3580,-10928,127775,786,19163,3219,1,53502,0.0009989999999999721
700000,16093,13527,128810,-18156,17591,130405,865,19153,3543,0,53503,0.0010010000000000296
700998,15778,3923,130361,17331,-4853,134739,825,19153,3379,1,53504,0.0009980000000000544
701998,3860,2460,131755,14663,3750,126907,566,19104,3379,1,53505,0.0010000000000000009
702998,9765,-10507,136411,-26295,-28270,151215,970,19152,2318,0,53506,0.0010000000000000009
703998,1126,-27167,126008,4194,-8593,127843,970,19161,3973,0,53507,0.0010000000000000009
704998,11260,8375,129443,7177,1170,128414,873,19140,3576,1,53508,0.0010000000000000009
705999,14848,1720,122962,4525,17310,110240,669,19125,2740,0,53509,0.0010009999999999186
706998,12090,26908,125558,608,6264,126472,800,19125,3277,0,53510,0.0009990000000000832
708000,7440,-14785,123795,-27271,-7124,125435,1005,19150,3277,1,53511,0.0010019999999999474
708998,9521,7648,126861,30435,7594,117213,715,19171,4116,1,53512,0.0009980000000000544
709998,5073,-6626,124436,20258,-22797,141395,715,19100,2928,0,53513,0.0010000000000000009
710998,-4412,-13267,120832,-53682,7975,103066,683,19125,2797,1,53514,0.0010000000000000009
711998,8109,10589,122927,18328,10544,128691,862,19172,3530,1,53515,0.0010000000000000009
713000,18052,17457,121105,21981,37058,100109,828,19172,3391,0,53516,0.0010019999999999474
714000,13399,33636,123738,-19934,6050,118420,783,19140,3391,0,53517,0.0010000000000000009
715000,-1073,-19210,122477,-6786,-20094,141400,621,19113,3207,1,53518,0.0010000000000000009
715998,11501,39,128380,9054,-3551,126350,621,19165,2543,0,53519,0.0009979999999999434
716998,7941,-1182,132133,314,-3184,139317,922,19165,3776,0,53520,0.0010000000000000009
717998,2023,3410,132476,-9905,5643,123622,851,19127,3485,1,53521,0.0010000000000000009
718998,4027,-1439,131598,-9932,-9062,141423,583,19133,2388,1,53522,0.0010000000000000009
719998,13793,2305,129331,8757,7839,126417,834,19133,2388,0,53523,0.0010000000000000009
720999,14212,11958,130046,17602,-1167,127871,926,19145,3416,1,53524,0.0010010000000000296
721998,4997,-8239,130469,-29302,-2421,135547,926,19153,3793,1,53525,0.0009989999999999721
722998,15025,-8860,135190,-1758,-12855,140933,677,19126,2773,0,53526,0.0010000000000000009
723998,5003,-16296,129792,24647,-14431,140186,783,19151,3207,0,53527,0.0010000000000000009
725006,4130,-691,125335,-15742,-7171,122289,1039,19191,4255,1,53528,0.0010080000000000089
725998,12433,3542,124156,7078,5531,120059,765,19191,4255,0,53529,0.0009919999999999929
726998,11034,5425,120451,16386,-53,130310,755,19121,3133,0,53530,0.0010000000000000009
727998,17426,12260,125876,-43728,17930,111024,755,19129,3092,1,53531,0.0010000000000000009
728998,11556,11522,125942,28404,1597,122556,970,19178,3973,1,53532,0.0010000000000000009
729998,-528,-3282,122315,26040,-14121,133105,811,19143,3322,0,53533,0.0010000000000000009
730998,3345,-24758,119063,-48061,-25251,128167,814,19098,3334,1,53534,0.0010000000000000009
731998,-139,-1925,122848,14494,13919,117259,546,19098,3334,1,53535,0.0010000000000000009
732998,20002,42319,124367,11807,38693,101399,1002,19145,2236,0,53536,0.0010000000000000009
733998,5620,22239,124193,-17552,14185,113326,1002,19169,4104,0,53537,0.0010000000000000009
734998,3837,-7046,123121,-10412,-14290,137321,854,19153,3498,1,53538,0.0010000000000000009
735999,14380,-10579,128833,19526,-14127,134107,645,19138,2642,0,53539,0.0010010000000000296
736998,4514,1254,133071,-8829,6526,126591,818,19140,3350,0,53540,0.0009989999999999721
737999,7395,-3992,131318,-6298,-10317,137251,974,19140,3350,1,53541,0.0010010000000000296
738998,-2166,-6440,127818,-8683,313,132657,720,19159,3989,1,53542,0.0009989999999999721
739998,21219,13387,132795,-1601,11654,130594,720,19112,2949,0,53543,0.0010000000000000009
740998,9022,2580,124989,16179,-4013,127160,670,19134,2744,1,53544,0.0010000000000000009
741998,7103,3185,133944,-17566,2763,131418,1101,19191,4509,1,53545,0.0010000000000000009
743000,10324,-21706,130395,-819,-25783,146059,770,19138,3154,0,53546,0.0010020000000000584
744005,4704,-11198,129460,12798,-8014,125235,762,19138,3121,0,53547,0.0010049999999999226
744998,10954,3074,126498,-6509,162,121180,791,19118,3121,1,53548,0.0009930000000000216
745998,14521,13385,122633,11993,13533,116025,889,19163,3240,0,53549,0.0010000000000000009
746998,14204,12681,123636,19233,8168,131075,889,19160,3641,0,53550,0.0010000000000000009
747998,8000,-10740,121388,-37447,-8998,112429,832,19112,3408,1,53551,0.0010000000000000009
748998,7017,8946,127895,2082,8472,129945,610,19151,2498,1,53552,0.0010000000000000009
749998,1124,-9547,123609,46144,-17488,128407,908,19151,3719,0,53553,0.0010000000000000009
750998,-10,-6155,121661,-46423,275,117513,905,19153,3719,1,53554,0.0010000000000000009
751999,8962,2176,123704,-1512,17379,121397,677,19152,3707,1,53555,0.0010010000000000296
752998,14987,34612,122558,27925,40197,98168,677,19136,2773,0,53556,0.0009989999999999721
753998,16256,21469,125832,-18093,-10755,130907,873,19145,3576,1,53557,0.0010000000000000009
755000,-1055,-18239,122336,6748,-11166,135626,986,19194,4038,1,53558,0.0010020000000000584
755998,9060,-5549,128939,-6296,-4170,130476,726,19194,2973,0,53559,0.0009979999999999434
756999,11727,-4409,130174,5443,14841,122850,717,19118,2973,0,53560,0.0010010000000000296
757998,-811,16427,133375,-7862,-3057,140538,887,19124,2937,1,53561,0.0009989999999999721
758998,7572,-20330,127936,-12258,-13327,136456,887,19171,3633,1,53562,0.0010000000000000009
759998,11857,9928,129209,19401,15223,121611,805,19147,3297,0,53563,0.0010000000000000009
760998,12075,10808,126798,233,-6885,133635,798,19112,3268,1,53564,0.0010000000000000009
761998,7541,1749,130167,-27176,2010,127049,747,19158,3059,1,53565,0.0010000000000000009
763002,13361,-11023,134157,17755,-19696,154714,923,19158,3059,0,53566,0.0010040000000000049
764000,5503,-16174,130850,10109,-9867,126719,831,19163,3780,0,53567,0.0009980000000000544
764998,-2015,-2185,123136,-10656,2091,116328,831,19113,3404,1,53568,0.0009979999999999434
765998,17249,4495,125773,10446,-4240,137846,582,19145,2384,0,53569,0.0010000000000000009
766998,13521,-12144,117846,-15,10546,111304,866,19149,3547,0,53570,0.0010000000000000009
767998,15265,32994,127805,-25644,26844,112827,934,19150,3825,1,53571,0.0010000000000000009
768998,9262,2087,123453,46053,-7548,126504,670,19150,3825,1,53572,0.0010000000000000009
769998,-8079,-10521,120011,-12151,-21867,132986,739,19123,2744,0,53573,0.0010000000000000009
770998,7266,-35208,117117,-28045,-25030,136225,739,19133,3027,1,53574,0.0010000000000000009
772001,-1103,18512,121581,15984,49326,93639,1030,19187,4219,1,53575,0.0010029999999999761
772998,22929,48547,124967,4558,31388,115183,766,19124,3137,0,53576,0.0009970000000000256
773998,5721,-62,118819,-17222,-2933,117655,731,19126,2994,1,53577,0.0010000000000000009
774998,6406,-5482,124380,-3120,-9750,137434,748,19126,2994,1,53578,0.0010000000000000009
775998,15639,-7653,128348,16032,-4333,127725,855,19158,3064,0,53579,0.0010000000000000009
776998,4244,10777,133938,-16167,8811,125107,855,19158,3502,0,53580,0.0010000000000000009
777999,3491,-14586,130434,1083,-28252,149776,827,19106,3387,1,53581,0.0010010000000000296
778998,-3111,3719,131190,-2233,16788,119156,632,19158,2588,0,53582,0.0009989999999999721
779998,25287,12825,132522,2950,1080,137249,913,19160,3739,0,53583,0.0010000000000000009
781001,4699,2065,127072,10007,4793,119447,877,19160,3739,1,53584,0.0010029999999999761
781999,10928,-332,133082,-21882,-7053,141692,644,19134,3592,1,53585,0.0009980000000000544
782999,9444,-24176,127844,10474,-21326,145532,644,19136,2638,0,53586,0.0010000000000000009
784003,321,-5086,129876,6208,-922,126377,816,19147,3342,0,53587,0.0010040000000000049
785000,10056,-4953,127921,-12431,-10816,137059,951,19172,3895,1,53588,0.0009969999999999146
785998,17493,4463,119732,17406,9729,104984,714,19110,2924,0,53589,0.0009980000000000544
786998,14845,23771,125664,9512,17090,130032,685,19110,2924,0,53590,0.0010000000000000009
787998,9021,-18620,117028,-31872,-15079,118706,1121,19132,2806,1,53591,0.0010000000000000009
788998,4098,21379,131540,9055,21845,112120,761,19194,4591,0,53592,0.0010000000000000009
790000,6339,-15499,124608,37268,-29882,153014,761,19135,3117,0,53593,0.0010019999999999474
790998,-6826,-360,119740,-36930,6118,97567,778,19113,3186,1,53594,0.0009980000000000544
791998,9489,5275,126824,-8652,2115,133414,704,19161,2883,1,53595,0.0010000000000000009
792999,16364,14919,116597,29252,24883,85303,906,19161,3711,0,53596,0.0010010000000000296
793998,9360,41407,131925,-29115,31885,143279,819,19144,3711,1,53597,0.0009989999999999721
794998,2905,-32390,122117,-629,-37303,131028,585,19132,3354,1,53598,0.0010000000000000009
795998,7942,3876,127438,9719,4794,131264,585,19149,2396,0,53599,0.0010000000000000009
796998,5452,-5000,133888,-5157,-1374,129991,874,19152,3580,0,53600,0.0010000000000000009
797998,3225,14946,129476,-13436,13657,125183,910,19147,3727,1,53601,0.0010000000000000009
798998,14842,-9049,133428,-12511,-22541,151994,680,19147,2785,0,53602,0.0010000000000000009
799998,17782,-2401,129222,27208,18829,111349,815,19134,2785,0,53603,0.0010000000000000009
801005,6490,8109,132665,-8344,-14070,142472,1012,19139,3338,1,53604,0.0010069999999999801
801998,1419,-13039,130242,-16942,4868,127961,1012,19173,4145,1,53605,0.0009930000000000216
803000,12829,-3539,129076,12853,-13383,148200,725,19109,2969,0,53606,0.0010019999999999474
803998,2994,-11268,131240,4810,3146,122848,670,19123,2744,1,53607,0.0009980000000000544
804998,7840,4742,122501,-3807,-7255,117197,878,19123,3596,1,53608,0.0010000000000000009
805998,17123,-5240,122676,19910,-9445,138785,823,19177,3596,0,53609,0.0010000000000000009
806998,7147,1747,119464,-26007,10332,109568,806,19137,3371,0,53610,0.0010000000000000009
807998,21742,21438,124914,1671,21284,116558,806,19115,3301,1,53611,0.0010000000000000009
808998,1405,13002,127380,39247,-2777,127416,748,19159,3064,0,53612,0.0010000000000000009
809998,900,-17833,122064,-33378,-31871,131409,917,19172,3756,0,53613,0.0010000000000000009
810998,1754,-24508,117935,-10827,-6522,127087,863,19129,3535,1,53614,0.0010000000000000009
811998,6412,14061,126719,17803,37115,103841,628,19129,3535,1,53615,0.0010000000000000009
812998,21801,41166,121965,4182,33682,109625,871,19139,2572,0,53616,0.0010000000000000009
813998,2555,10469,126386,-18858,-5279,126770,871,19154,3567,1,53617,0.0010000000000000009
815000,8881,-14355,122269,-3804,-14505,134100,911,19168,3731,1,53618,0.0010019999999999474
815998,8591,-495,130046,15176,-607,128839,693,19118,2838,0,53619,0.0009980000000000544
816998,8328,-2938,131243,-10221,-1355,131875,698,19136,2859,0,53620,0.0010000000000000009
817998,-202,-8147,127996,-771,-4645,135286,1077,19136,2859,1,53621,0.0010000000000000009
818998,2432,6527,131883,-8800,9843,129493,736,19194,4411,0,53622,0.0010000000000000009
819998,23937,9048,129575,9094,8052,126855,736,19128,3014,0,53623,0.0010000000000000009
820998,5613,5344,127868,1190,-1760,129396,754,19117,3088,1,53624,0.0010000000000000009
821998,8609,-5904,133621,-17936,-8621,137689,807,19168,3305,1,53625,0.0010000000000000009
822998,7612,-14629,128678,22448,-23007,145037,857,19142,3510,0,53626,0.0010000000000000009
823998,2572,-8256,134088,-438,-4655,130736,801,19142,3510,1,53627,0.0010000000000000009
824998,8427,3761,128596,-17875,-7430,128707,578,19110,3281,1,53628,0.0010000000000000009
825999,15235,2484,124831,22897,12141,111274,578,19149,2367,0,53629,0.0010009999999999186
827000,16977,24504,125611,8278,11964,126959,968,19156,3965,0,53630,0.0010010000000000296
827998,5375,-22868,118123,-33429,-18314,123864,887,19122,3633,1,53631,0.0009980000000000544
828998,10222,13727,129629,10648,20644,110669,593,19153,2429,0,53632,0.0010000000000000009
829998,8277,-8390,123009,43226,-22588,145807,818,19153,2429,0,53633,0.0010000000000000009
830998,-4278,-4123,119337,-42101,5400,102924,988,19145,3350,1,53634,0.0010000000000000009
831998,8699,2566,123038,-9095,-2038,136584,988,19185,4047,1,53635,0.0010000000000000009
832998,13387,13178,116511,37044,29541,100242,729,19113,2986,0,53636,0.0010000000000000009
833999,6738,47889,133806,-36622,34494,107233,739,19129,3027,1,53637,0.0010009999999999186
834999,6655,-29588,123832,1398,-39524,154502,809,19177,3313,1,53638,0.0010000000000000009
836000,4859,-2609,127562,23632,4595,119703,789,19177,3232,0,53639,0.0010010000000000296
836998,2798,-582,134488,-38025,-657,140906,794,19140,3232,0,53640,0.0009979999999999434
838001,9400,9431,129426,-949,8567,116251,783,19113,3252,1,53641,0.0010030000000000872
838998,8693,-4673,134347,33018,-8578,148512,783,19163,3207,0,53642,0.0009969999999999146
839998,17789,-5376,128457,-26561,-1227,110783,871,19163,3567,0,53643,0.0010000000000000009
840998,13591,10588,130288,1720,1129,149796,837,19100,3428,1,53644,0.0010000000000000009
841998,-854,-13248,131814,20039,-12250,126519,543,19100,2224,1,53645,0.0010000000000000009
842998,10676,3580,131012,-25423,2656,140580,871,19152,2224,0,53646,0.0010000000000000009
843998,-254,-16250,130664,-680,-14126,136168,890,19151,3567,1,53647,0.0010000000000000009
844998,8976,-778,125653,10754,-5048,115962,890,19141,3645,1,53648,0.0010000000000000009
845998,22654,17,120723,9167,15663,122931,675,19127,2765,0,53649,0.0010000000000000009
846998,10200,15498,124165,609,-1144,123470,782,19134,3203,0,53650,0.0010000000000000009
848000,6954,-10291,120784,-30202,8132,118628,1025,19134,4198,1,53651,0.0010020000000000584
848998,9846,13962,130399,39635,3574,124273,734,19174,4198,0,53652,0.0009979999999999434
849998,5367,-2604,125275,11655,-17553,130196,707,19117,3006,0,53653,0.0010000000000000009
850998,-3235,-10074,122261,-55356,-11467,119340,707,19131,2896,1,53654,0.0010000000000000009
851998,4305,-4234,122290,23487,6216,121484,839,19169,3436,1,53655,0.0010000000000000009
852998,19183,33495,123850,17966,51272,98439,835,19137,3420,0,53656,0.0010000000000000009
853998,11093,34711,127661,-12796,-4506,126104,789,19110,3232,1,53657,0.0010000000000000009
854999,697,-24030,122329,-24623,-19776,135467,602,19110,3232,1,53658,0.0010010000000000296
855998,12263,-4040,129423,20120,-2703,133839,940,19158,2466,0,53659,0.0009989999999999721
856998,4908,-6810,133049,3673,7005,128526,940,19170,3850,0,53660,0.0010000000000000009
858010,5191,9997,133432,-7394,-1863,134009,860,19124,3522,1,53661,0.0010120000000000129
859000,-529,-15280,129679,-10465,-15291,140150,598,19144,2449,0,53662,0.0009900000000000464
859999,21629,8364,131284,-7436,23143,119787,821,19142,3363,0,53663,0.0009989999999999721
860999,13860,12812,129618,25245,-5675,135192,938,19142,3363,1,53664,0.0010000000000000009
861999,1702,-6340,130130,-21018,-3153,131369,685,19155,3842,1,53665,0.0010000000000000009
862999,10503,-13019,129231,4765,-18903,146217,685,19122,2806,0,53666,0.0010000000000000009
863999,-2176,-16685,131379,15142,-9007,133748,762,19140,3121,1,53667,0.0010000000000000009
865001,12492,1603,126451,-21836,-1502,118987,1045,19187,4280,1,53668,0.0010019999999999474
865998,16513,5756,125821,21806,9341,120726,771,19128,3158,0,53669,0.0009970000000000256
866998,12625,13742,122547,13366,7295,123001,762,19128,3158,0,53670,0.0010000000000000009
867998,4125,1912,122111,-49698,-4416,122752,824,19118,3121,1,53671,0.0010000000000000009
868999,12003,4312,129599,26579,-258,120281,824,19170,3375,0,53672,0.0010010000000000296
869998,7458,554,125131,41807,-12619,134103,825,19147,3379,0,53673,0.0009989999999999721
870998,-2637,-13395,123214,-55845,-11160,119342,821,19097,3363,1,53674,0.0010000000000000009
871998,3115,1128,121540,-260,11303,118354,535,19146,2191,1,53675,0.0010000000000000009
872998,15382,27507,122934,29120,38098,109583,998,19146,2191,0,53676,0.0010000000000000009
873998,13202,27276,130539,-16644,19613,109576,861,19169,4088,1,53677,0.0010000000000000009
874998,497,-17398,125127,-10106,-26917,145631,861,19156,3526,1,53678,0.0010000000000000009
875998,7982,-19648,127047,6156,-11598,132870,651,19139,2666,0,53679,0.0010000000000000009
877002,8924,7913,132685,-13805,11650,127616,796,19139,3260,0,53680,0.0010040000000000049
878000,6278,1106,130861,18166,-1285,135860,990,19160,4055,1,53681,0.0009980000000000544
878998,-909,-5066,129386,-6041,-3790,131771,700,19160,4055,0,53682,0.0009979999999999434
879998,18917,10291,131512,-32488,7624,131168,669,19115,2867,0,53683,0.0010000000000000009
880998,15218,2598,128583,35041,2399,128215,669,19127,2740,1,53684,0.0010000000000000009
882003,331,3658,131458,-3117,4541,132546,983,19181,4026,1,53685,0.0010050000000000336
883001,8184,-19942,130067,-28092,-25147,141495,786,19133,3219,0,53686,0.0009979999999999434
883998,834,-19972,131533,23138,-14900,138908,770,19112,3154,1,53687,0.0009970000000000256
884998,11991,-274,126302,6986,-7405,128500,734,19112,3006,1,53688,0.0010000000000000009
885998,19440,13978,123497,-6175,16508,105699,912,19161,3006,0,53689,0.0010000000000000009
886998,5653,14482,123176,15137,9168,125476,848,19158,3735,0,53690,0.0010000000000000009
887998,9856,-6161,123131,-32113,-5581,120449,848,19099,3473,1,53691,0.0010000000000000009
888998,13646,797,129021,16795,-1627,133955,569,19154,2330,0,53692,0.0010000000000000009
889998,-1773,-7645,123946,41676,-9450,117032,903,19153,3698,0,53693,0.0010000000000000009
890998,6300,-1995,120530,-61826,232,118290,917,19153,3756,1,53694,0.0010000000000000009
891998,3934,4101,124058,10951,17571,121389,696,19154,3756,1,53695,0.0010000000000000009
892998,20946,25649,123316,26973,26480,108021,864,19125,2851,0,53696,0.0010000000000000009
893998,6294,14901,125055,-16886,-1373,120880,864,19141,3539,1,53697,0.0010000000000000009
894998,-1932,-3812,128964,-15982,-13629,138632,982,19194,4022,1,53698,0.0010000000000000009
896001,15936,-13765,131612,25643,-15155,135598,742,19119,3039,0,53699,0.0010029999999999761
896998,-390,-1048,133766,-7381,12512,123383,731,19119,2994,0,53700,0.0009970000000000256
898018,3799,7938,133562,-16977,-10766,138429,872,19119,2994,1,53701,0.0010200000000000209
898998,2342,-10055,128928,-748,5942,126068,806,19170,3571,0,53702,0.0009799999999999809
899998,25330,17702,136472,-100,4867,136384,806,19137,3301,0,53703,0.0010000000000000009
900998,13207,-8938,126204,13947,-7392,129218,804,19108,3293,1,53704,0.0010000000000000009
901998,-2049,1947,131358,-15729,5347,132498,736,19158,3014,1,53705,0.0010000000000000009
902998,9070,-14884,133983,9970,-28534,154216,938,19161,3842,0,53706,0.0010000000000000009
903998,-116,-20209,127663,2255,-5720,123720,837,19161,3842,1,53707,0.0010000000000000009
904998,10897,7199,130891,-15884,-1584,128153,616,19122,3428,1,53708,0.0010000000000000009
905999,19081,4623,121180,30320,18367,108405,616,19136,2523,0,53709,0.0010010000000000296
906998,9201,24260,124743,3172,4257,127938,816,19151,3342,0,53710,0.0009989999999999721
907999,8666,-18822,120514,-46535,-11952,126211,954,19148,3907,1,53711,0.0010010000000000296
908998,11174,6402,126800,48531,12540,116291,676,19122,2769,0,53712,0.0009989999999999721
909998,3784,-1734,127128,7043,-17583,136692,734,19122,2769,0,53713,0.0010000000000000009
910999,2581,-10984,120140,-53811,-1064,108052,1025,19135,3006,1,53714,0.0010010000000000296
911998,3052,5161,125253,27044,9262,131780,1025,19186,4198,1,53715,0.0009989999999999721
913000,16457,25865,122398,12188,32901,99679,768,19118,3146,0,53716,0.0010019999999999474
913999,11217,34159,131786,-19754,9098,114761,739,19125,3027,1,53717,0.0009990000000000832
914998,-1017,-21089,126488,-8205,-30582,150049,746,19164,3055,1,53718,0.0009989999999999721
916000,10975,-8025,131290,4834,-1516,124307,857,19164,3055,0,53719,0.0010019999999999474
916998,5164,682,134222,5757,-1379,138700,824,19154,3510,0,53720,0.0009980000000000544
917998,2607,1711,133977,-1089,4637,125281,824,19104,3375,1,53721,0.0010000000000000009
918998,4690,-5355,133068,-18498,-5375,137018,536,19153,2195,0,53722,0.0010000000000000009
919999,22576,5828,132987,-3476,14286,128947,924,19159,3784,0,53723,0.0010010000000000296
920998,15653,4713,127340,27062,-4897,130444,881,19136,3608,1,53724,0.0009989999999999721
921999,-1622,-5308,131775,-22847,-6109,135735,645,19136,3608,1,53725,0.0010010000000000296
922998,7517,-16748,131409,1793,-21410,141754,816,19136,2642,0,53726,0.0009989999999999721
923998,3835,-15139,131853,16340,-5296,136930,955,19147,3342,1,53727,0.0010000000000000009
925001,10736,14093,125014,-14108,4175,120076,955,19171,3911,1,53728,0.0010029999999999761
925998,17092,5737,124220,9249,14331,110656,736,19112,3014,0,53729,0.0009970000000000256
926998,8885,13310,122776,15707,3570,129714,678,19130,2777,0,53730,0.0010000000000000009
927998,2368,-13364,125088,-36349,-5179,120554,1118,19130,4579,1,53731,0.0010000000000000009
929001,14166,7360,131128,19613,3388,121409,767,19195,4579,0,53732,0.0010029999999999761
929998,1238,-13093,123261,42070,-17604,136406,782,19142,3141,0,53733,0.0009970000000000256
930998,4417,4673,125805,-62293,6528,104943,782,19113,3203,1,53734,0.0010000000000000009
931998,4177,-93,123816,17984,-536,133521,697,19143,2855,1,53735,0.0010000000000000009
932998,15542,24358,123731,23308,33485,103125,916,19158,3752,0,53736,0.0010000000000000009
933998,13146,22464,129757,-19834,13651,132478,823,19158,3371,1,53737,0.0010000000000000009
934998,-448,-16039,124346,-11136,-17055,130864,590,19126,3371,1,53738,0.0010000000000000009
935998,14688,-11565,131462,10246,-6449,141656,814,19144,2416,0,53739,0.0010000000000000009
936998,332,-7746,129933,-5472,-2951,118981,814,19148,3334,0,53740,0.0010000000000000009
937998,6482,12216,133606,-9813,11580,140628,924,19151,3784,1,53741,0.0010000000000000009
938998,5390,-12725,130188,7002,-3133,132498,664,19128,2720,0,53742,0.0010000000000000009
939998,20899,14970,132097,-8101,10912,122590,754,19128,3088,0,53743,0.0010000000000000009
940998,11108,1067,131532,14158,-11334,137414,1038,19129,3088,1,53744,0.0010000000000000009
942000,-2334,-4439,130004,-11944,-5420,128906,740,19188,4251,1,53745,0.0010019999999999474
942998,10801,-13231,134422,5475,-20747,152736,740,19116,3031,0,53746,0.0009980000000000544
943998,-3325,-16811,132348,-4981,-7579,125855,703,19124,2879,1,53747,0.0010000000000000009
944999,13782,-1152,124339,-1861,10182,111517,817,19165,3346,1,53748,0.0010009999999999186
945998,19392,10975,125374,34643,7391,132063,842,19137,3449,0,53749,0.0009990000000000832
946998,2076,-2808,116825,-27204,10848,110577,816,19137,3449,0,53750,0.0010000000000000009
947998,13655,12298,126853,-19736,3680,122970,762,19107,3342,1,53751,0.0010000000000000009
948998,6072,-7485,126074,52574,-10833,132909,762,19157,3121,0,53752,0.0010000000000000009
949998,3756,-6223,124079,-34813,-16628,120511,940,19174,3850,0,53753,0.0010000000000000009
950998,3719,-15280,120970,-11760,-8345,128419,871,19142,3567,1,53754,0.0010000000000000009
952000,4095,16926,125689,16842,32627,103904,653,19147,2674,1,53755,0.0010019999999999474
952998,23849,39866,128850,-2608,26874,114312,891,19147,2674,0,53756,0.0009980000000000544
954001,5613,3835,125801,-14904,-7456,126361,925,19146,3649,1,53757,0.0010029999999999761
954998,4483,-12567,126034,-2717,-16836,137121,925,19180,3789,1,53758,0.0009969999999999146
955998,5626,-12932,132199,8757,-4667,131160,704,19113,2883,0,53759,0.0010000000000000009
956998,5564,8188,135432,1841,6449,128033,707,19133,2896,0,53760,0.0010000000000000009
957998,3494,-8683,131086,-5932,-12367,139658,1043,19189,4272,1,53761,0.0010000000000000009
958998,6635,2879,132877,-23702,8227,123457,753,19189,4272,0,53762,0.0010000000000000009
959998,23833,10148,131600,11058,-86,133529,795,19131,3084,0,53763,0.0010000000000000009
960998,6740,-427,130469,18987,2449,126551,795,19126,3256,1,53764,0.0010000000000000009
961998,2863,503,133491,-21007,-13237,140399,803,19170,3289,1,53765,0.0010000000000000009
962998,4468,-26532,129243,4658,-20723,145366,867,19140,3551,0,53766,0.0010000000000000009
963998,2964,-8013,132800,9568,3524,126656,808,19103,3309,1,53767,0.0010000000000000009
964998,11667,-5030,122989,-7981,-8094,124199,552,19103,3309,1,53768,0.0010000000000000009
965998,18872,18514,125632,17755,28144,110210,880,19144,2261,0,53769,0.0010000000000000009
966998,6939,2821,120975,4037,-10960,133098,880,19154,3604,0,53770,0.0010000000000000009
968001,8047,-5725,124092,-38964,9014,113215,902,19132,3694,1,53771,0.0010030000000000872
968998,15638,3796,129969,45437,-5435,133915,636,19139,2605,0,53772,0.0009969999999999146
969998,-4967,-12074,118992,3048,-15528,125206,814,19144,3334,0,53773,0.0010000000000000009
971000,7241,4799,124277,-52322,8958,111941,1006,19144,3334,1,53774,0.0010020000000000584
972000,7190,3924,122549,34197,13296,122651,736,19182,4120,1,53775,0.0010000000000000009
972998,19261,39060,126246,10287,41600,100506,736,19106,3014,0,53776,0.0009979999999999434
973998,9703,-1072,128874,-18335,-14902,130062,671,19130,2748,1,53777,0.0010000000000000009
974998,-2833,-10903,127305,-12635,-10715,131464,822,19168,3367,1,53778,0.0010000000000000009
976023,14539,-9940,129243,13747,-14113,140214,818,19138,3350,0,53779,0.0010250000000000536
976998,-1032,1849,131616,2452,10160,123126,800,19138,3277,0,53780,0.0009749999999999481
977998,5447,9844,135835,-17232,2174,136885,694,19118,3277,1,53781,0.0010000000000000009
978998,9886,-17623,129687,-6121,-12096,135293,904,19161,2842,0,53782,0.0010000000000000009
979998,22761,18296,130790,9700,15734,123756,904,19165,3703,0,53783,0.0010000000000000009
980998,6616,-13697,128872,11187,-7347,136557,847,19107,3469,1,53784,0.0010000000000000009
981998,2383,2983,130434,-30211,2793,137886,555,19148,2273,1,53785,0.0010000000000000009
982999,13609,-21963,131881,14723,-22526,149104,874,19151,3580,0,53786,0.0010010000000000296
984001,1242,-6540,133248,15776,-1415,117931,898,19151,3580,1,53787,0.0010019999999999474
984998,7909,587,122261,-21935,-2943,119785,686,19148,3678,1,53788,0.0009970000000000256
985998,13963,1694,124448,20233,-2500,131288,686,19118,2810,0,53789,0.0010000000000000009
986998,1386,625,119880,4630,14113,110938,780,19136,3195,0,53790,0.0010000000000000009
988000,15796,18058,127187,-37298,8418,117626,1050,19187,4300,1,53791,0.0010020000000000584
988999,5621,2105,129077,48758,-9240,131843,724,19123,2965,0,53792,0.0009989999999999721
989998,-1640,-14378,123780,-6005,-31380,128990,747,19123,2965,0,53793,0.0009989999999999721
990998,5906,-23418,123110,6087,1585,122054,772,19125,3059,1,53794,0.0010000000000000009
991998,5678,17052,126504,13735,42536,106477,772,19160,3162,1,53795,0.0010000000000000009
992998,21020,37348,127813,-16076,19771,110616,854,19132,3498,0,53796,0.0010000000000000009
993998,2933,3793,126952,-17359,-7474,130768,799,19112,3272,1,53797,0.0010000000000000009
994998,10266,-10672,124948,13205,-15799,137563,545,19150,2232,1,53798,0.0010000000000000009
995998,7241,-13687,129369,5573,1623,126330,984,19150,2232,0,53799,0.0010000000000000009
996999,5237,9805,135526,-7706,-5663,132905,883,19158,4030,1,53800,0.0010010000000000296
997998,2468,-11581,131871,-7998,-6928,135786,883,19125,3617,1,53801,0.0009989999999999721
998998,10545,8721,134268,-9873,11445,129655,616,19137,2523,0,53802,0.0010000000000000009
999998,21842,3487,128703,16188,-5261,130861,806,19148,3301,0,53803,0.0010000000000000009
1000998,2190,2327,129974,-48,9216,122465,964,19171,3948,1,53804,0.001000000000000112
1001998,5915,-2744,134945,-13847,-24193,149292,702,19171,3948,0,53805,0.0009999999999998899
1002998,6532,-28219,131052,12819,-17654,137392,692,19126,2875,0,53806,0.001000000000000112
1003998,6582,504,134118,-3932,2065,125598,692,19133,2834,1,53807,0.0009999999999998899
1005000,11988,-5561,122388,-225,-4172,116744,942,19180,3858,1,53808,0.0010019999999999474
1005998,13061,19334,126313,22762,24697,117467,784,19136,3211,0,53809,0.0009980000000000544
1006998,7881,-4699,123146,-13552,-20374,134570,787,19109,3223,0,53810,0.001000000000000112
1007998,8802,-3354,123091,-20173,22396,103896,825,19109,3223,1,53811,0.0009999999999998899
1009000,9714,11574,133400,39234,-6794,142692,851,19177,3379,0,53812,0.0010019999999999474
1009998,-1471,-27281,117593,-19595,-20159,116958,851,19149,3485,0,53813,0.0009980000000000544
1010998,5736,6517,126350,-22471,5341,122447,832,19096,3408,1,53814,0.001000000000000112
1011998,9689,-2092,123284,30597,10782,119589,542,19144,2220,0,53815,0.0009999999999998899
1012998,14834,49485,126146,-13504,48588,91411,983,19165,4026,0,53816,0.001000000000000112
1013998,13451,-3035,130109,-7494,-26780,149079,880,19165,4026,1,53817,0.0009999999999998899
1014998,-1302,-11908,121919,563,-4861,120227,660,19144,3604,1,53818,0.0009999999999998899
1015998,11574,-1804,135300,-2249,-6256,140519,660,19130,2703,0,53819,0.001000000000000112
1016998,3320,-1898,133659,8503,13246,118394,786,19137,3219,1,53820,0.0009999999999998899
1017998,5925,8198,134380,-16265,-6714,143466,1009,19185,4133,1,53821,0.001000000000000112
1019000,12473,-23826,131444,-7273,-12636,138224,715,19110,2928,0,53822,0.0010019999999999474
1019998,15044,19562,130041,13222,14123,113941,683,19110,2797,0,53823,0.0009980000000000544
1020998,7563,-2238,132419,-2081,-8884,141242,961,19129,2797,1,53824,0.0009999999999998899
1022000,5188,341,133175,-18557,1469,126358,792,19177,3936,0,53825,0.0010020000000001694
1023000,12239,-16791,133579,20075,-22024,156770,792,19137,3244,0,53826,0.0009999999999998899
1023998,3096,-14407,131556,-170,-10499,123204,775,19113,3174,1,53827,0.0009980000000000544
1024998,6914,8184,126591,-11197,8615,113241,719,19155,2945,1,53828,0.0009999999999998899
1025998,12195,-13552,121501,24804,-9696,144394,940,19155,3850,0,53829,0.001000000000000112
1026998,6551,9470,123418,-19501,25369,98489,853,19164,3850,1,53830,0.0009999999999998899
1028000,19937,23053,129099,-7254,19098,120035,537,19092,3494,1,53831,0.0010020000000001694
1029000,5214,-5342,127156,44732,-5541,124912,537,19149,2199,0,53832,0.0009999999999998899
1029999,539,-17475,126168,-32988,-28494,146896,818,19148,3350,0,53833,0.0009989999999999721
1030998,2412,-25854,124193,-5620,-15797,102932,939,19160,3846,1,53834,0.0009989999999999721
1031998,8583,49493,130589,13510,54374,106758,702,19160,2875,0,53835,0.001000000000000112
1032998,17378,24768,129380,5382,18800,122421,859,19116,2875,0,53836,0.0009999999999998899
1033998,4491,-4808,125858,-20836,-3909,126914,955,19134,3518,1,53837,0.001000000000000112
1034998,8468,-8356,127929,-3243,-12275,138768,955,19191,3911,1,53838,0.0009999999999998899
1035999,4208,-3111,133307,13846,13819,116378,745,19134,3051,0,53839,0.0010010000000000296
1036998,11258,-2025,137846,-4066,-17258,151556,768,19124,3146,1,53840,0.0009989999999999721
1037998,-1844,-24301,131405,-19666,1708,125963,849,19159,3477,1,53841,0.001000000000000112
1038998,16655,17599,134304,4098,14940,128470,823,19159,3477,0,53842,0.0009999999999998899
1039998,17728,5047,126023,15216,-3958,130401,803,19149,3371,0,53843,0.001000000000000112
1040998,5909,2603,131050,-13165,1780,125888,803,19108,3289,1,53844,0.0009999999999998899
1041998,5829,-10909,134612,-434,-29142,151300,615,19147,2519,0,53845,0.001000000000000112
1043000,4301,-18299,130976,6967,-6182,127857,968,19166,3965,0,53846,0.0010019999999999474
1043998,6818,-357,133418,-6355,-6618,134862,858,19139,3514,1,53847,0.0009980000000000544
1044998,7851,-12851,118900,8287,1897,114256,648,19139,3514,1,53848,0.0009999999999998899
1045998,15304,23724,128180,18977,24476,118753,824,19131,2654,0,53849,0.001000000000000112
1046998,7512,-2124,124673,-23096,-21730,131466,824,19152,3375,1,53850,0.0009999999999998899
1047998,8384,-1737,125438,-8022,16304,102564,964,19153,3948,1,53851,0.001000000000000112
1048998,10815,7857,132629,33198,-21192,148670,687,19127,2814,0,53852,0.0009999999999998899
1050000,-191,-20865,118820,-22088,-7521,109273,720,19127,2949,0,53853,0.0010020000000001694
1050998,3715,9867,129128,-14654,3797,128537,1014,19127,2949,1,53854,0.0009979999999998324
1051998,14478,-4191,122205,24362,18369,110846,790,19184,4153,0,53855,0.001000000000000112
1052998,15410,47604,126606,-18705,44434,97502,790,19125,3236,0,53856,0.0009999999999998899
1053998,13980,-10110,127855,-9616,-32475,154335,757,19124,3100,1,53857,0.001000000000000112
1054998,-286,-19791,121571,8203,-3944,117760,736,19158,3014,1,53858,0.0009999999999998899
1055998,6044,1302,135514,7766,-3858,141215,879,19166,3600,0,53859,0.001000000000000112
1056998,-890,4477,134884,-22048,13050,116906,842,19166,3600,1,53860,0.0009999999999998899
1057998,10174,4752,133150,-5428,-13310,145042,527,19101,3449,1,53861,0.001000000000000112
1058998,13665,-12757,133085,18995,-1499,131904,527,19158,2158,0,53862,0.0009999999999998899
1059998,18702,23121,127889,-18122,6931,120261,903,19155,3698,0,53863,0.001000000000000112
1060998,5959,-15982,130997,12438,-11774,138808,891,19135,3649,1,53864,0.0009999999999998899
1061998,1578,6734,137105,-4102,4333,132957,675,19130,2765,0,53865,0.001000000000000112
1062998,13284,-21601,133296,-10218,-24829,148944,847,19130,3469,0,53866,0.0009999999999998899
1063998,-2341,-2903,132336,9807,4933,118153,990,19143,3469,1,53867,0.001000000000000112
1064998,12023,-7750,121297,484,-15633,128934,735,19177,4055,1,53868,0.0009999999999998899
1065998,14021,5327,124799,13333,18341,113559,735,19104,3010,0,53869,0.001000000000000112
1066999,9748,12059,128338,-13213,5591,122066,683,19125,2797,1,53870,0.0010010000000000296
1067998,17838,2649,125439,-774,11155,114444,983,19184,4026,1,53871,0.0009989999999999721
1069001,2794,4084,128971,28122,-9487,131997,774,19184,3170,0,53872,0.0010029999999998651
1070000,-2210,-33136,119250,-29693,-33265,135262,791,19142,3170,0,53873,0.0009990000000001942
1070998,-2412,-523,123329,-5100,15796,111976,668,19115,3240,1,53874,0.0009979999999998324
1071998,16071,19017,126545,18320,27493,115843,668,19153,2736,0,53875,0.001000000000000112
1073000,16294,38910,125512,-1005,35818,99886,941,19161,3854,0,53876,0.0010019999999999474
1073998,8356,-8193,125451,-18763,-21569,142500,831,19134,3404,1,53877,0.0009980000000000544
1074998,8768,-10951,124393,-3981,-7531,127490,607,19134,2486,1,53878,0.0009999999999998899
1075998,4744,3604,136510,19864,-1695,144874,796,19145,2486,0,53879,0.001000000000000112
1076999,6194,-5787,135171,-7398,-3286,125818,936,19150,3260,1,53880,0.0010010000000000296
1077998,534,380,133352,-11805,1222,140035,936,19164,3834,1,53881,0.0009989999999999721
1078998,17653,-1519,133062,-8222,298,124908,673,19143,2756,0,53882,0.0009999999999998899
1079998,18263,19720,127541,9559,2143,125473,731,19135,2994,0,53883,0.001000000000000112
1081001,3275,-7030,132798,5422,-4753,138691,1054,19182,4317,1,53884,0.0010029999999998651
1082000,8487,-15669,136491,-16436,-11060,134736,772,19182,4317,0,53885,0.0009989999999999721
1082998,2626,-17034,131777,19191,-16964,145503,728,19130,3162,0,53886,0.0009980000000000544
1083998,8863,-9194,131656,-4750,5702,118951,728,19122,2982,1,53887,0.001000000000000112
1085000,7942,-1104,117540,9272,-3812,117957,778,19168,3186,1,53888,0.0010019999999999474
1085998,17958,12154,128196,29856,28288,119636,859,19142,3518,0,53889,0.0009980000000000544
1086998,5725,10631,121153,-28281,-23654,125442,823,19104,3371,1,53890,0.0009999999999998899
1087998,4900,-11797,122370,-24780,11598,112475,725,19104,3371,1,53891,0.001000000000000112
1088998,16864,15400,132570,59850,-8398,139189,900,19160,2969,0,53892,0.0009999999999998899
1089998,2437,-20938,116992,-22214,-14189,116447,900,19165,3686,0,53893,0.001000000000000112
1090998,94,6336,129522,-34963,4276,123499,873,19147,3576,1,53894,0.0009999999999998899
1091998,11147,-7145,124808,28310,8994,118206,666,19123,2728,0,53895,0.001000000000000112
1093000,16252,46165,126541,-10260,49609,92507,886,19147,3629,0,53896,0.0010019999999999474
1093998,10466,14493,134497,-9033,-30452,150744,942,19147,3629,1,53897,0.0009980000000000544
1094998,754,-31875,118739,16,-13834,124791,707,19179,3858,1,53898,0.0009999999999998899
1095998,2553,7896,139194,2764,2759,138720,707,19113,2896,0,53899,0.001000000000000112
1096998,7498,-6079,133773,-9671,1074,123380,687,19133,2814,1,53900,0.0009999999999998899
1098000,11493,5185,130035,6024,1994,136489,1030,19189,4219,1,53901,0.0010019999999999474
1099001,8000,-14475,131062,-14030,-5352,140185,768,19138,3146,0,53902,0.0010010000000000296
1099998,22098,14763,125830,-4478,16318,110472,780,19138,3146,0,53903,0.0009970000000001367
1100998,2651,1102,132220,26058,-8576,147476,795,19118,3195,1,53904,0.0009999999999998899
1101998,5230,-11624,134840,-21600,-8945,128699,795,19160,3256,0,53905,0.001000000000000112
1103000,9012,-15873,129164,-3268,-19292,144366,891,19155,3649,0,53906,0.0010019999999999474
1103998,6377,-11641,132101,7006,-9749,131108,817,19108,3346,1,53907,0.0009980000000000544
1104998,12919,8122,120536,7835,5941,109014,551,19151,2257,1,53908,0.0009999999999998899
1105999,12090,11839,126270,18088,16721,126146,896,19151,3670,0,53909,0.0010010000000000296
1106998,6414,3442,126013,-14243,-2240,116365,910,19149,3670,1,53910,0.0009989999999999721
1107998,9245,-994,126373,-30108,-2090,123871,645,19134,3727,1,53911,0.001000000000000112
1108998,15433,-2560,130584,50156,-7380,133657,645,19142,2642,0,53912,0.0009999999999998899
1109998,-4651,-10812,119882,-15694,-14635,117008,811,19141,3322,0,53913,0.001000000000000112
1110998,3362,643,125363,-35383,3211,120306,1035,19187,4239,1,53914,0.0009999999999998899
1111999,12761,10254,126400,32146,17752,116326,773,19187,3166,0,53915,0.0010010000000000296
1112998,19701,27382,125497,-4752,27017,110299,677,19098,3166,0,53916,0.0009989999999999721
1113998,8487,6987,125983,-20122,-2096,124134,783,19126,2773,1,53917,0.001000000000000112
1114998,169,-11955,124357,-2805,-15075,137613,783,19165,3207,1,53918,0.0009999999999998899
1115999,11478,-11025,132911,18857,-4530,137525,810,19138,3318,0,53919,0.0010010000000000296
1117000,3447,2346,135766,-3257,4972,125970,806,19106,3301,1,53920,0.0010010000000000296
1117998,5401,-4438,130773,-15681,-6023,136611,693,19106,2838,1,53921,0.0009980000000000544
1118998,9587,819,129546,-5120,4358,127821,942,19151,2838,0,53922,0.0009999999999998899
1119999,19881,15227,131088,-429,5222,131668,853,19169,3858,0,53923,0.0010010000000000296
1121001,5628,-4617,131255,18624,-7109,130529,853,19109,3494,1,53924,0.0010019999999999474
1121998,3210,-2973,137220,-15212,-5228,133404,576,19143,2359,0,53925,0.0009970000000001367
1122998,11494,-24773,131043,-57,-25651,150324,867,19149,3551,0,53926,0.0009999999999998899
1123998,3987,-5752,130646,6675,-596,125976,925,19149,3789,1,53927,0.001000000000000112
1124998,12036,-35,120762,-12651,-5632,111185,701,19152,3789,1,53928,0.0009999999999998899
1125998,16917,17435,124543,31764,22252,122035,702,19122,2871,0,53929,0.001000000000000112
1126998,-925,-3403,124171,-723,-6000,127249,702,19130,2875,1,53930,0.0009999999999998899
1127998,12434,-7319,124583,-55157,8659,111253,1074,19196,4399,1,53931,0.001000000000000112
1128998,14744,6669,129312,55243,-8772,140655,735,19129,3010,0,53932,0.0009999999999998899
1129998,-4535,-13033,119007,8118,-10882,112015,760,19125,3113,1,53933,0.001000000000000112
1130998,1685,-1246,123079,-59080,4064,125219,802,19125,3113,1,53934,0.0009999999999998899
1131998,10683,5815,128301,32388,22044,114386,883,19161,3285,0,53935,0.001000000000000112
1132998,22132,39399,123638,-22793,32919,99600,883,19140,3617,0,53936,0.0009999999999998899
1133998,10771,6807,126569,-5160,-22487,143419,805,19102,3297,1,53937,0.0009999999999998899
1134998,369,-18620,124035,4754,-11313,129847,524,19151,2146,0,53938,0.001000000000000112
1135998,10448,-4775,134790,-6379,-5324,138567,889,19154,3641,0,53939,0.0009999999999998899
1136998,4718,-443,137524,5389,5811,126040,892,19154,3641,1,53940,0.001000000000000112
1137998,4639,6732,132364,-10371,-9539,137829,643,19149,3653,1,53941,0.0009999999999998899
1138998,9753,-5388,131728,-15270,11281,128063,643,19131,2634,0,53942,0.001000000000000112
1139998,20398,19812,130811,26942,-1133,129547,816,19144,3342,0,53943,0.0009999999999998899
1140998,3408,-7616,131868,-165,-3176,135150,982,19171,4022,1,53944,0.001000000000000112
1142003,7509,-8918,135711,-27903,-16146,133169,712,19113,2916,0,53945,0.0010049999999999226
1142998,7188,-22008,130965,15289,-19044,148191,680,19113,2916,0,53946,0.0009950000000000792
1143998,10086,-8048,129580,4860,10042,121495,924,19145,2785,1,53947,0.0009999999999998899
1145000,9811,5085,120100,-11143,319,115657,924,19169,3784,0,53948,0.0010020000000001694
1145998,16724,13792,125866,28765,25629,117776,797,19143,3264,0,53949,0.0009979999999998324
1146998,3787,999,122970,-17402,-19295,128000,791,19106,3240,1,53950,0.001000000000000112
1147998,10397,-11361,122969,-33553,3792,117992,811,19163,3322,1,53951,0.0009999999999998899
1148998,9478,10529,130699,69903,-9754,133493,884,19163,3322,0,53952,0.001000000000000112
1149998,-4021,-5425,118523,-34676,-4274,111611,843,19166,3621,1,53953,0.0009999999999998899
1150998,4231,9999,126757,-25813,7263,122125,843,19118,3453,1,53954,0.001000000000000112
1151998,12154,-8590,126354,37055,320,126516,621,19136,2543,0,53955,0.0009999999999998899
1152998,18496,35116,123980,-20002,42641,95116,914,19149,3743,0,53956,0.001000000000000112
1153998,4863,11580,129692,-9539,-11693,136239,899,19160,3682,1,53957,0.0009999999999998899
1154998,8394,-18295,121701,4263,-12328,131021,683,19160,2797,0,53958,0.001000000000000112
1155998,8924,-7870,133326,12407,-11630,142397,731,19125,2797,0,53959,0.0009999999999998899
1157000,2399,-951,136239,-17343,7163,121054,1046,19129,2994,1,53960,0.0010020000000001694
1157998,9480,5695,129261,-8093,-2268,135065,1046,19194,4284,1,53961,0.0009979999999998324
1158998,8430,-6340,129203,4441,3084,133280,722,19127,2957,0,53962,0.001000000000000112
1159998,21668,17939,129090,-1865,7183,127064,734,19127,3006,0,53963,0.0009999999999998899
1160998,1055,-9385,130731,10304,-7668,137459,842,19127,3449,1,53964,0.001000000000000112
1161998,7805,-2362,137245,-14369,-2290,128120,830,19171,3449,0,53965,0.0009999999999998899
1162998,8577,-22299,129551,966,-24831,153275,791,19135,3399,0,53966,0.001000000000000112
1163998,3199,-11047,127309,402,-5452,127332,791,19108,3240,1,53967,0.0009999999999998899
1164998,14960,10411,124269,3125,11123,108577,608,19156,2490,0,53968,0.001000000000000112
1165998,13200,18979,123781,26231,10705,125239,965,19165,3952,0,53969,0.0009999999999998899
1166998,7187,-5460,128313,-23708,-2376,115584,872,19165,3571,1,53970,0.001000000000000112
1167998,14792,1880,126332,-17879,-1908,125142,563,19114,3571,1,53971,0.0009999999999998899
1168998,6174,-2856,127394,51945,-5215,130784,827,19150,2306,0,53972,0.001000000000000112
1169998,-4352,-134,124369,-36611,-8630,115592,827,19146,3387,1,53973,0.0009999999999998899
1170998,4637,-12694,120961,-11002,-12108,121456,957,19163,3920,1,53974,0.001000000000000112
1171998,13494,16424,125568,21537,28172,103121,736,19098,3014,0,53975,0.0009999999999998899
1172998,16568,35785,125848,-10000,28027,116714,781,19135,3199,0,53976,0.001000000000000112
1173998,3379,-7670,120873,-15557,-12695,135282,854,19135,3199,1,53977,0.0009999999999998899
1174998,8812,-9462,133305,1491,-10644,137103,777,19183,3498,0,53978,0.001000000000000112
1175999,5467,-6022,131412,10246,4699,128181,777,19132,3182,0,53979,0.0010010000000000296
1176998,8619,8157,137592,-2453,-7068,134297,778,19108,3186,1,53980,0.0009989999999999721
1177998,1137,-5066,129031,-8746,-6852,133536,784,19175,3211,1,53981,0.0009999999999998899
1179000,17815,5902,129759,-14447,15496,126036,848,19150,3473,0,53982,0.0010020000000001694
1179998,17162,10194,130376,25903,-3462,133037,821,19150,3473,1,53983,0.0009979999999998324
1181000,2577,-2040,131732,-21130,-4158,131070,597,19106,3363,1,53984,0.0010020000000001694
1182011,6848,-14134,129498,-6310,-19094,145355,597,19144,2445,0,53985,0.0010109999999998731
1182998,3959,-18472,131633,14249,-14341,138250,986,19164,4038,0,53986,0.0009870000000000712
1183999,9510,-1322,123742,-5203,1512,122797,867,19143,3551,1,53987,0.0010010000000000296
1185000,10516,8277,122460,7278,13549,113002,655,19137,2683,0,53988,0.0010010000000000296
1186000,17048,18064,125604,17256,7263,127063,803,19137,2683,0,53989,0.0009999999999998899
1187001,5091,-8664,124703,-40848,-3974,118525,1001,19137,3289,1,53990,0.0010010000000000296
1188000,12853,5096,126726,18993,5483,120657,1001,19166,4100,1,53991,0.0009989999999999721
1189000,5696,-7809,126016,48517,-13864,136945,703,19114,2879,0,53992,0.001000000000000112
1189998,-4500,-12015,119456,-62220,-5878,112823,673,19125,2756,1,53993,0.0009979999999998324
1190998,7327,-171,121539,5580,10862,122685,873,19172,3576,1,53994,0.001000000000000112
1192000,13262,22263,127072,27331,36785,104048,808,19172,3576,0,53995,0.0010019999999999474
1192998,21680,33200,123807,-23294,9796,114250,780,19138,3309,0,53996,0.0009980000000000544
1193998,408,-10564,122487,1899,-23050,139584,780,19114,3195,1,53997,0.0009999999999998899
1194998,6370,-1276,126870,1360,-10062,132913,646,19161,2646,0,53998,0.001000000000000112
1195998,9179,-7320,131757,116,3558,128559,923,19171,3780,0,53999,0.0009999999999998899
1197000,3390,15031,141401,-3330,6667,130703,854,19116,3498,1,54000,0.0010019999999999474
1197998,6331,-15041,127991,-21193,-18741,143335,571,19116,2339,1,54001,0.0009980000000000544
1198998,11625,2952,129951,12919,15590,122751,830,19146,2339,0,54002,0.001000000000000112
1199998,15645,8086,128884,20366,-4124,132166,915,19148,3399,1,54003,0.0009999999999998899
1200998,6071,-3191,129082,-25062,2677,126046,915,19146,3748,1,54004,0.001000000000000112
1201998,9883,-10684,137676,-6553,-19858,149826,683,19128,2797,0,54005,0.0009999999999998899
1203006,9491,-16612,133855,16172,-9888,136723,790,19139,3236,0,54006,0.00100800000000012
1203998,5185,1063,126621,-1768,-4395,121274,1027,19139,4206,1,54007,0.0009919999999998819
1204998,7680,910,124843,-611,-1396,127803,755,19194,4206,0,54008,0.001000000000000112
1205998,12146,-2525,118700,17699,-559,125310,746,19118,3092,0,54009,0.0009999999999998899
1206998,14763,19907,131517,-36814,25536,109947,746,19113,3055,1,54010,0.001000000000000112
1207998,19327,14225,127817,15665,2038,119922,978,19173,4006,1,54011,0.0009999999999998899
1208998,-800,-8196,125393,28219,-17949,135147,835,19135,3420,0,54012,0.001000000000000112
1209998,250,-26799,122162,-47391,-32444,132732,814,19135,3334,1,54013,0.0009999999999998899
1210998,-250,-7,123732,17462,11645,110870,563,19102,3334,1,54014,0.001000000000000112
1211998,20785,38692,128027,11353,39222,108480,991,19152,2306,0,54015,0.0009999999999998899
1212998,12294,15851,121780,-16217,8622,113838,991,19166,4059,0,54016,0.001000000000000112
1213998,-151,-2002,121873,-13729,-9754,134063,851,19156,3485,1,54017,0.0009999999999998899
1214998,13239,-9354,128782,13748,-11315,132826,636,19139,2605,0,54018,0.001000000000000112
1215998,2101,5469,131306,2392,5348,124403,809,19144,3313,0,54019,0.0009999999999998899
1217001,10475,-9070,128979,-9342,-15302,141765,963,19144,3313,1,54020,0.0010030000000000872
1217998,-1953,-6657,128697,-10652,897,123114,688,19161,3944,1,54021,0.0009969999999999146
1218998,20961,16519,131184,-5810,9816,137076,688,19115,2818,0,54022,0.001000000000000112
1219998,12117,-596,126607,19666,-4279,121385,674,19132,2761,1,54023,0.0009999999999998899
1221000,4772,8816,132948,-9473,-7508,142574,1101,19198,4509,1,54024,0.0010019999999999474
1221998,11434,-21276,135832,-7774,-24067,141477,762,19135,3121,0,54025,0.0009980000000000544
1222998,3637,-10211,130012,14132,1048,126591,752,19135,3121,0,54026,0.001000000000000112
1223998,11171,3534,129387,-9777,-16715,134776,782,19127,3080,1,54027,0.0009999999999998899
1225000,7585,-9063,118570,4424,21565,103361,782,19167,3203,0,54028,0.0010019999999999474
1226000,16238,29760,129533,1813,2705,137290,884,19147,3621,0,54029,0.001000000000000112
1226998,10548,-19793,122304,-30151,-2849,112990,838,19099,3432,1,54030,0.0009980000000000544
1227998,5200,19164,128911,21807,16530,119756,636,19151,2605,1,54031,0.0009999999999998899
1228998,9413,-7502,128993,33615,-33210,147065,921,19151,2605,0,54032,0.001000000000000112
1230001,-10138,-12708,125937,-52022,13650,97734,901,19159,3772,1,54033,0.0010029999999998651
1230998,10198,11286,127869,6303,-3628,141957,901,19148,3690,1,54034,0.0009970000000001367
1231998,15307,1385,121052,28114,44043,88191,679,19133,2781,0,54035,0.0009999999999998899
1232998,13843,49376,127935,-31935,12416,124997,845,19150,3461,0,54036,0.001000000000000112
1234000,6726,-25605,122716,14932,-25264,139017,975,19190,3993,1,54037,0.0010019999999999474
1234998,2681,507,124937,4790,5214,124100,719,19190,3993,0,54038,0.0009980000000000544
1235998,13012,-10395,132134,-23000,-7287,139353,704,19108,2945,0,54039,0.0009999999999998899
1236999,1836,17128,136360,4363,19747,115679,704,19129,2883,1,54040,0.0010010000000000296
1237999,10611,-8036,131537,527,-29625,160626,893,19177,3657,1,54041,0.0009999999999998899
1238998,7907,-8273,125274,4458,11936,109345,826,19138,3383,0,54042,0.0009990000000001942
1239998,7991,27652,128499,-1326,-3596,137813,791,19108,3240,1,54043,0.0009999999999998899
1240998,10174,-14935,129622,-14243,2405,127918,758,19108,3240,1,54044,0.001000000000000112
1241998,13328,9229,138423,5224,-7624,139618,903,19161,3105,0,54045,0.0009999999999998899
1242998,7943,-22462,132546,2193,-22651,146059,903,19154,3698,0,54046,0.001000000000000112
1243998,5237,-9214,121865,5741,3322,107016,828,19108,3391,1,54047,0.0009999999999998899
1244998,9653,2304,129214,13149,-13403,149635,573,19141,2347,0,54048,0.001000000000000112
1245998,10613,-13210,117689,-23249,10967,105008,878,19146,3596,0,54049,0.0009999999999998899
1246998,20629,36681,129892,-6884,28745,114345,926,19146,3793,1,54050,0.001000000000000112
1247998,9514,3411,123455,37499,-6149,131067,653,19148,3793,1,54051,0.0009999999999998899
1248998,-1907,-5553,121438,-18758,-16093,118842,743,19127,2674,0,54052,0.001000000000000112
1249998,2510,-36235,118355,-15875,-34321,152000,743,19134,3043,1,54053,0.0009999999999998899
1251000,1304,8873,130358,13981,43242,88130,1052,19185,4309,1,54054,0.0010019999999999474
1252000,24499,48694,129248,2865,31895,115708,787,19096,3223,0,54055,0.001000000000000112
1252998,4260,2552,118876,-21100,3881,118473,686,19096,2810,0,54056,0.0009979999999998324
1253998,7606,-559,123028,-425,-11365,131495,758,19127,2810,1,54057,0.001000000000000112
1255001,10082,-9438,131275,12404,-4156,133713,848,19168,3105,0,54058,0.0010030000000000872
1255998,5679,16441,133786,-1456,4009,120028,848,19142,3473,0,54059,0.0009969999999999146
1257000,1337,-20734,130394,-8043,-27059,152227,823,19102,3371,1,54060,0.0010019999999999474
1257998,2523,3844,133209,-18723,13736,121871,684,19151,2801,1,54061,0.0009980000000000544
1258999,19647,12399,128197,21442,329,136490,933,19151,3821,0,54062,0.0010010000000000296
1260000,8010,6396,130641,3903,5234,121771,866,19160,3821,1,54063,0.0010010000000000296
1260998,10208,-179,134218,-24369,-5955,135619,629,19134,3547,1,54064,0.0009979999999998324
1261998,12652,-26037,133277,13435,-22723,148009,629,19140,2576,0,54065,0.001000000000000112
1263000,4416,-5091,134179,3848,-1012,129618,815,19154,3338,0,54066,0.0010019999999999474
1263998,5144,-6973,122867,-15162,-16879,133808,945,19166,3870,1,54067,0.0009980000000000544
1265000,14550,5091,126030,16080,9873,112231,711,19120,2912,0,54068,0.0010019999999999474
1266000,17491,19630,121806,22533,16031,133494,682,19120,2912,0,54069,0.001000000000000112
1267000,10654,-10189,121596,-35458,-11430,104451,1104,19133,2793,1,54070,0.0009999999999998899
1267998,9042,20757,132353,-3605,18805,129874,1104,19187,4522,1,54071,0.0009980000000000544
1269000,959,-7696,118725,43173,-18352,130998,750,19132,3072,0,54072,0.0010019999999999474
1269998,-2849,-11135,127232,-36234,-571,115261,778,19114,3186,1,54073,0.0009980000000000544
1270998,5455,-715,121864,-6346,6598,129438,779,19164,3191,1,54074,0.0009999999999998899
1272000,15589,19143,126503,25286,51452,88058,891,19164,3191,0,54075,0.0010020000000001694
1273000,13159,42282,131011,-32232,181,135460,815,19148,3649,0,54076,0.0009999999999998899
1273998,2855,-23337,119852,4006,-28162,139014,815,19106,3338,1,54077,0.0009980000000000544
1274998,9501,-4319,133824,6757,6086,124054,541,19149,2216,0,54078,0.0009999999999998899
1276000,2385,7767,134614,-26545,4623,132078,867,19152,3551,0,54079,0.0010020000000001694
1276999,11799,2537,132116,10606,-3444,131081,908,19144,3719,1,54080,0.0009989999999999721
1277998,9795,-14656,133304,16009,-8322,144052,696,19144,3719,1,54081,0.0009989999999999721
1278998,6469,6852,130273,-31639,17745,117584,823,19129,2851,0,54082,0.0009999999999998899
1279998,15581,9525,131080,15858,-8106,135189,823,19146,3371,1,54083,0.001000000000000112
1280998,3233,-9370,133155,6042,1179,132859,1012,19173,4145,1,54084,0.0009999999999998899
1281998,11768,-530,131608,-13691,-14449,141714,730,19109,2990,0,54085,0.001000000000000112
1282998,3272,-19148,131500,8319,-15629,134760,667,19127,2732,0,54086,0.0009999999999998899
1283998,5466,4063,124718,151,-4003,122715,930,19127,2732,1,54087,0.001000000000000112
1284998,18037,3627,122791,10437,306,122141,806,19173,3809,0,54088,0.0009999999999998899
1286000,10198,19489,124125,-299,17194,119549,806,19142,3301,0,54089,0.0010020000000001694
1287000,11593,-2406,123323,-30201,-7464,124427,795,19107,3256,1,54090,0.0009999999999998899
1287998,10986,1400,130193,30131,12238,114595,761,19160,3117,1,54091,0.0009980000000000544
1288998,3315,2859,122627,25115,-16413,138543,910,19164,3727,0,54092,0.0009999999999998899
1289998,-1770,-23121,121181,-49971,-9622,116474,856,19164,3727,1,54093,0.001000000000000112
1290998,1423,4424,126099,6714,13814,121504,617,19124,3506,1,54094,0.0009999999999998899
1291999,18103,26051,128195,23175,37645,104565,617,19154,2527,0,54095,0.0010010000000000296
1292998,13362,34594,127812,-11243,14293,112945,875,19156,3584,1,54096,0.0009989999999999721
1293998,143,-19172,123799,-15514,-28371,145126,908,19177,3719,1,54097,0.001000000000000112
1294998,12219,-4918,135009,5576,2937,123776,688,19123,2818,0,54098,0.0009999999999998899
1295998,8259,-343,136639,4329,4270,135756,708,19123,2900,0,54099,0.001000000000000112
1296998,5753,2110,133097,-5192,-616,128868,1054,19131,2900,1,54100,0.0009999999999998899
1297998,-607,-8591,131589,-10971,-6441,137696,754,19188,4317,1,54101,0.001000000000000112
1298999,18590,6835,128985,-3461,12485,126879,754,19131,3088,0,54102,0.0010010000000000296
1299998,15887,16062,130793,25531,3556,125021,746,19108,3055,1,54103,0.0009989999999999721
1300998,1391,-4285,133806,-19270,-10169,138244,814,19166,3334,1,54104,0.0009999999999998899
1301998,12022,-15208,131260,-8746,-20902,138668,850,19166,3481,0,54105,0.001000000000000112
1303000,209,-15024,130726,22249,-15680,143778,803,19139,3481,0,54106,0.0010019999999999474
1303998,5714,4195,123111,-13792,3894,121307,575,19104,3289,1,54107,0.0009980000000000544
1304998,16027,2866,123802,4363,1850,115064,575,19155,2355,0,54108,0.0009999999999998899
1305998,13823,20779,123100,27034,21384,123678,970,19161,3973,0,54109,0.001000000000000112
1306998,11897,-12347,122774,-42541,-14552,123488,881,19110,3608,1,54110,0.0009999999999998899
1307998,9870,1866,132315,-1432,8324,115727,585,19142,2396,1,54111,0.001000000000000112
1308998,3714,3627,122569,57229,-9368,138872,819,19142,2396,0,54112,0.0009999999999998899
1309998,-3968,-14239,125151,-48665,-12456,113563,988,19142,3354,1,54113,0.001000000000000112
1310998,2180,6146,128060,-17006,7828,124814,988,19183,4047,1,54114,0.0009999999999998899
1311998,21369,12957,122964,38079,19328,115744,728,19113,2982,0,54115,0.001000000000000112
1312998,7452,46359,132223,-15924,39613,118871,753,19138,3084,1,54116,0.0009999999999998899
1313998,-694,-10251,121914,-22437,-22900,146138,818,19173,3350,1,54117,0.001000000000000112
1314998,11940,-16248,133778,10953,-9918,126164,788,19173,3350,0,54118,0.0009999999999998899
1315998,8114,5790,134991,4499,3346,137722,795,19138,3227,0,54119,0.001000000000000112
1317001,5548,-2796,131354,-6686,3027,124350,795,19114,3256,1,54120,0.0010029999999998651
1317998,-880,-682,134613,-9396,-2836,142635,780,19168,3195,1,54121,0.0009970000000001367
1318998,22803,-2812,127426,-7487,8683,126898,873,19167,3576,0,54122,0.0009999999999998899
1319999,16122,16176,133082,26280,4025,125027,839,19088,3436,1,54123,0.0010010000000000296
1320998,-436,709,133568,-2836,-11167,141339,555,19088,3436,1,54124,0.0009989999999999721
1321998,9801,-22726,131503,2750,-22265,138014,960,19153,2273,0,54125,0.001000000000000112
1323004,1555,-14890,134375,18500,-4255,139267,960,19158,3932,1,54126,0.0010059999999998404
1323998,12034,2661,122823,-19941,1499,119550,883,19150,3617,1,54127,0.0009940000000001614
1324998,15820,6162,127865,16374,17098,108830,675,19130,2765,0,54128,0.0009999999999998899
1325998,15310,18968,124094,19344,1137,136131,789,19134,3232,0,54129,0.001000000000000112
1327000,4590,-14191,123457,-43667,-7429,116362,1022,19134,3232,1,54130,0.0010019999999999474
1327998,8177,8499,132998,24746,5767,123696,712,19173,4186,1,54131,0.0009980000000000544
1328998,7173,-2581,116764,36188,-18285,132697,712,19118,2916,0,54132,0.0009999999999998899
1329998,-4353,2151,128584,-67349,8815,102289,695,19127,2847,1,54133,0.001000000000000112
1330998,10439,6496,123044,19477,-2312,137422,839,19175,3436,1,54134,0.0009999999999998899
1331998,13814,7361,124317,30453,29109,101845,831,19134,3404,0,54135,0.001000000000000112
1332998,15101,37726,130545,-25199,18286,112693,793,19134,3404,1,54136,0.0009999999999998899
1333998,15,-8866,123931,-12161,-15385,139393,607,19105,3248,1,54137,0.001000000000000112
1334998,13060,-10485,133374,16946,-7537,133722,607,19157,2486,0,54138,0.0009999999999998899
1335998,4898,-11756,134834,-6274,167,135752,938,19166,3842,0,54139,0.001000000000000112
1337001,2702,14860,134523,-11883,10894,120960,859,19104,3518,1,54140,0.0010029999999998651
1338000,5570,-6234,129942,6608,-14444,144549,556,19152,2277,0,54141,0.0009989999999999721
1338999,14697,-3130,130398,-4187,13287,123546,812,19152,3326,0,54142,0.0009990000000001942
1340001,17388,16638,132154,8975,-134,130604,934,19145,3326,1,54143,0.0010019999999999474
