t_us,ax,ay,az,ax1,ay1,az1,shunt_raw,bus_raw,curr_raw,pg_rpm,seq,dt
0,8030,1720,128451,-3043,1008,127605,49,19232,201,1,18620,
1002,5883,879,128801,-5398,-222,128311,54,19240,221,0,18621,0.0010019999999999999
2000,4170,998,128627,-1618,196,128209,40,19240,164,0,18622,0.0009980000000000002
3000,8647,5,126966,2192,-430,125855,40,19235,164,0,18623,0.001
4000,10276,-2335,126195,2177,-2768,126178,42,19238,164,0,18624,0.001
5000,12383,-596,126871,1090,-2184,126732,42,19234,172,0,18625,0.001
6000,11068,3629,128345,1065,2944,125189,43,19236,176,0,18626,0.001
7000,8170,1888,128501,-2467,1532,128110,41,19240,168,0,18627,0.0009999999999999992
8000,5689,1070,128146,-2864,96,128160,37,19240,152,0,18628,0.0010000000000000009
9000,5675,130,127801,-1284,-962,127832,39,19236,152,0,18629,0.0009999999999999992
10001,9212,1584,127518,1729,304,125950,50,19235,160,1,18630,0.0010010000000000002
11000,10041,-629,126374,1367,-1128,127273,50,19236,205,1,18631,0.0009989999999999999
12000,12680,-100,127606,905,-1431,126550,44,19235,180,1,18632,0.0010000000000000009
13001,8253,1702,128393,-1348,850,127578,48,19235,197,1,18633,0.0010009999999999984
14000,5731,-332,128673,-2720,-1258,129314,41,19240,168,1,18634,0.0009989999999999999
15000,5436,1780,128246,-3529,975,126674,35,19240,168,1,18635,0.0010000000000000009
16000,7623,1511,127388,-839,1311,125832,34,19242,143,1,18636,0.0010000000000000009
17000,10358,194,126162,2393,-831,125155,34,19237,139,1,18637,0.0009999999999999974
18000,10479,-1492,126965,2240,-2928,127183,43,19236,176,1,18638,0.0010000000000000009
19000,10080,404,127749,-1246,756,126972,48,19231,197,1,18639,0.0010000000000000009
20000,7006,2647,129238,-2993,1792,127699,53,19235,217,0,18640,0.0010000000000000009
21000,5702,2014,128913,-1665,776,127479,38,19235,217,0,18641,0.0009999999999999974
22000,6648,-1758,127408,-1560,-2555,127940,39,19237,156,0,18642,0.0010000000000000009
23000,8455,-282,126928,1124,-1005,124887,39,19238,160,0,18643,0.0010000000000000009
24000,11212,1155,126509,4677,66,125678,39,19232,160,0,18644,0.0010000000000000009
25001,9794,1336,127885,-3952,1707,127314,42,19234,172,0,18645,0.0010009999999999984
26000,9219,677,127840,-2904,-318,127576,41,19233,168,0,18646,0.0009989999999999999
27000,6441,1696,128577,652,1060,128276,38,19233,168,0,18647,0.0010000000000000009
28000,5890,1828,128499,-2164,901,126203,37,19233,156,0,18648,0.0009999999999999974
29000,7399,-1563,126791,-1362,-2659,127161,37,19237,152,0,18649,0.0010000000000000009
30000,8980,778,127295,158,692,125425,44,19234,180,1,18650,0.0010000000000000009
31000,11006,2039,127350,3500,1368,124898,42,19236,172,1,18651,0.0010000000000000009
32000,10055,-588,127203,-199,-1607,127934,43,19234,176,1,18652,0.0010000000000000009
33000,6809,48,128960,-7650,-632,127811,42,19234,176,1,18653,0.0010000000000000009
34000,6418,-145,128473,2700,-1008,129544,36,19238,172,1,18654,0.000999999999999994
35001,7930,3051,128158,1695,2419,125280,36,19238,147,1,18655,0.0010010000000000019
36003,8774,389,126695,-4009,-486,124877,33,19236,135,1,18656,0.0010020000000000029
37000,10374,-1681,126330,1872,-2484,126597,36,19238,147,1,18657,0.0009969999999999979
38000,11674,2590,127785,4327,1761,126257,42,19240,172,1,18658,0.0010000000000000009
39000,7250,705,127782,-3255,-423,127646,49,19240,172,1,18659,0.0010000000000000009
40002,5230,1942,128765,-7506,1044,127336,45,19234,201,0,18660,0.001001999999999996
41000,5973,2392,128756,2507,1609,128718,45,19236,184,0,18661,0.0009979999999999989
42000,8760,-51,127070,709,-846,126183,40,19234,164,0,18662,0.0010000000000000009
43000,9434,-1572,126823,-2060,-2220,125023,38,19238,156,0,18663,0.0010000000000000009
44000,10041,-1486,127309,715,-2135,126294,43,19231,176,0,18664,0.0010000000000000009
45000,9198,715,128377,1453,-111,128978,43,19231,176,0,18665,0.0010000000000000009
46000,6344,1589,128238,-5385,856,128030,41,19240,176,0,18666,0.0010000000000000009
47000,5780,430,126809,-1418,-1408,126553,38,19237,168,0,18667,0.0010000000000000009
48000,6890,8050,128463,2300,7067,123129,38,19236,156,0,18668,0.0010000000000000009
49000,10548,-4331,126135,-2779,-3756,129153,42,19236,172,0,18669,0.000999999999999994
50000,10944,1336,127731,-230,-500,124187,52,19234,213,1,18670,0.0010000000000000009
51000,8043,-5,128556,4486,463,126940,41,19234,168,1,18671,0.0010000000000000009
52000,8230,-4378,127284,-3665,-4605,130814,45,19236,168,1,18672,0.0010000000000000009
53000,6610,-1629,128013,-781,-4983,129745,41,19238,184,1,18673,0.0010000000000000009
54000,5634,9880,127975,1660,8581,125113,41,19234,168,1,18674,0.0010000000000000009
55000,10986,5095,127371,-9735,5701,120470,37,19236,152,1,18675,0.0010000000000000009
56000,12336,-3349,127877,6779,-1205,126857,35,19235,143,1,18676,0.000999999999999994
57000,10758,-8621,125628,5431,-10752,132619,40,19235,164,1,18677,0.0010000000000000009
58000,7128,2422,128185,-4089,123,126698,47,19233,164,1,18678,0.0010000000000000009
59001,4806,1869,127607,-5670,-9,126631,51,19234,192,1,18679,0.0010010000000000019
60000,6846,10572,128552,1492,8943,123810,51,19230,209,0,18680,0.0009989999999999999
61000,7191,-324,127516,-4468,2245,128327,43,19241,176,0,18681,0.0010000000000000009
62000,12273,-3295,126438,2781,-4344,125304,40,19239,164,0,18682,0.0010000000000000009
63001,10202,-5509,127238,5494,-5774,130260,42,19233,172,0,18683,0.0010010000000000019
64003,12383,312,128728,-1016,916,125564,40,19233,172,0,18684,0.001001999999999989
65000,6820,491,127565,-1211,-952,130444,44,19237,164,0,18685,0.0009970000000000118
66000,6354,5254,128279,-1454,5763,124565,44,19234,180,0,18686,0.0010000000000000009
67000,5337,5908,126653,-1860,3640,125061,39,19233,160,0,18687,0.000999999999999987
68000,8989,1327,127052,-2973,1879,124836,39,19236,160,0,18688,0.0010000000000000009
69000,13200,1241,127830,9643,-1149,126902,46,19235,188,1,18689,0.0010000000000000009
70000,11113,-8450,127561,-1468,-8953,131635,44,19235,188,1,18690,0.0010000000000000009
71000,10048,-1592,128685,-2883,-1296,126899,46,19236,180,1,18691,0.0010000000000000009
72000,7300,-1753,128201,1552,-2306,130881,46,19236,188,1,18692,0.0010000000000000009
73000,5377,7891,128340,-4299,8073,122475,46,19236,188,1,18693,0.0010000000000000009
74000,5776,1970,127627,-6480,142,127285,42,19236,172,1,18694,0.0010000000000000009
75000,9855,2304,126872,4646,2280,123571,38,19238,156,1,18695,0.0010000000000000009
76001,11587,-88,127479,5563,-2315,127728,38,19238,156,1,18696,0.0010010000000000019
77000,10874,-5982,126587,-3694,-6256,129150,45,19235,156,1,18697,0.0009989999999999999
78000,9593,-539,128429,3375,-1550,128871,45,19233,184,1,18698,0.0010000000000000009
79000,6771,433,128224,-2583,73,128766,51,19232,209,0,18699,0.0010000000000000009
80000,5854,8099,128896,-8384,7306,121599,54,19237,221,0,18700,0.0010000000000000009
81000,8232,-2694,126899,2650,-4054,130672,42,19233,172,0,18701,0.0010000000000000009
82003,8822,1657,127041,1752,1061,123549,43,19233,172,0,18702,0.00100299999999999
83002,10523,-1532,126937,1374,-2235,127509,46,19236,176,0,18703,0.0009989999999999999
84000,10202,-166,127369,1559,-897,126925,46,19232,188,0,18704,0.0009979999999999989
85000,9467,-378,127682,-534,-1171,128479,44,19237,180,0,18705,0.0010000000000000009
86000,7854,1772,128200,-4143,969,127157,42,19232,172,0,18706,0.0010000000000000009
87000,6716,4494,128116,-145,3794,124276,40,19235,164,0,18707,0.0010000000000000009
88000,7793,-2489,127166,28,-3535,129203,43,19235,176,0,18708,0.0010000000000000009
89000,8329,1671,127505,-1400,873,124412,50,19237,176,0,18709,0.0010000000000000009
90000,10011,-1965,127107,1705,-2582,128775,48,19230,205,1,18710,0.0010000000000000009
91000,8803,2358,127485,1742,1575,125169,48,19239,197,1,18711,0.0010000000000000009
92000,10577,95,127683,-1269,-604,129194,44,19231,180,1,18712,0.0010000000000000009
93000,7450,1771,127416,-1398,48,126318,41,19237,168,1,18713,0.0010000000000000009
94000,7527,2301,128290,-36,2044,125769,37,19237,152,1,18714,0.0010000000000000009
95000,8255,-896,127514,-638,-2011,128208,35,19235,152,1,18715,0.0010000000000000009
96000,9916,552,127804,1719,358,125168,40,19234,143,1,18716,0.0010000000000000009
97000,10646,-1059,127189,1808,-2104,128529,40,19233,164,1,18717,0.000999999999999987
98000,9540,2190,127757,-49,1279,124894,45,19232,184,1,18718,0.0010000000000000009
99000,8689,-999,127647,-1862,-1660,129356,52,19236,213,0,18719,0.0010000000000000009
100000,5980,5193,128385,-2374,3118,125644,43,19236,176,0,18720,0.0010000000000000009
101000,8369,1098,128223,-1946,2382,125755,41,19236,176,0,18721,0.0010000000000000009
102000,8718,-2928,127162,819,-3837,128512,43,19236,168,0,18722,0.0010000000000000009
103013,9205,-2711,127415,2492,-3417,127230,43,19242,176,0,18723,0.001013
104000,10015,-412,127744,-596,-2475,127944,43,19234,176,0,18724,0.0009870000000000018
105000,8673,4398,128559,-1557,3646,126631,42,19232,172,0,18725,0.0010000000000000009
106000,8217,645,128057,-1687,370,128328,43,19232,176,0,18726,0.0010000000000000009
107000,5991,3352,128103,-1300,1943,124999,43,19236,176,0,18727,0.0010000000000000009
108000,7326,749,127350,-1312,556,127416,44,19236,176,0,18728,0.0010000000000000009
109000,8860,-1420,127213,1064,-2911,126344,44,19233,180,1,18729,0.0010000000000000009
110000,10488,-1688,128376,847,-1806,128115,44,19237,180,1,18730,0.0010000000000000009
111000,11954,-1028,127817,1683,-703,126358,45,19235,184,1,18731,0.0010000000000000009
112000,6909,1102,128186,-1872,-389,127868,49,19235,201,1,18732,0.000999999999999987
113000,5699,194,127708,-4123,-294,128408,42,19235,201,1,18733,0.0010000000000000009
114000,6129,4289,127981,-284,3773,125322,36,19239,172,1,18734,0.0010000000000000009
115000,9029,1321,127143,1112,165,126035,36,19238,147,1,18735,0.0010000000000000009
116000,10628,-970,126412,1801,-1847,125505,38,19239,156,1,18736,0.0010000000000000009
117001,11060,-3257,127105,1828,-3932,128969,42,19240,172,1,18737,0.0010010000000000019
118000,9356,1274,127885,-1890,1172,126052,50,19234,205,1,18738,0.0009989999999999999
119001,6556,3796,128462,-3640,2767,126766,56,19234,205,0,18739,0.0010010000000000019
120000,4424,2443,128275,-4304,1149,127419,40,19231,229,0,18740,0.0009989999999999999
121003,8934,-100,126936,-288,-1318,126632,40,19235,164,0,18741,0.0010030000000000039
122000,10214,-1251,126988,3598,-1787,126730,38,19236,156,0,18742,0.0009969999999999979
123006,11225,-1578,126807,2591,-2157,125561,41,19237,168,0,18743,0.001005999999999993
124000,11511,-12,127572,-568,-605,127047,44,19234,180,0,18744,0.0009940000000000088
125002,8241,1805,128581,-1798,1063,128076,40,19234,180,0,18745,0.0010020000000000029
126000,7196,2819,127960,-3212,1689,126592,40,19238,164,0,18746,0.0009979999999999989
127000,5937,2758,127548,-1601,1601,126469,40,19236,164,0,18747,0.0010000000000000009
128000,7438,-477,127165,604,-1369,126745,38,19237,156,1,18748,0.0010000000000000009
129001,10212,-1663,126963,942,-2284,126372,45,19241,184,1,18749,0.0010010000000000019
130000,12215,-603,127824,2321,-820,127021,41,19234,168,1,18750,0.0009989999999999999
131000,9656,142,128013,-2347,-1022,127395,47,19234,168,1,18751,0.0010000000000000009
132000,6090,1052,128539,-4379,-93,128077,46,19237,192,1,18752,0.0010000000000000009
133000,4800,2339,128474,-2080,1413,128415,46,19236,188,1,18753,0.0010000000000000009
134000,6574,2208,127420,-1414,1541,125710,36,19240,147,1,18754,0.0009999999999999731
135000,9894,1359,126731,1123,879,124497,33,19238,135,1,18755,0.0010000000000000009
136000,10736,-1716,126822,3337,-2302,127365,37,19236,152,1,18756,0.0010000000000000009
137000,10251,-2162,127621,165,-2949,127990,46,19236,188,1,18757,0.0010000000000000009
138000,7155,1716,128917,-3649,398,128305,50,19234,188,1,18758,0.0010000000000000009
139000,5203,3104,128780,-3978,2308,126719,37,19234,205,0,18759,0.0010000000000000009
140000,6500,1558,127332,-1372,749,127183,37,19237,152,0,18760,0.0010000000000000009
141000,8821,-248,126964,-882,-985,126560,39,19237,160,0,18761,0.0010000000000000009
142000,11039,-1923,126227,3389,-2161,124859,39,19233,160,0,18762,0.0010000000000000009
143000,10814,-543,127200,1678,-1413,126994,42,19233,172,0,18763,0.0010000000000000009
144000,8812,270,127761,-2135,-354,127377,41,19236,172,0,18764,0.0010000000000000009
145000,6859,227,127568,-1448,-1606,128746,39,19236,168,0,18765,0.0010000000000000009
146000,5376,4962,128369,-2336,3783,125718,39,19238,160,0,18766,0.0010000000000000009
147000,7685,1386,127261,-2448,1516,125661,35,19233,143,0,18767,0.0010000000000000009
148000,9473,-615,126923,1767,-1353,126385,41,19238,168,0,18768,0.0010000000000000009
149000,10398,1385,128075,-334,1413,125314,50,19238,205,1,18769,0.0010000000000000009
150000,10186,-3833,126302,2663,-4189,128193,43,19232,205,1,18770,0.0010000000000000009
151000,7576,1698,128454,-721,-2159,127833,45,19238,176,1,18771,0.0010000000000000009
152002,7118,1877,127989,-6536,1644,128847,45,19236,184,1,18772,0.0010020000000000029
153002,7459,3036,127695,1467,822,124707,37,19238,152,1,18773,0.0010000000000000009
154000,8316,3200,127858,500,4358,125210,30,19243,123,1,18774,0.0009979999999999989
155001,10700,-3400,125783,474,-3451,126563,34,19237,139,1,18775,0.0010010000000000019
156000,11187,-275,127409,2065,-1906,127512,41,19237,139,1,18776,0.0009989999999999999
157000,8797,-2175,127666,2773,-2614,129590,47,19232,168,1,18777,0.0010000000000000009
158000,6862,4713,128262,-5405,4376,123953,47,19232,192,0,18778,0.0010000000000000009
159002,5375,6262,129330,-3842,2136,127976,50,19236,205,0,18779,0.0010020000000000029
160000,7985,-1747,127146,1330,-2871,127261,39,19233,160,0,18780,0.0009979999999999989
161000,10226,-1832,127661,-48,-2789,126090,40,19234,164,0,18781,0.0010000000000000009
162000,9947,-686,127414,1852,-1137,126110,40,19234,164,0,18782,0.0010000000000000009
163000,10784,-27,127592,2110,-1363,127679,42,19234,164,0,18783,0.0010000000000000009
164000,7147,498,128529,-5042,109,129584,42,19233,172,0,18784,0.0009999999999999731
165000,5335,3129,128041,-5368,2806,126181,41,19233,168,0,18785,0.0010000000000000009
166000,6066,4480,128240,1426,3544,125550,40,19237,164,0,18786,0.0010000000000000009
167002,7998,1354,127765,-938,-359,126710,39,19235,160,0,18787,0.0010020000000000029
168002,9545,-9066,124863,67,-10078,128995,49,19235,160,1,18788,0.0010000000000000009
169000,12004,4475,128117,7371,5366,121823,39,19238,201,1,18789,0.0009979999999999989
170000,11094,2467,127083,-2807,163,130125,39,19232,160,1,18790,0.0010000000000000009
171001,9221,-1083,128108,-9517,-466,126271,45,19231,184,1,18791,0.0010010000000000019
172000,6480,6448,129966,7185,4907,127084,44,19235,180,1,18792,0.0009989999999999999
173000,7175,-4173,126880,3319,-5098,129311,37,19238,152,1,18793,0.0010000000000000009
174001,5491,-2712,127461,-14228,-3332,124079,35,19238,152,1,18794,0.0010010000000000019
175000,12800,-1659,127765,10930,-1944,129609,39,19237,143,1,18795,0.0009989999999999999
176000,10752,8903,126528,5729,8038,120361,39,19234,160,1,18796,0.0010000000000000009
177000,7982,1937,127991,-12184,1425,127704,47,19232,192,1,18797,0.0010000000000000009
178000,5801,-4734,126081,3576,-6003,131371,50,19234,205,0,18798,0.0010000000000000009
179000,5199,4031,129658,-2081,3390,126323,46,19232,188,0,18799,0.0010000000000000009
180000,11549,1549,128476,-5280,1295,123839,37,19232,152,0,18800,0.0010000000000000009
181000,9744,-3681,127155,11537,-4230,127864,39,19240,152,0,18801,0.0010000000000000009
182000,9589,-4744,126605,-4164,-5933,129861,42,19236,160,0,18802,0.0010000000000000009
183000,9259,5249,128463,-5416,4765,122821,42,19234,172,0,18803,0.0010000000000000009
184000,10347,3646,127975,8630,2520,129224,42,19236,172,0,18804,0.0010000000000000009
185000,6465,3463,128221,-4250,2781,124859,41,19234,168,0,18805,0.0010000000000000009
186000,6861,-1839,127993,-10174,-2107,127097,38,19234,156,0,18806,0.0010000000000000009
187001,10989,-1470,127530,12855,-2593,129274,43,19235,156,0,18807,0.0010010000000000019
188001,7836,-507,127009,1892,-1724,125561,46,19236,176,1,18808,0.0010000000000000009
189000,9709,2630,128045,-10645,1534,124477,46,19240,188,1,18809,0.0009989999999999999
190000,9794,-437,127574,5853,-896,129693,46,19234,188,1,18810,0.0010000000000000009
191002,7757,-735,128227,1807,-2361,129208,46,19236,188,1,18811,0.0010020000000000029
192000,5936,1984,127267,-7157,910,125398,39,19236,160,1,18812,0.0009979999999999989
193000,6399,1025,128070,-2595,-541,127812,36,19235,160,1,18813,0.0010000000000000009
194000,11281,3917,128007,4549,3431,124745,38,19235,147,1,18814,0.0009999999999999731
195000,10072,-1966,126576,1430,-1872,127756,38,19234,156,1,18815,0.0010000000000000009
196000,9439,-1,127105,-1907,-1484,125164,44,19232,180,1,18816,0.0010000000000000009
197000,7233,-1841,128532,375,-1892,128766,52,19233,213,1,18817,0.0010000000000000009
198000,8277,2668,128852,-3805,296,128744,57,19236,233,0,18818,0.0010000000000000009
199000,6890,2930,128633,-591,3386,126637,42,19236,233,0,18819,0.0010000000000000009
200001,7462,-353,126754,-894,-708,125960,43,19235,172,0,18820,0.0010010000000000019
201000,9067,-1920,126419,1111,-2024,127324,43,19234,176,0,18821,0.0009989999999999999
202000,10046,-1343,126676,2238,-2915,126583,45,19234,184,0,18822,0.0010000000000000009
203000,10774,3885,127701,-530,3088,124608,43,19233,176,0,18823,0.0010000000000000009
204000,8211,1262,128276,-2233,101,127802,41,19236,168,0,18824,0.0010000000000000009
205001,7306,833,128550,-2780,-755,128488,41,19236,168,0,18825,0.0010010000000000019
206000,7262,-1807,127286,1713,-2726,128344,42,19234,168,0,18826,0.0009989999999999999
207001,7407,2127,127739,-1359,1743,124278,42,19240,172,0,18827,0.0010010000000000019
208000,9932,1598,127134,234,306,126054,50,19236,205,1,18828,0.0009989999999999999
209000,10177,284,127181,1005,317,126654,56,19236,229,1,18829,0.0010000000000000009
210000,11297,210,127688,667,-895,127671,42,19233,172,1,18830,0.0010000000000000009
211001,7368,-491,127998,-3213,-895,127486,41,19233,172,1,18831,0.0010010000000000019
212000,6453,2069,128784,-984,1200,127171,38,19235,168,1,18832,0.0009989999999999999
213001,8039,-459,127648,1279,-1288,127983,38,19239,156,1,18833,0.0010010000000000019
214000,9217,896,127312,320,-45,125485,37,19236,152,1,18834,0.0009989999999999999
215000,11114,-859,126485,1771,-1296,125885,37,19234,152,1,18835,0.0010000000000000009
216001,9827,2204,127083,-19,1509,125580,45,19236,184,1,18836,0.0010010000000000019
217000,8810,576,128085,-797,-495,128683,53,19236,184,1,18837,0.0009989999999999999
218000,6501,2418,128636,-3720,1756,127641,45,19236,217,0,18838,0.0010000000000000009
219000,5804,606,128266,-1601,142,127642,45,19237,184,0,18839,0.0010000000000000009
220000,8018,-1240,127581,-58,-2032,127224,40,19237,164,0,18840,0.0010000000000000009
221000,9896,-1210,126849,2347,-1953,126368,44,19237,180,0,18841,0.0010000000000000009
222000,11004,-1486,127179,359,-1924,126866,46,19236,188,0,18842,0.0010000000000000009
223000,9474,3647,128353,-1467,3004,125100,45,19236,188,0,18843,0.0010000000000000009
224000,8323,2031,128246,-1390,953,128082,40,19237,184,0,18844,0.0009999999999999731
225000,5356,751,128311,-2996,-227,127791,40,19236,164,0,18845,0.0010000000000000009
226000,6540,320,128176,-146,-279,127588,42,19236,172,0,18846,0.0010000000000000009
227000,8053,-325,127053,980,-1095,126355,44,19235,180,1,18847,0.0010000000000000009
228000,10912,554,127707,703,116,125682,47,19237,192,1,18848,0.0010000000000000009
229000,12990,-134,126856,2130,-1164,126665,46,19237,188,1,18849,0.0010000000000000009
230000,9615,538,128055,-2775,-328,127226,48,19236,188,1,18850,0.0010000000000000009
231000,6008,277,128319,-2407,-823,128240,42,19235,197,1,18851,0.0010000000000000009
232001,4877,1218,128342,-2606,252,128145,42,19236,172,1,18852,0.0010010000000000019
233000,7287,1531,127603,-392,805,126164,38,19241,156,1,18853,0.0009989999999999999
234000,9787,1140,126539,1810,573,124744,35,19233,143,1,18854,0.0010000000000000009
235002,12109,-1126,126248,2527,-1806,126182,39,19233,160,1,18855,0.0010020000000000029
236000,10822,482,127652,1378,-661,126643,49,19238,160,1,18856,0.0009979999999999989
237000,7923,1372,128375,-3441,174,127693,53,19236,201,1,18857,0.0010000000000000009
238000,5460,2484,129000,-4095,1461,127290,53,19234,217,0,18858,0.0010000000000000009
239000,4102,332,128188,-2331,-106,127987,44,19241,180,0,18859,0.0010000000000000009
240000,9021,-1302,126676,1934,-2229,126859,39,19238,160,0,18860,0.0010000000000000009
241001,10378,-251,126360,2621,-522,124786,41,19238,168,0,18861,0.0010010000000000019
242001,12367,-1215,126476,1682,-1580,126172,42,19234,168,0,18862,0.0010000000000000009
243000,10705,2059,128261,126,870,126249,40,19235,172,0,18863,0.0009989999999999999
244000,8003,2602,128640,-1663,1209,128471,40,19238,164,0,18864,0.0010000000000000009
245000,5162,1507,127856,-2665,-835,127292,39,19235,160,0,18865,0.0010000000000000009
246003,6107,-327,127691,-1711,-428,127511,40,19236,164,0,18866,0.0010030000000000039
247000,9154,394,126732,1521,-1223,124904,44,19234,180,1,18867,0.0009969999999999979
248000,10511,940,127262,1676,865,125847,39,19234,180,1,18868,0.0010000000000000009
249000,12352,-323,127730,1323,-518,127129,47,19235,160,1,18869,0.0010000000000000009
250000,7786,-224,128545,-2123,-751,128872,47,19234,192,1,18870,0.0010000000000000009
251000,6213,710,128881,-2579,740,128802,44,19233,180,1,18871,0.0010000000000000009
252000,4771,2806,128513,-2775,1453,126033,38,19240,156,1,18872,0.0010000000000000009
253000,8288,337,127049,-1493,-761,126514,35,19236,143,1,18873,0.0010000000000000009
254006,10504,259,126534,2993,-177,124723,37,19236,143,1,18874,0.0010060000000000069
255000,11346,-507,126830,1630,-1478,127023,46,19233,152,1,18875,0.0009939999999999949
256000,9757,228,127943,-2491,124,127270,46,19236,188,1,18876,0.0010000000000000009
257001,6487,1399,129077,-4018,285,128529,50,19234,205,0,18877,0.0010009999999999741
258000,5490,1694,128603,-513,951,127466,45,19237,184,0,18878,0.0009990000000000276
259001,7326,976,127442,-1462,-500,126576,39,19233,160,0,18879,0.0010009999999999741
260000,8863,-2302,126525,770,-2798,125903,41,19233,160,0,18880,0.0009990000000000276
261001,11385,1379,126562,4112,834,124662,42,19236,168,0,18881,0.0010009999999999741
262000,10326,1211,127771,-2432,467,126899,42,19235,172,0,18882,0.0009990000000000276
263000,9255,1186,128634,-3002,283,127701,42,19237,172,0,18883,0.0010000000000000009
264001,6020,368,128469,-393,-586,129021,40,19234,164,0,18884,0.0010009999999999741
265000,6168,2213,128383,-2027,1343,125910,38,19236,156,0,18885,0.0009990000000000276
266000,7716,-699,126702,106,-1713,126564,41,19236,156,0,18886,0.0010000000000000009
267000,9360,139,126825,-613,-390,125560,50,19233,168,1,18887,0.0010000000000000009
268001,11158,1900,127519,3571,1437,125078,50,19236,205,1,18888,0.0010009999999999741
269001,9817,-497,127503,155,-1358,127847,43,19235,176,1,18889,0.0010000000000000009
270000,6711,-109,128814,-7931,-904,128475,43,19234,176,1,18890,0.0009989999999999721
271000,6284,-958,128109,3123,-2061,129753,40,19234,164,1,18891,0.0010000000000000009
272000,7785,4379,128227,804,3441,124707,33,19234,164,1,18892,0.0010000000000000009
273000,9672,99,126739,-3021,-341,124987,33,19237,135,1,18893,0.0010000000000000009
274000,10538,-1407,126288,2070,-2279,126426,33,19236,135,1,18894,0.0010000000000000009
275000,11524,2627,128077,3839,1906,126321,40,19235,164,1,18895,0.0010000000000000009
276000,7189,381,127945,-3493,-690,128337,48,19234,197,1,18896,0.0010000000000000009
277002,5092,1430,129023,-6674,198,127721,52,19237,213,0,18897,0.0010020000000000029
278000,5948,970,128540,1602,497,128516,41,19237,168,0,18898,0.0009979999999999989
279000,9346,1546,127462,-261,788,125527,42,19238,168,0,18899,0.0010000000000000009
280000,9347,-1982,126446,-146,-2493,125147,40,19232,172,0,18900,0.0010000000000000009
281001,10040,-932,127783,-741,-1889,127371,40,19238,164,0,18901,0.0010010000000000296
282002,8857,-1458,127546,773,-2063,129129,43,19240,176,0,18902,0.0010009999999999741
283002,6514,3445,128223,-1928,1058,125950,44,19236,180,0,18903,0.0010000000000000009
284002,6065,5828,127675,-3285,6518,124852,39,19236,160,0,18904,0.0010000000000000009
285000,7755,-1498,126941,-1437,-2227,128768,41,19236,160,0,18905,0.0009979999999999989
286000,9297,2891,128016,752,2792,123501,46,19234,168,0,18906,0.0010000000000000009
287000,10101,-3721,127231,1182,-4008,128193,46,19232,188,1,18907,0.0010000000000000009
288004,7153,-2743,127541,-1584,-3578,127257,41,19237,168,1,18908,0.0010040000000000049
289000,7822,-2226,127873,-608,-3692,130695,45,19238,184,1,18909,0.0009959999999999969
290000,7628,8119,127159,-1245,4503,124652,43,19235,176,1,18910,0.0010000000000000009
291000,6349,8636,128216,1857,10604,122367,38,19235,176,1,18911,0.0010000000000000009
292001,10523,-5262,126535,-9181,-6936,130010,35,19236,156,1,18912,0.0010010000000000296
293001,13666,1125,128248,8854,-465,128124,35,19232,143,1,18913,0.0010000000000000009
294000,8636,-8025,126870,6959,-8029,128728,38,19235,156,1,18914,0.0009989999999999721
295000,6119,907,127885,-12274,-2233,125278,45,19240,184,1,18915,0.0010000000000000009
296000,6195,1618,127745,-499,-1107,130526,51,19238,209,1,18916,0.0010000000000000009
297001,4674,15843,128726,3698,14844,117739,48,19238,209,0,18917,0.0010009999999999741
298001,8923,345,126365,-12955,-4339,128589,41,19238,197,0,18918,0.0010000000000000009
299000,11348,-6755,126967,9669,-7083,128719,41,19235,168,0,18919,0.0009990000000000276
300000,12185,-5976,127794,4278,-6632,128467,40,19235,164,0,18920,0.0010000000000000009
301000,13249,-2819,129247,-2810,-2882,128755,39,19235,160,0,18921,0.0010000000000000009
302000,4874,709,127828,966,312,128848,43,19241,176,0,18922,0.0010000000000000009
303000,6390,7924,127481,-7153,8060,123523,40,19241,176,0,18923,0.0010000000000000009
304000,2694,8591,127583,-8417,6805,123018,39,19235,164,0,18924,0.0010000000000000009
305001,12514,-222,126893,9944,-1539,127090,39,19234,160,0,18925,0.0010009999999999741
306002,10660,-3474,126620,7534,-4681,127947,41,19232,168,1,18926,0.0010010000000000296
307000,11151,-3939,128655,-12571,-4062,127226,53,19234,217,1,18927,0.0009979999999999989
308000,11932,-2449,128822,8789,-3060,131411,44,19236,180,1,18928,0.0010000000000000009
309000,7003,-859,128263,174,-1102,129274,47,19236,180,1,18929,0.0010000000000000009
310000,6058,7726,128184,-9978,6969,121379,42,19237,192,1,18930,0.0010000000000000009
311000,2529,734,127584,-5736,-746,128143,42,19236,172,1,18931,0.0010000000000000009
312000,11584,2516,127477,7795,2229,125285,37,19235,152,1,18932,0.0010000000000000009
313000,10625,-239,127020,4645,-1379,126883,38,19234,156,1,18933,0.0010000000000000009
314000,10612,-1200,127068,-4970,-1654,126232,43,19235,176,1,18934,0.0010000000000000009
315000,8809,-3497,127649,3222,-4603,130675,50,19235,176,1,18935,0.0010000000000000009
316001,7424,751,128194,-2960,54,129099,57,19233,205,0,18936,0.0010009999999999741
317000,7868,8999,129292,-3582,8269,120547,57,19235,233,0,18937,0.0009990000000000276
318003,5397,-2302,127869,-3377,-3104,129873,42,19235,172,0,18938,0.0010029999999999761
319000,10349,-2458,126979,1812,-3187,126612,41,19234,168,0,18939,0.0009970000000000256
320001,9387,-2366,126788,5849,-3389,129111,43,19237,176,0,18940,0.0010009999999999741
321000,10917,5779,127644,-2051,5260,122404,45,19237,184,0,18941,0.0009990000000000276
322001,9083,-1804,126896,-1166,-2262,128886,42,19238,184,0,18942,0.0010009999999999741
323000,8451,2632,128525,-2128,1118,127809,42,19235,172,0,18943,0.0009990000000000276
324000,8685,3692,127999,1789,3411,124268,42,19236,172,0,18944,0.0010000000000000009
325001,5742,-2026,127210,-2472,-3176,127532,43,19232,176,0,18945,0.0010009999999999741
326000,8665,-1501,127701,-1129,-1810,126985,46,19232,188,0,18946,0.0009990000000000276
327000,9206,-1673,127178,2566,-3232,129725,58,19232,238,1,18947,0.0010000000000000009
328003,9868,5766,128263,615,5338,123101,45,19237,238,1,18948,0.0010029999999999761
329000,9968,-3247,126516,-54,-3154,128788,46,19237,184,1,18949,0.0009969999999999701
330000,7918,2354,127772,-2949,154,126594,46,19241,188,1,18950,0.0010000000000000009
331000,9054,2682,128594,1314,3180,125994,40,19236,164,1,18951,0.0010000000000000009
332000,7486,-216,127627,-285,-1167,127413,36,19234,147,1,18952,0.0010000000000000009
333002,10518,-2240,127139,304,-2121,126346,39,19234,160,1,18953,0.0010020000000000029
334000,9253,-1235,127222,2215,-3445,129060,44,19238,160,1,18954,0.0009979999999999989
335000,10812,3572,127839,286,3328,124428,50,19234,180,1,18955,0.0010000000000000009
336003,8078,-1095,127456,-1112,-2021,129618,50,19232,205,0,18956,0.0010030000000000316
337000,6151,5460,128332,-4465,3000,125321,57,19239,233,0,18957,0.0009969999999999701
338000,9100,1378,128167,89,2133,126321,40,19235,164,0,18958,0.0010000000000000009
339000,8043,-2248,127093,911,-3004,127998,42,19239,172,0,18959,0.0010000000000000009
340000,10271,-5217,126748,1474,-5400,128988,43,19239,172,0,18960,0.0010000000000000009
341001,9099,1224,127935,505,-1796,124572,44,19234,176,0,18961,0.0010010000000000296
342000,10215,5787,128836,-1733,6367,126523,44,19234,180,0,18962,0.0009989999999999721
343001,7472,-627,127550,-940,-1443,129639,42,19236,172,0,18963,0.0010010000000000296
344000,5976,3171,128617,-2870,2567,125079,38,19234,156,0,18964,0.0009989999999999721
345000,7828,329,127255,-453,-1224,127164,41,19240,168,0,18965,0.0010000000000000009
346006,9038,-909,127633,1202,-1588,126963,51,19240,168,1,18966,0.0010060000000000069
347008,11443,-2869,127508,1185,-3477,127743,44,19238,209,1,18967,0.0010020000000000029
348000,10484,1729,127835,1686,1932,125459,44,19233,180,1,18968,0.0009919999999999929
349000,7372,1981,128223,-2713,368,127698,48,19236,197,1,18969,0.0010000000000000009
350000,5698,-676,127819,-2274,-1147,129246,42,19240,172,1,18970,0.0010000000000000009
351000,6187,2862,127982,-2390,2408,125801,35,19238,143,1,18971,0.0010000000000000009
352000,9211,1545,127288,2165,329,124435,36,19238,143,1,18972,0.0010000000000000009
353000,10104,-1441,126523,1672,-2493,126795,42,19237,147,1,18973,0.0010000000000000009
354000,12184,-4036,126853,2514,-4429,128943,42,19234,172,1,18974,0.0010000000000000009
355000,8603,3665,128196,-2612,3257,124608,48,19235,197,1,18975,0.0010000000000000009
356001,6949,4190,128527,-4892,2963,127200,52,19235,213,0,18976,0.0010009999999999741
357000,4212,1153,128329,-3155,188,127565,46,19234,188,0,18977,0.0009990000000000276
358000,7808,-1625,127037,1063,-2470,128126,36,19234,188,0,18978,0.0010000000000000009
359001,9863,-198,126963,3164,-207,125776,41,19237,147,0,18979,0.0010009999999999741
360000,10603,1360,126499,1226,-2607,125333,41,19235,168,0,18980,0.0009990000000000276
361000,11773,-2766,127208,375,-2049,128594,45,19232,184,0,18981,0.0010000000000000009
362000,7751,2697,128731,-1911,4682,125747,42,19233,172,0,18982,0.0010000000000000009
363000,6820,4514,128026,-2711,721,127089,40,19232,164,0,18983,0.0010000000000000009
364003,5550,1705,127935,-2115,648,127003,38,19232,156,0,18984,0.0010029999999999761
365000,8177,-1893,127126,1141,-2645,128003,42,19235,156,1,18985,0.0009970000000000256
366000,10526,622,126992,2531,-271,124873,35,19240,172,1,18986,0.0010000000000000009
367000,11489,1983,128058,417,241,126644,35,19234,143,1,18987,0.0010000000000000009
368000,9573,-1972,127875,-2319,-2865,128295,46,19237,188,1,18988,0.0010000000000000009
369000,6322,1130,129055,-2958,1807,127630,46,19234,188,1,18989,0.0010000000000000009
370000,5299,2116,128359,-2596,701,128161,39,19234,160,1,18990,0.0010000000000000009
371001,6127,1980,127465,-2029,690,125294,32,19239,160,1,18991,0.0010009999999999741
372000,9925,443,126835,1608,-1300,127081,37,19240,131,1,18992,0.0009990000000000276
373000,10819,-1051,126602,3285,-704,125179,37,19234,152,1,18993,0.0010000000000000009
374000,10322,129,127488,422,-1183,127376,43,19235,176,1,18994,0.0010000000000000009
375000,6887,-490,128459,-4468,157,127730,48,19232,197,1,18995,0.0010000000000000009
376000,5609,2922,129107,-4694,1844,126854,49,19232,201,0,18996,0.0010000000000000009
377001,6630,1836,127642,-84,-464,128284,38,19238,201,0,18997,0.0010009999999999741
378000,8264,1039,126741,-2002,-1326,125537,40,19237,156,0,18998,0.0009990000000000276
379001,10437,-1877,126336,2736,-3003,126696,40,19235,164,0,18999,0.0010009999999999741
380000,10811,-132,126968,3147,274,125457,42,19234,172,0,19000,0.0009990000000000276
381002,9280,1571,128186,-3466,1072,126475,42,19236,172,0,19001,0.0010020000000000029
382000,7021,575,128067,-3794,-1387,128958,40,19239,164,0,19002,0.0009979999999999989
383000,5760,2176,128428,-471,1615,126528,38,19239,164,0,19003,0.0010000000000000009
384000,7220,1990,127510,-1239,383,127046,39,19238,156,0,19004,0.0010000000000000009
385000,7881,-1075,126767,318,-2001,126816,39,19238,160,0,19005,0.0010000000000000009
386000,10554,-286,127292,-941,139,125649,47,19236,192,1,19006,0.0010000000000000009
387000,11057,859,127055,4669,580,126508,42,19238,172,1,19007,0.0009999999999999454
388000,7843,1159,128117,-1933,118,127595,45,19235,184,1,19008,0.0010000000000000009
389000,6796,-145,128225,-7551,-1526,129816,41,19235,184,1,19009,0.0010000000000000009
390000,6591,1959,128302,3217,-577,126123,34,19239,168,1,19010,0.0010000000000000009
391000,8337,3662,127689,443,833,124682,34,19237,139,1,19011,0.0010000000000000009
392000,10023,413,125839,-1403,-2666,126398,34,19235,139,1,19012,0.0010000000000000009
393000,11697,-1397,127097,1379,-447,126878,37,19239,152,1,19013,0.0010000000000000009
394000,9724,730,127594,4197,203,127570,46,19234,188,1,19014,0.0010000000000000009
395000,6149,2184,128255,-4155,1644,126489,51,19234,188,0,19015,0.0010000000000000009
396000,5331,2085,128534,-2232,-38,128818,40,19233,209,0,19016,0.0010000000000000009
397000,7864,530,127945,2592,-187,126999,40,19234,164,0,19017,0.0010000000000000009
398000,10006,751,126917,606,-1558,124924,39,19236,160,0,19018,0.0010000000000000009
399003,9272,-2059,126904,-1305,-2000,125900,42,19233,172,0,19019,0.0010030000000000316
400000,10321,-1458,127761,1987,-1392,128326,43,19236,176,0,19020,0.0009969999999999701
401000,8484,482,128883,-2780,2869,127546,41,19236,176,0,19021,0.0010000000000000009
402000,5602,4084,128387,-5390,2152,127176,38,19236,168,0,19022,0.0010000000000000009
403000,4984,2434,127915,95,-273,127132,38,19238,156,0,19023,0.0010000000000000009
404000,7715,688,127230,-556,-2148,127321,38,19239,156,0,19024,0.0010000000000000009
405000,10927,-4511,126536,4636,-1620,123868,45,19232,184,1,19025,0.0010000000000000009
406000,10376,4898,127937,-664,5165,124272,47,19235,192,1,19026,0.0010000000000000009
407000,12363,-515,127066,-2985,-4594,130088,46,19235,192,1,19027,0.0010000000000000009
408000,7658,268,129270,-605,3010,126699,43,19233,188,1,19028,0.0010000000000000009
409000,6307,3058,128405,3714,-3047,129870,43,19234,176,1,19029,0.0010000000000000009
410000,5069,-1934,126960,-6738,-2903,126980,37,19238,152,1,19030,0.0010000000000000009
411000,8653,-2285,127611,-3797,-410,126044,35,19239,143,1,19031,0.0010000000000000009
412000,14974,3911,126562,11975,4561,123819,37,19235,152,1,19032,0.0010000000000000009
413000,9379,4366,127253,-3250,2789,124198,44,19235,180,1,19033,0.0010000000000000009
414005,7831,-5258,126932,-6898,-5815,130226,50,19233,180,1,19034,0.0010049999999999781
415002,6073,-4549,129121,5886,-58,129591,54,19236,205,0,19035,0.0009970000000000256
416002,6051,6234,129112,-8380,4394,125581,54,19237,221,0,19036,0.0010000000000000009
417000,10551,653,127244,501,-1255,124535,41,19236,168,0,19037,0.0009979999999999989
418000,9128,-1470,126713,8041,-3183,128135,40,19232,164,0,19038,0.0010000000000000009
419000,10957,-2743,126559,-3724,-4268,126912,41,19232,168,0,19039,0.0010000000000000009
420000,9657,1501,127754,-2025,2133,125012,42,19237,168,0,19040,0.0010000000000000009
421003,9588,2869,128262,7966,2108,129505,40,19234,172,0,19041,0.0010029999999999761
422000,5420,3925,127803,-8976,1872,124829,40,19236,164,0,19042,0.0009970000000000256
423000,7112,133,128002,-4223,-2393,129230,40,19237,164,0,19043,0.0010000000000000009
424000,10376,-1869,126408,10510,-1396,126589,41,19237,168,0,19044,0.0010000000000000009
425000,9308,2642,127613,-563,2194,123942,52,19237,213,1,19045,0.0010000000000000009
426001,10016,776,128191,-7676,1628,126686,43,19235,213,1,19046,0.0010009999999999741
427003,10356,-2979,127638,7627,-3997,130760,47,19235,176,1,19047,0.0010020000000000029
428000,7320,-2814,128820,-294,-1505,128716,47,19234,192,1,19048,0.0009970000000000256
429000,4878,4677,128151,-6619,3632,124073,42,19240,172,1,19049,0.0010000000000000009
430000,7522,-1431,127197,-2478,-2933,129451,38,19235,156,1,19050,0.0010000000000000009
431000,11281,3189,127990,4691,4919,123840,38,19235,156,1,19051,0.0010000000000000009
432001,10272,3376,126106,1736,264,125891,42,19235,156,1,19052,0.0010009999999999741
433000,9481,-1941,127411,-1658,-2544,125800,49,19233,172,1,19053,0.0009990000000000276
434000,7430,-2859,128360,184,-4477,132086,49,19232,201,1,19054,0.0010000000000000009
435000,8215,-1075,129045,-2449,997,124234,57,19232,233,0,19055,0.0010000000000000009
436000,6035,6713,128424,-1812,5177,126727,41,19235,168,0,19056,0.0010000000000000009
437000,7713,-976,126447,-780,-2916,126940,44,19239,180,0,19057,0.0010000000000000009
438000,9877,-1768,126479,1205,-1241,126083,42,19239,180,0,19058,0.0010000000000000009
439000,10618,178,127887,2472,1529,125753,42,19235,172,0,19059,0.0010000000000000009
440001,10565,2405,127595,-570,-607,126776,42,19235,172,0,19060,0.0010009999999999741
441001,8160,-933,128612,-1433,-862,129120,44,19237,180,0,19061,0.0010000000000000009
442000,6858,1677,128686,-2785,1981,126798,41,19239,168,0,19062,0.0009990000000000276
443000,7165,372,127359,1455,-1960,128184,42,19233,172,0,19063,0.0010000000000000009
444000,7364,-946,127500,-2201,1045,124960,46,19233,172,0,19064,0.0010000000000000009
445000,10211,1774,126871,731,-317,125967,54,19236,188,1,19065,0.0010000000000000009
446000,10290,1295,127820,1237,1840,125944,54,19236,221,1,19066,0.0010000000000000009
447000,10940,1516,127394,268,-2997,129371,44,19232,180,1,19067,0.0009999999999999454
448000,7604,-3465,127924,-2742,-1249,128035,47,19233,192,1,19068,0.0010000000000000009
449000,6309,1764,129058,-636,2343,126418,42,19238,172,1,19069,0.0010000000000000009
450000,8354,1357,127576,828,-861,127991,35,19238,172,1,19070,0.0010000000000000009
451000,9301,355,127204,461,-46,125317,37,19236,143,1,19071,0.0010000000000000009
452000,10913,769,126865,1631,-752,125875,37,19237,152,1,19072,0.0010000000000000009
453000,9989,1486,127687,1139,1884,125215,42,19234,172,1,19073,0.0010000000000000009
454000,9384,1498,127961,-1949,-2495,130029,49,19237,201,1,19074,0.0010000000000000009
455000,6213,-1898,128224,-3127,-262,127989,55,19237,225,0,19075,0.0010000000000000009
456000,6162,4107,128913,-1960,3090,125464,41,19237,168,0,19076,0.0010000000000000009
457000,8739,622,127153,868,-2129,127863,40,19237,168,0,19077,0.0010000000000000009
458000,9715,-2001,126499,1763,-3108,126627,41,19240,164,0,19078,0.0010000000000000009
459000,10984,-2453,127229,-194,-1677,127270,41,19235,168,0,19079,0.0010000000000000009
460000,9330,3129,128184,-1760,3625,124279,45,19235,184,0,19080,0.0010000000000000009
461000,8784,3136,127751,-841,-711,129330,42,19236,172,0,19081,0.0010000000000000009
462000,5493,-763,127958,-2694,-253,128127,42,19236,172,0,19082,0.0010000000000000009
463000,6648,1609,127530,-1220,474,126077,41,19236,172,0,19083,0.0010000000000000009
464000,8315,304,127002,1345,-570,126211,49,19236,168,1,19084,0.0010000000000000009
465000,11004,-17,127150,417,-807,126363,49,19239,201,1,19085,0.0010000000000000009
466000,12892,-777,127295,1861,-456,126347,42,19235,172,1,19086,0.0010000000000000009
467000,8777,1614,127960,-2962,143,126556,46,19232,188,1,19087,0.0010000000000000009
468000,5991,-979,128297,-2366,-2740,129473,46,19232,188,1,19088,0.0010000000000000009
469000,4894,-282,128084,-2488,110,128146,38,19231,188,1,19089,0.0010000000000000009
470000,7662,2824,127666,-832,2529,125323,35,19236,156,1,19090,0.0010000000000000009
471000,9609,2941,126340,1894,1054,124132,35,19236,143,1,19091,0.0010000000000000009
472000,11974,-1069,126252,1841,-2984,127292,40,19234,164,1,19092,0.0010000000000000009
473001,10921,-2209,127696,1700,-1444,126939,45,19233,184,1,19093,0.0010010000000000296
474000,7349,2020,128816,-2886,1338,126941,51,19234,209,1,19094,0.0009989999999999721
475000,5315,1651,128777,-5123,210,128042,57,19234,209,0,19095,0.0010000000000000009
476000,3800,2009,128371,-1955,-14,127800,40,19237,233,0,19096,0.0010000000000000009
477000,9727,-774,126389,2121,-1234,126674,40,19239,164,0,19097,0.0010000000000000009
478000,10382,1029,126092,2887,401,123900,38,19236,156,0,19098,0.0010000000000000009
479002,12688,-2046,126704,828,-2652,127155,41,19234,168,0,19099,0.0010020000000000029
480000,10389,431,128620,788,626,126841,43,19234,176,0,19100,0.0009979999999999989
481000,7542,2735,128885,-1910,1563,128415,39,19234,176,0,19101,0.0010000000000000009
482000,5253,846,128161,-2764,-404,127581,40,19239,160,0,19102,0.0010000000000000009
483002,5968,851,127580,-1984,-304,127234,40,19236,164,0,19103,0.0010020000000000029
484000,9837,93,126500,1815,-379,124773,40,19233,164,1,19104,0.0009979999999999989
485000,10626,769,127000,2169,1798,125647,36,19237,147,1,19105,0.0010000000000000009
486000,12083,639,127433,188,-3126,128212,45,19236,184,1,19106,0.0010000000000000009
487000,7365,-2248,128655,-1330,-936,128840,48,19236,184,1,19107,0.0010000000000000009
488000,5209,911,128969,-2833,764,128515,42,19235,197,1,19108,0.0010000000000000009
489000,4951,1819,128397,-3102,750,126493,42,19240,172,1,19109,0.0010000000000000009
490000,8550,1804,127241,820,907,126088,35,19239,143,1,19110,0.0010000000000000009
491001,10783,373,126469,3284,-832,125199,36,19235,147,1,19111,0.0010009999999999741
492000,11262,322,127246,882,-1388,126282,43,19232,176,1,19112,0.0009990000000000276
493000,9492,-1882,128703,-1753,617,128043,49,19232,176,1,19113,0.0010000000000000009
494000,6079,-424,129338,-4187,721,127921,55,19234,201,0,19114,0.0010000000000000009
495000,5466,1747,129515,-708,987,128132,55,19236,225,0,19115,0.0010000000000000009
496000,6518,1230,127111,-1610,-833,126333,40,19236,164,0,19116,0.0010000000000000009
497000,9091,-18,126638,582,-2019,125859,40,19237,164,0,19117,0.0010000000000000009
498000,11228,-797,126504,4673,172,125559,41,19238,168,0,19118,0.0010000000000000009
499000,10023,1569,127738,-3040,620,126418,42,19238,168,0,19119,0.0010000000000000009
500000,8994,616,128475,-2893,-957,128667,42,19233,172,0,19120,0.0010000000000000009
501000,5639,255,128424,-326,213,128594,42,19238,172,0,19121,0.0010000000000000009
502000,6428,2018,127826,-1937,1115,126180,39,19236,160,0,19122,0.0010000000000000009
503000,7475,1807,126529,-1248,-1268,126525,39,19234,160,0,19123,0.0010000000000000009
504000,9993,-1573,126615,561,128,125085,46,19233,188,1,19124,0.0010000000000000009
505000,11015,2593,127558,2884,2090,124669,39,19233,160,1,19125,0.0010000000000000009
506001,9966,-1297,127403,233,-1979,127841,43,19235,160,1,19126,0.0010009999999999186
507002,6155,-1572,128866,-7186,-1539,128623,42,19233,176,1,19127,0.0010010000000000296
508000,6256,-744,128207,2015,-1357,129178,42,19235,172,1,19128,0.0009980000000000544
509000,7478,3293,128051,1261,3767,124181,35,19235,143,1,19129,0.0010000000000000009
510000,9970,2716,126502,-2727,-51,125016,32,19237,131,1,19130,0.0010000000000000009
511000,10735,-2049,126216,1594,-1339,125985,37,19237,152,1,19131,0.0010000000000000009
512001,11392,1108,127918,4195,1164,126457,43,19240,152,1,19132,0.0010009999999999186
513000,7209,456,127754,-3081,-1564,128318,50,19235,176,1,19133,0.0009990000000000832
514000,4517,626,128705,-6710,301,127542,50,19238,205,0,19134,0.0010000000000000009
515003,6580,1916,128551,1352,1007,128661,38,19239,156,0,19135,0.0010029999999999761
516000,9498,1741,127420,-313,1645,125059,40,19233,164,0,19136,0.0009970000000000256
517000,9641,563,126873,-619,-1927,125375,39,19233,160,0,19137,0.0010000000000000009
518000,10717,-2952,126793,493,-4020,127871,44,19237,160,0,19138,0.0010000000000000009
519000,8959,-1426,128376,4102,-54,126245,42,19233,180,0,19139,0.0010000000000000009
520000,6577,5450,128345,-4708,3528,128291,42,19235,172,0,19140,0.0010000000000000009
521000,6417,-202,127675,-7601,-905,127923,38,19238,156,0,19141,0.0010000000000000009
522000,7131,4578,128762,3490,4495,124517,39,19239,160,0,19142,0.0010000000000000009
523000,8376,1272,126760,1998,-2494,128257,41,19236,168,0,19143,0.0010000000000000009
524000,8838,-4755,127030,-5984,-5093,126540,51,19236,168,1,19144,0.0010000000000000009
525000,7905,-2962,127980,3179,-2302,128880,44,19239,209,1,19145,0.0010000000000000009
526000,12346,2064,127090,2228,3732,124883,44,19237,180,1,19146,0.0010000000000000009
527000,6544,8225,128779,1061,6403,124473,46,19234,188,1,19147,0.0010000000000000009
528000,6967,-2226,126827,-8980,-6529,128424,40,19239,164,1,19148,0.0010000000000000009
529000,11078,-1384,129677,2985,1859,124661,37,19239,152,1,19149,0.0010000000000000009
530000,9523,2825,127145,7311,-1663,129161,38,19239,152,1,19150,0.0010000000000000009
531000,8576,-6654,126395,-6123,-6444,125426,41,19234,156,1,19151,0.0010000000000000009
532000,5684,-2214,127321,-2134,382,130812,41,19231,168,1,19152,0.0010000000000000009
533000,7820,5532,127488,2305,14336,118439,51,19234,209,1,19153,0.0010000000000000009
534000,5819,16084,128555,-6724,3808,126846,52,19236,213,0,19154,0.0010000000000000009
535000,10230,-3572,126573,474,-11300,131504,39,19236,160,0,19155,0.0010000000000000009
536000,11564,-8522,127621,3325,-3562,126602,42,19236,160,0,19156,0.0009999999999998899
537000,12405,-2937,128871,4162,-5499,129917,41,19239,172,0,19157,0.0010000000000000009
538000,8564,-3806,126561,-209,-991,126002,41,19234,168,0,19158,0.0010000000000000009
539004,5391,5011,128206,-7305,5483,127632,44,19238,180,0,19159,0.0010040000000000049
540000,5383,9318,127419,-1389,9892,122270,41,19237,168,0,19160,0.0009959999999999969
541000,7769,7646,126188,-923,-919,127043,38,19239,156,0,19161,0.0010000000000000009
542000,11314,-2888,127523,5067,-2083,126402,39,19239,156,0,19162,0.0010000000000000009
543000,10823,-2110,127820,3512,-3505,127880,48,19236,160,1,19163,0.0010000000000000009
544000,12202,-4556,128458,-3915,-4336,129871,48,19240,197,1,19164,0.0010000000000000009
545000,8709,-1758,128520,2330,-2184,128222,42,19237,172,1,19165,0.0010000000000000009
546000,7087,166,127605,-3339,3470,126325,47,19236,192,1,19166,0.0010000000000000009
547000,4592,7657,128490,-5537,5522,123529,45,19233,184,1,19167,0.0010000000000000009
548000,6105,722,126575,-3413,-4943,130714,38,19233,156,1,19168,0.0010000000000000009
549000,11678,-2071,127669,6844,3632,123543,35,19237,156,1,19169,0.0010000000000000009
550000,10630,6888,127641,3128,2334,124833,42,19238,143,1,19170,0.0010000000000000009
551001,10238,-2633,126050,-2750,-7558,129403,42,19234,172,1,19171,0.0010010000000000296
552001,8384,-5689,128033,1335,-4113,130292,49,19232,201,1,19172,0.0010000000000000009
553000,7566,592,128676,-1469,5199,125256,55,19233,225,0,19173,0.0009989999999999721
554000,5285,8807,128808,-7378,5066,122859,43,19233,176,0,19174,0.0010000000000000009
555000,7686,-383,127642,-1360,-5928,131278,40,19238,176,0,19175,0.0010000000000000009
556000,9738,-4883,126372,5825,-2695,127571,42,19236,164,0,19176,0.0010000000000000009
557000,9704,2849,127254,1644,3542,122794,42,19239,172,0,19177,0.0010000000000000009
558000,10675,2577,126671,-1949,-381,126943,46,19234,188,0,19178,0.0010000000000000009
559000,9563,-3395,127104,316,-5112,129873,46,19236,188,0,19179,0.0010000000000000009
560002,8238,5092,129689,-1965,6094,124234,41,19236,168,0,19180,0.0010020000000000584
561000,6628,5210,127635,-1090,1172,126391,40,19237,168,0,19181,0.0009979999999999434
562000,6473,-3850,126977,-1537,-6175,129743,45,19236,164,0,19182,0.0010000000000000009
563001,8759,-2577,127407,179,-1485,127636,45,19232,184,0,19183,0.0010010000000000296
564000,10659,2708,127496,1329,4057,124355,54,19233,221,1,19184,0.0009989999999999721
565000,9465,4542,127220,2127,1561,124981,43,19230,176,1,19185,0.0010000000000000009
566002,10394,-4051,126567,-1703,-5265,130391,46,19232,188,1,19186,0.0010020000000000584
567000,8045,470,128658,-1459,2686,125034,42,19232,188,1,19187,0.0009979999999999434
568000,7115,5152,128300,650,1901,126958,36,19235,172,1,19188,0.0010000000000000009
569002,7632,-1669,127307,-1603,-3617,128639,36,19237,147,1,19189,0.0010020000000000584
570000,10108,-2498,127412,1385,-2699,127286,36,19236,147,1,19190,0.0009979999999999434
571000,11040,1066,127508,2570,2065,125348,41,19233,168,1,19191,0.0010000000000000009
572000,10693,2843,126959,835,930,125417,48,19229,197,1,19192,0.0010000000000000009
573002,8270,-1313,127649,-2579,-1999,129172,53,19229,197,0,19193,0.0010020000000000584
574018,6014,5929,128750,-3284,3933,125452,42,19234,217,0,19194,0.0010160000000000169
575000,7778,4164,128246,-650,1617,128473,42,19236,172,0,19195,0.0009819999999999274
576000,7914,-2918,126553,640,-5799,128851,41,19236,168,0,19196,0.0010000000000000009
577000,9723,-5424,127133,2356,-5577,126196,43,19236,176,0,19197,0.0010000000000000009
578000,10560,2063,128230,-187,3773,123701,44,19235,180,0,19198,0.0010000000000000009
579000,9970,2847,127780,-896,-159,129007,43,19235,180,0,19199,0.0010000000000000009
580000,7559,40,128269,-2130,1144,127221,43,19234,176,0,19200,0.0010000000000000009
581000,5626,2898,128284,-2452,1850,125727,43,19238,176,0,19201,0.0010000000000000009
582000,6980,2385,127398,11,-1995,127326,43,19238,176,0,19202,0.0010000000000000009
583000,9320,-1989,127117,1134,-4124,127963,48,19235,197,1,19203,0.0010000000000000009
584000,11096,-2563,127781,1965,-135,125522,41,19240,168,1,19204,0.0010000000000000009
585000,12025,2156,128068,-277,3100,125442,45,19240,168,1,19205,0.0010000000000000009
586000,7106,1974,127703,-3379,-2439,128869,47,19237,184,1,19206,0.0010000000000000009
587000,5556,-2028,127815,-4087,-1306,129100,47,19234,192,1,19207,0.0010000000000000009
588000,5708,1962,128554,-478,3538,125293,39,19239,160,1,19208,0.0010000000000000009
589000,8760,4096,127173,1655,441,125160,35,19237,143,1,19209,0.0010000000000000009
590000,10850,-1952,126300,1901,-4630,127937,39,19232,160,1,19210,0.0010000000000000009
591000,11399,-3143,127114,1769,-1028,126308,47,19232,160,1,19211,0.0010000000000000009
592000,9765,2141,128314,-1407,3377,125263,50,19232,192,1,19212,0.0010000000000000009
593000,7881,2657,128862,-5380,2524,128054,50,19228,205,0,19213,0.0010000000000000009
594002,4116,914,128206,-4058,-1805,129159,53,19239,217,0,19214,0.0010019999999999474
595000,7362,-870,127631,302,-810,126512,39,19237,160,0,19215,0.0009980000000000544
596000,9316,522,127064,3274,-800,125487,38,19235,156,0,19216,0.0010000000000000009
597001,11291,-2019,126420,1819,-3993,127103,41,19235,168,0,19217,0.0010010000000000296
598002,11781,-821,127759,338,1530,125450,44,19237,168,0,19218,0.0010009999999999186
599002,8391,4294,128468,-2316,3160,126944,39,19236,180,0,19219,0.0010000000000000009
600002,7124,2814,128208,-2330,293,127657,39,19237,160,0,19220,0.0010000000000000009
601000,5111,-74,128106,-1421,-1124,128366,36,19236,147,0,19221,0.0009980000000000544
602002,7630,-654,127338,-196,-1077,126569,39,19236,160,1,19222,0.0010019999999999474
603000,9582,1075,127321,2082,165,124889,43,19236,176,1,19223,0.0009980000000000544
604000,11973,-193,127475,131,-1399,128092,45,19236,176,1,19224,0.0010000000000000009
605000,10376,-700,127958,-1644,-632,126438,47,19236,184,1,19225,0.0010000000000000009
606001,6179,2110,128797,-2396,1181,127878,47,19235,192,1,19226,0.0010010000000000296
607001,5562,1251,128329,-3267,-301,128417,41,19235,168,1,19227,0.0010000000000000009
608001,6248,-559,127791,-1509,-919,127503,36,19239,147,1,19228,0.0010000000000000009
609000,9695,1712,127218,1851,2310,125393,34,19239,139,1,19229,0.0009989999999999721
610000,10362,176,126386,2375,-908,125179,43,19233,139,1,19230,0.0010000000000000009
611000,10035,-1846,127802,-429,-2398,128394,47,19233,176,1,19231,0.0010000000000000009
612000,8048,17,128412,-2550,430,127019,47,19234,192,1,19232,0.0010000000000000009
613000,5891,3036,129488,-3512,2979,127251,51,19237,209,0,19233,0.0010000000000000009
614002,6563,3085,127581,-1281,248,127185,39,19240,160,0,19234,0.0010019999999999474
615000,7863,-2424,126976,-1364,-3327,128362,39,19236,160,0,19235,0.0009980000000000544
616000,10678,-1273,126391,2639,-1099,124756,40,19236,160,0,19236,0.0010000000000000009
617004,10518,1541,127107,3188,999,126231,42,19236,164,0,19237,0.0010040000000000049
618000,8850,1453,127768,-4462,258,126840,42,19238,172,0,19238,0.0009959999999999969
619001,7171,-358,128169,-2006,-721,129490,42,19239,172,0,19239,0.0010010000000000296
620000,5650,2392,128527,-449,2518,126038,38,19242,156,0,19240,0.0009989999999999721
621000,7233,2043,127387,-1580,-172,126935,38,19236,156,0,19241,0.0010000000000000009
622000,8229,-2501,126557,-336,-3420,125753,45,19236,156,0,19242,0.0010000000000000009
623000,11279,676,127183,343,1176,124564,40,19232,184,1,19243,0.0010000000000000009
624000,10344,3053,126894,4065,2156,126016,40,19232,164,1,19244,0.0010000000000000009
625000,7658,46,128037,-3016,-1703,128914,41,19238,168,1,19245,0.0010000000000000009
626000,6859,-1961,128471,-6265,223,129803,41,19234,168,1,19246,0.0010000000000000009
627000,7039,2064,127607,4395,1955,125662,35,19237,143,1,19247,0.0010000000000000009
628000,8376,3161,127305,-26,573,125116,32,19237,143,1,19248,0.0010000000000000009
629000,10084,100,125783,-2219,-2856,126398,38,19235,131,1,19249,0.0010000000000000009
630000,12090,-2073,127084,2557,394,126595,38,19235,156,1,19250,0.0010000000000000009
631000,9548,2651,127910,263,1725,126450,43,19229,176,1,19251,0.0010000000000000009
632000,5631,2071,127988,-8108,-389,127760,48,19236,197,0,19252,0.0010000000000000009
633002,5377,427,128685,-1476,-20,128940,44,19238,180,0,19253,0.0010019999999999474
634000,8210,925,128254,3938,229,126580,41,19238,180,0,19254,0.0009980000000000544
635000,9936,361,126951,-803,-1179,124721,42,19234,168,0,19255,0.0010000000000000009
636000,9845,-2395,126902,-954,-2140,126126,42,19235,172,0,19256,0.0010000000000000009
637000,10177,-898,128122,2379,-774,128709,41,19237,168,0,19257,0.0010000000000000009
638000,8318,1454,128667,-2918,1817,127700,40,19235,164,0,19258,0.0010000000000000009
639000,4987,3186,128503,-5616,1517,127309,41,19233,168,0,19259,0.0010000000000000009
640000,5235,1873,126956,831,-2428,128169,38,19233,156,0,19260,0.0010000000000000009
641000,9762,-3176,126833,3390,1087,123283,43,19239,156,0,19261,0.0010000000000000009
642000,10732,6180,127909,-249,4056,126128,52,19232,176,1,19262,0.0010000000000000009
643000,11382,-3701,126537,-2765,-5300,127139,52,19239,213,1,19263,0.0010000000000000009
644000,10726,2148,129741,3071,3949,126187,43,19235,176,1,19264,0.0010000000000000009
645000,6260,393,128304,-465,-5897,131471,46,19235,188,1,19265,0.0010000000000000009
646000,5419,-3490,127419,-4373,-2650,127940,42,19235,172,1,19266,0.0010000000000000009
647000,6413,882,128497,915,1214,128779,37,19233,172,1,19267,0.0010000000000000009
648001,10944,2747,127376,-2027,6832,118837,34,19239,152,1,19268,0.0010009999999999186
649002,12922,9365,127261,2046,3641,125768,34,19235,139,1,19269,0.0010010000000000296
650000,9386,-7934,126499,6047,-11535,131872,42,19232,172,1,19270,0.0009980000000000544
651000,6586,-3873,127808,-6974,-193,126597,48,19232,197,1,19271,0.0010000000000000009
652000,5640,3914,130271,-2269,5397,128192,52,19232,213,0,19272,0.0010000000000000009
653000,5374,6033,127874,-986,2538,124885,39,19236,213,0,19273,0.0010000000000000009
654000,12038,-847,127407,-1891,-1944,128010,41,19237,160,0,19274,0.0010000000000000009
655000,9123,-311,126646,6058,-1661,125034,41,19235,168,0,19275,0.0009999999999998899
656003,11372,-2893,127109,-3240,-3568,126672,41,19238,168,0,19276,0.0010030000000000872
657004,10369,-851,128646,1555,8,128307,43,19236,176,0,19277,0.0010009999999999186
658001,7286,1716,128590,3713,1000,128722,41,19236,168,0,19278,0.0009970000000000256
659001,5317,4247,126731,-9683,3011,125199,40,19236,168,0,19279,0.0010000000000000009
660000,6196,1856,127612,-1219,-797,127537,39,19236,164,0,19280,0.0009989999999999721
661000,11581,350,126872,8059,1444,125140,39,19230,160,0,19281,0.0010000000000000009
662001,10399,2690,127783,-1256,358,125814,47,19236,192,1,19282,0.0010010000000000296
663000,9321,-3113,127528,-4443,-5061,127379,38,19235,156,1,19283,0.0009989999999999721
664003,10472,-2471,127801,5836,-2789,130899,46,19236,188,1,19284,0.0010030000000000872
665002,5525,-742,128237,-137,-272,127478,44,19236,188,1,19285,0.0009989999999999721
666000,3604,5760,127883,-9933,3945,124055,39,19238,180,1,19286,0.0009979999999999434
667000,9100,-449,126794,-2502,-1860,129237,39,19238,160,1,19287,0.0010000000000000009
668000,11650,5787,128066,11415,6844,121724,37,19236,152,1,19288,0.0010000000000000009
669000,10630,2933,125890,-3483,-1363,128341,37,19235,152,1,19289,0.0010000000000000009
670000,10248,-7025,127710,-3339,-7042,129631,48,19233,197,1,19290,0.0010000000000000009
671000,8058,-3290,128750,6772,-4605,131822,52,19233,197,1,19291,0.0010000000000000009
672001,6195,588,128569,-5016,2513,120593,48,19235,213,0,19292,0.0010010000000000296
673000,3351,9907,128022,-9291,1478,127155,48,19236,197,0,19293,0.0009989999999999721
674001,9260,-1422,125829,3167,-2506,127681,44,19236,180,0,19294,0.0010010000000000296
675000,10930,627,126539,5797,631,123877,43,19234,176,0,19295,0.0009989999999999721
676000,11477,765,127908,-1485,-3317,126839,45,19236,184,0,19296,0.0010000000000000009
677000,11090,-2698,127768,-902,-2240,128795,45,19236,184,0,19297,0.0010000000000000009
678000,9167,-2287,129295,288,-2588,132109,42,19235,184,0,19298,0.0010000000000000009
679000,5328,578,128001,-7374,3985,123053,42,19238,172,0,19299,0.0010000000000000009
680000,4711,5224,127376,-2267,1899,126662,40,19240,164,0,19300,0.0010000000000000009
681000,8182,1035,126453,4612,266,126043,43,19235,176,0,19301,0.0010000000000000009
682000,10575,1577,126654,-631,492,124871,50,19233,205,1,19302,0.0010000000000000009
683000,10565,22,127620,-1149,-293,126578,43,19233,176,1,19303,0.0010000000000000009
684002,11890,135,128060,4867,-2941,128714,45,19236,176,1,19304,0.0010020000000000584
685000,9200,-4044,128033,-3098,-4858,131363,45,19237,184,1,19305,0.0009979999999999434
686000,5626,966,128938,-3454,2665,124132,42,19235,172,1,19306,0.0010000000000000009
687000,6362,3445,127350,-109,917,127232,35,19234,143,1,19307,0.0010000000000000009
688002,9290,1093,126983,2123,869,125456,35,19240,143,1,19308,0.0010020000000000584
689000,10969,2036,126976,-726,223,124614,38,19240,156,1,19309,0.0009979999999999434
690000,12061,668,127308,2626,318,126934,47,19233,156,1,19310,0.0010000000000000009
691001,9045,803,127819,2218,-1749,128779,54,19233,192,1,19311,0.0010010000000000296
692004,6532,-2003,128632,-7275,-1751,129511,54,19234,221,0,19312,0.0010029999999999761
693000,6490,915,129382,-811,4555,126103,40,19238,164,0,19313,0.0009959999999999969
694000,7728,3544,127068,1629,-1588,126368,41,19234,168,0,19314,0.0010000000000000009
695000,9780,-2872,126377,-761,-4702,127324,42,19234,172,0,19315,0.0010000000000000009
696001,10003,-2450,127764,1423,-1519,127108,44,19237,172,0,19316,0.0010010000000000296
697000,9676,1783,128392,615,2808,125510,43,19235,180,0,19317,0.0009989999999999721
698000,9010,4195,128483,-3087,2160,127245,43,19234,176,0,19318,0.0010000000000000009
699002,6029,588,127930,-1701,-923,128749,43,19232,176,0,19319,0.0010020000000000584
700000,6877,113,127499,471,-356,126431,42,19233,172,0,19320,0.0009979999999999434
701000,7997,539,127616,-1007,54,125997,45,19232,184,1,19321,0.0010000000000000009
702000,10773,-499,127665,1192,-1121,126582,40,19232,184,1,19322,0.0010000000000000009
703000,12732,-760,127654,2703,-835,127011,46,19234,164,1,19323,0.0010000000000000009
704000,8898,782,128305,-3215,-30,127225,46,19236,188,1,19324,0.0010000000000000009
705002,5679,-362,127806,-1881,-2111,128725,46,19234,188,1,19325,0.0010020000000000584
706000,5050,-325,128108,-2551,70,128445,40,19240,164,1,19326,0.0009979999999999434
707000,7989,3945,127582,-1220,3669,124368,37,19236,152,1,19327,0.0010000000000000009
708000,10395,2577,126367,2569,617,124771,37,19236,152,1,19328,0.0010000000000000009
709001,11331,-1436,126726,2056,-2923,126878,45,19239,152,1,19329,0.0010010000000000296
710002,10415,-2574,127625,-55,-3601,127766,45,19235,184,1,19330,0.0010010000000000296
711000,7668,358,128809,-1610,657,127713,51,19234,209,1,19331,0.0009979999999999434
712000,5318,3781,128672,-4662,2386,127214,54,19232,221,0,19332,0.0010000000000000009
713000,4859,835,127741,-3127,-120,127756,41,19235,168,0,19333,0.0010000000000000009
714000,9518,648,126473,2333,-93,125869,38,19235,168,0,19334,0.0010000000000000009
715000,10742,651,126032,3199,-439,124704,42,19237,156,0,19335,0.0010000000000000009
716000,12526,-1186,126846,514,-2260,127164,42,19236,172,0,19336,0.0010000000000000009
717000,9938,143,128640,368,-315,127787,43,19236,176,0,19337,0.0010000000000000009
718000,7856,2013,128814,-1714,1428,127925,41,19237,168,0,19338,0.0010000000000000009
719000,4980,1528,128105,-2517,639,127621,36,19238,147,0,19339,0.0010000000000000009
720000,6206,570,126847,-2819,-795,126787,37,19238,147,0,19340,0.0010000000000000009
721000,9696,572,127065,1570,1249,124787,46,19236,152,1,19341,0.0010000000000000009
722000,10438,2009,126914,1773,392,125603,46,19240,188,1,19342,0.0010000000000000009
723000,12015,-328,127506,1053,-2734,127864,44,19234,180,1,19343,0.0010000000000000009
724000,6796,-1723,128650,-2286,-1553,129201,47,19236,192,1,19344,0.0010000000000000009
725000,5590,-281,128913,-2694,360,128147,42,19237,172,1,19345,0.0010000000000000009
726000,5290,2620,128031,-2834,1177,126417,36,19237,172,1,19346,0.0010000000000000009
727000,8976,2580,126968,-946,613,125094,36,19237,147,1,19347,0.0010000000000000009
728001,10693,1010,126392,3672,-1051,125347,36,19233,147,1,19348,0.0010010000000000296
729000,11066,-508,127206,1282,-1548,126993,38,19236,156,1,19349,0.0009989999999999721
730000,9362,-838,128151,-2596,-959,127567,49,19234,201,1,19350,0.0010000000000000009
731000,6143,644,129103,-4297,877,128200,54,19236,221,0,19351,0.0010000000000000009
732000,5710,3130,128541,-338,2253,126887,39,19236,160,0,19352,0.0010000000000000009
733001,6729,1358,126803,-1881,-1012,127230,39,19237,160,0,19353,0.0010010000000000296
734000,9101,-1138,126186,276,-1689,125284,41,19238,160,0,19354,0.0009989999999999721
735000,10953,-398,126722,4719,514,125237,41,19237,168,0,19355,0.0010000000000000009
736000,10197,956,127889,-2809,-157,127091,43,19236,176,0,19356,0.0010000000000000009
737000,8746,589,128551,-2877,-921,128160,42,19234,172,0,19357,0.0010000000000000009
738000,5397,-221,128215,-549,-77,128880,39,19234,160,0,19358,0.0010000000000000009
739000,6530,2609,128119,-1869,2741,124959,36,19238,160,0,19359,0.0010000000000000009
740001,7684,3025,126466,-381,-888,126949,42,19237,147,0,19360,0.0010010000000000296
741002,10019,-2401,126640,-506,-1163,125607,42,19235,172,1,19361,0.0010009999999999186
742000,10694,2986,127900,2636,2341,124532,46,19236,188,1,19362,0.0009980000000000544
743000,9992,1466,127372,1417,-3230,129067,44,19236,180,1,19363,0.0010000000000000009
744003,6594,-3084,128820,-6883,-1417,128071,42,19236,172,1,19364,0.0010029999999999761
745000,5806,765,128153,957,146,129453,36,19236,172,1,19365,0.0009970000000000256
746000,8520,1796,127843,555,2987,124744,35,19243,147,1,19366,0.0010000000000000009
747000,9819,3319,127021,-484,1156,124295,35,19235,143,1,19367,0.0010000000000000009
748001,10274,-1382,126035,1295,-3600,127547,35,19235,143,1,19368,0.0010009999999999186
749000,11522,-444,128005,1877,23,126076,43,19233,176,1,19369,0.0009990000000000832
750000,7012,9,127736,375,-1391,129577,48,19230,197,1,19370,0.0010000000000000009
751000,5720,561,127830,-5952,936,125390,45,19230,197,0,19371,0.0010000000000000009
752001,6181,5333,129073,-833,3602,127248,40,19240,184,0,19372,0.0010009999999999186
753000,9279,1235,126933,-340,-2084,127770,40,19236,164,0,19373,0.0009990000000000832
754000,10526,-1357,126919,672,-2087,124751,41,19238,168,0,19374,0.0010000000000000009
755000,9654,-1608,127852,2472,-2187,127364,41,19233,168,0,19375,0.0010000000000000009
756000,8769,-550,127788,271,-1918,127746,42,19238,172,0,19376,0.0010000000000000009
757000,6470,-223,128733,-5373,-759,130156,39,19238,172,0,19377,0.0010000000000000009
758000,6487,4545,128454,-3837,5329,125229,36,19238,160,0,19378,0.0010000000000000009
759000,7078,5855,127824,2224,4102,124079,36,19236,147,0,19379,0.0010000000000000009
760000,7949,-740,127844,-684,-679,129066,42,19235,172,0,19380,0.0010000000000000009
761000,9656,-8375,126719,-1937,-7675,128375,51,19232,209,1,19381,0.0010000000000000009
762000,10910,-2117,128462,5681,530,125294,42,19234,172,1,19382,0.0010000000000000009
763000,9840,9796,127663,4508,8783,128742,46,19234,172,1,19383,0.0010000000000000009
764000,7701,-3263,127092,-14629,-6312,129064,42,19233,188,1,19384,0.0010000000000000009
765000,8103,1883,129298,4145,3617,127487,42,19238,172,1,19385,0.0010000000000000009
766000,7251,1095,126982,8594,-1885,126027,35,19235,143,1,19386,0.0010000000000000009
767000,8662,-853,127117,-11138,-2135,124943,36,19237,147,1,19387,0.0010000000000000009
768000,9604,-4320,126657,1159,-3430,131492,39,19232,160,1,19388,0.0010000000000000009
769000,9771,2771,126828,8686,8728,120568,46,19232,160,1,19389,0.0010000000000000009
770001,8359,8464,128162,-9857,3487,125767,52,19234,188,1,19390,0.0010009999999999186
771002,5170,1277,127476,1947,-4314,130655,52,19231,213,0,19391,0.0010010000000000296
772000,7945,-4358,127786,-5293,-1823,127005,40,19235,164,0,19392,0.0009980000000000544
773000,12278,1710,128897,4322,1199,125303,39,19235,160,0,19393,0.0010000000000000009
774000,8545,-1640,125734,7431,-7421,129200,40,19232,164,0,19394,0.0009999999999998899
775000,8825,-5023,127376,-11868,-105,125166,42,19232,164,0,19395,0.0010000000000000009
776000,8015,4601,128472,2949,5580,127144,41,19235,172,0,19396,0.0010000000000000009
777001,9728,5173,126973,5081,3599,125880,41,19233,168,0,19397,0.0010010000000000296
778000,6724,3724,128003,-8459,1250,124744,39,19237,160,0,19398,0.0009989999999999721
779000,9142,-1628,127451,586,-3960,128889,39,19234,160,0,19399,0.0010000000000000009
780000,10360,-2227,127406,10986,-1772,128410,45,19234,184,1,19400,0.0010000000000000009
781000,8907,-1476,127855,-8512,-2179,126891,46,19234,188,1,19401,0.0010000000000000009
782000,10117,239,127981,-1363,2357,124804,47,19235,188,1,19402,0.0010000000000000009
783000,7858,2585,128541,2460,728,129139,43,19235,192,1,19403,0.0010000000000000009
784000,7336,1212,128414,-3209,410,126810,43,19234,176,1,19404,0.0010000000000000009
785002,6363,-687,127353,-3873,-2738,127946,40,19235,164,1,19405,0.0010020000000000584
786000,9007,2119,128554,2611,5104,123359,35,19233,143,1,19406,0.0009979999999999434
787002,10552,4989,127072,3983,-1170,127423,38,19233,156,1,19407,0.0010020000000000584
788000,10052,-5246,126507,-2718,-5451,129046,47,19236,156,1,19408,0.0009979999999999434
789000,8140,-176,127784,702,359,126159,52,19232,192,1,19409,0.0010000000000000009
790000,7223,1507,128385,-2010,1758,127152,52,19234,213,0,19410,0.0010000000000000009
791000,7586,4770,129306,-4736,2811,126036,54,19237,221,0,19411,0.0010000000000000009
792000,7931,-948,127698,980,-4002,130204,42,19236,172,0,19412,0.0010000000000000009
793000,8635,-1372,126792,745,335,124310,44,19236,180,0,19413,0.0010000000000000009
794000,9676,1629,126785,1814,-1866,126792,45,19236,180,0,19414,0.0010000000000000009
795001,11000,-2196,126893,244,-1460,127604,43,19236,184,0,19415,0.0010010000000000296
796000,9534,2214,128217,-999,1915,126368,43,19234,176,0,19416,0.0009989999999999721
797001,7307,3085,128752,-3540,2352,125963,41,19239,168,0,19417,0.0010010000000000296
798000,7077,2272,127771,734,-1500,127903,39,19237,160,0,19418,0.0009989999999999721
799000,7207,-3822,127514,433,-4279,129657,43,19235,176,0,19419,0.0010000000000000009
800000,8963,1613,127753,-1323,2504,123994,50,19235,176,0,19420,0.0010000000000000009
801000,10138,1120,126835,706,-315,126007,50,19231,205,1,19421,0.0010000000000000009
802000,9472,548,127741,1817,333,126411,50,19237,205,1,19422,0.0010000000000000009
803000,10481,-369,127330,-410,-1565,128300,44,19236,180,1,19423,0.0010000000000000009
804000,6760,1375,128534,-2732,1773,125983,42,19237,172,1,19424,0.0010000000000000009
805000,7180,1599,127985,53,-1102,128301,38,19235,156,1,19425,0.0010000000000000009
806000,8441,-2503,127665,190,-2494,128220,36,19235,156,1,19426,0.0010000000000000009
807000,10951,2536,127383,1497,1687,124457,39,19238,147,1,19427,0.0010000000000000009
808000,10414,-575,126507,1869,-1337,126581,39,19233,160,1,19428,0.0010000000000000009
809000,10101,1157,127342,-398,581,127157,46,19233,188,1,19429,0.0010000000000000009
810000,8067,1782,128356,-1618,560,127838,51,19234,209,0,19430,0.0010000000000000009
811000,5647,3216,128678,-3154,3098,126473,43,19237,176,0,19431,0.0010000000000000009
812000,7915,-106,127669,-1363,-1754,129842,43,19237,176,0,19432,0.0010000000000000009
813000,8532,-3446,127172,566,-3940,125741,44,19236,176,0,19433,0.0010000000000000009
814000,10605,-407,126983,2859,-983,126299,44,19231,180,0,19434,0.0010000000000000009
815001,10238,154,127538,-119,1454,125425,43,19234,176,0,19435,0.0010010000000000296
816000,9330,2612,127877,-2222,458,127946,44,19237,180,0,19436,0.0009989999999999721
817000,7119,1044,128428,-1681,2021,127380,43,19237,176,0,19437,0.0010000000000000009
818002,5559,3644,128083,-1333,-65,127008,42,19237,172,0,19438,0.0010020000000000584
819003,7756,-2159,127461,-32,-2604,128324,45,19239,172,0,19439,0.0010009999999999186
820000,9311,-439,127263,1590,-1528,126037,45,19235,184,1,19440,0.0009970000000000256
821000,11379,72,127903,2354,696,125364,44,19233,180,1,19441,0.0010000000000000009
822000,11478,2214,127557,-1251,1218,126017,45,19242,184,1,19442,0.0010000000000000009
823000,6900,57,127774,-3356,-2997,129508,48,19237,197,1,19443,0.0010000000000000009
824001,5535,-969,128540,-2790,594,127869,42,19237,172,1,19444,0.0010010000000000296
825000,5491,2489,128274,-886,1300,126761,36,19238,172,1,19445,0.0009989999999999721
826000,8943,1344,127020,405,-655,125440,38,19236,147,1,19446,0.0010000000000000009
827000,10959,-1434,126920,2475,1191,125841,38,19234,156,1,19447,0.0010000000000000009
828000,11767,-2123,127102,2353,-726,125957,44,19234,180,1,19448,0.0010000000000000009
829000,9745,632,128624,-1769,982,126595,50,19236,205,1,19449,0.0010000000000000009
830000,6101,1423,128679,-5154,706,127914,51,19236,209,0,19450,0.0010000000000000009
831000,4176,2167,128734,-3548,1030,127683,39,19236,209,0,19451,0.0010000000000000009
832002,7084,571,126898,1084,-2103,127997,40,19236,160,0,19452,0.0010019999999999474
833000,9494,-1163,126632,1563,-1183,125342,40,19235,164,0,19453,0.0009980000000000544
834000,11629,-1042,126520,2828,-2471,125899,42,19238,172,0,19454,0.0010000000000000009
835000,11750,280,127737,847,1884,125641,42,19232,172,0,19455,0.0010000000000000009
836000,8898,3202,128145,-1575,1375,127707,42,19232,172,0,19456,0.0010000000000000009
837000,5968,682,128332,-3115,-264,128208,37,19235,172,0,19457,0.0010000000000000009
838001,5023,1814,127998,-2155,660,127310,38,19236,152,0,19458,0.0010010000000000296
839000,7438,-54,127075,1099,-1770,127281,38,19234,156,0,19459,0.0009989999999999721
840000,10317,328,126846,1788,-129,125121,44,19234,180,1,19460,0.0010000000000000009
841000,12457,173,127569,862,-473,126564,40,19234,164,1,19461,0.0010000000000000009
842000,10260,1036,128331,-1341,528,126078,47,19233,192,1,19462,0.0010000000000000009
843001,6508,1189,128810,-2955,-537,129312,46,19233,192,1,19463,0.0010010000000000296
844000,5117,-891,128485,-3318,-412,128697,38,19233,188,1,19464,0.0009989999999999721
845000,6032,1782,127825,-2145,568,126411,38,19236,156,1,19465,0.0010000000000000009
846000,9268,1267,126460,2053,456,125417,34,19237,139,1,19466,0.0010000000000000009
847000,11079,28,126377,1826,-1031,125488,39,19237,160,1,19467,0.0010000000000000009
848003,10603,-1249,127450,1387,-1822,126944,42,19234,172,1,19468,0.0010029999999999761
849000,7883,1338,128635,-3268,1866,126859,51,19234,172,1,19469,0.0009970000000000256
850000,6202,1015,128765,-4107,495,128371,43,19237,209,0,19470,0.0010000000000000009
851000,5777,2002,129007,-737,418,127334,43,19239,176,0,19471,0.0010000000000000009
852000,7938,-893,127055,-1749,-2224,127899,38,19239,156,0,19472,0.0010000000000000009
853000,9678,-414,126692,2091,-972,124318,39,19235,160,0,19473,0.0010000000000000009
854000,10796,1072,126369,3334,-95,125954,42,19238,172,0,19474,0.0010000000000000009
855000,9840,838,127516,-4007,958,126471,42,19238,172,0,19475,0.0010000000000000009
856001,7492,1439,128736,-1687,320,129445,41,19236,172,0,19476,0.0010010000000000296
857000,5865,525,128449,44,-116,126833,41,19239,168,0,19477,0.0009989999999999721
858000,6611,1838,128094,-2816,931,126730,38,19237,156,0,19478,0.0010000000000000009
859000,7903,-1201,126915,-266,-2692,126637,40,19238,164,0,19479,0.0010000000000000009
860002,11722,614,126946,911,1110,123280,50,19236,205,1,19480,0.0010019999999999474
861000,10119,1961,127286,4145,-1677,128514,42,19236,205,1,19481,0.0009980000000000544
862000,7842,-695,127375,-2480,367,126101,43,19236,172,1,19482,0.0010000000000000009
863000,7174,937,128948,-6694,-2296,130766,43,19237,176,1,19483,0.0010000000000000009
864000,6951,-1810,128162,4520,1082,126951,38,19236,156,1,19484,0.0010000000000000009
865000,7809,3532,128030,-4176,922,124373,34,19240,139,1,19485,0.0010000000000000009
866000,9814,-3,126678,418,-1735,126202,34,19232,139,1,19486,0.0010000000000000009
867000,12101,89,126207,5020,727,125697,41,19232,139,1,19487,0.0010000000000000009
868000,8930,1274,127698,-416,-116,128058,46,19236,168,1,19488,0.0010000000000000009
869000,6199,1219,127864,-7900,528,126384,46,19233,188,0,19489,0.0010000000000000009
870000,5410,1097,128570,-544,-525,129357,51,19236,209,0,19490,0.0010000000000000009
871000,7790,686,128782,2315,138,126970,39,19233,160,0,19491,0.0010000000000000009
872000,9868,770,127424,-1457,-1325,124572,38,19235,156,0,19492,0.0010000000000000009
873000,9121,-1872,126720,-607,-1962,126461,40,19235,164,0,19493,0.0010000000000000009
874000,10256,-25,127606,2388,-700,127941,43,19239,164,0,19494,0.0010000000000000009
875000,7714,631,128420,-3687,1459,128340,41,19239,176,0,19495,0.0010000000000000009
876000,5868,1471,128209,-4359,-1347,128051,41,19239,168,0,19496,0.0010000000000000009
877000,6462,-458,126574,3521,4077,123247,38,19236,156,0,19497,0.0010000000000000009
878000,9599,7569,128277,-2260,1578,128005,40,19235,164,0,19498,0.0010000000000000009
879000,10754,-4237,126053,-1209,-3057,125834,46,19235,188,1,19499,0.0010000000000000009
880000,9551,2286,127881,2170,1952,125292,41,19231,188,1,19500,0.0010000000000000009
881000,9529,-902,128429,560,-3225,129394,47,19237,168,1,19501,0.0010000000000000009
882000,6224,-4310,127226,-7118,-7809,131337,47,19229,192,1,19502,0.0010000000000000009
883000,6753,-1966,128180,7775,4930,126420,42,19238,172,1,19503,0.0010000000000000009
884000,8008,12105,128101,-6701,9682,121052,38,19240,156,1,19504,0.0010000000000000009
885007,11628,3869,127395,-3405,-464,124819,34,19234,139,1,19505,0.0010069999999999801
886000,10799,-4617,127414,10610,-7640,130813,37,19234,139,1,19506,0.0009930000000000216
887003,10597,-7316,125905,2264,-3747,127859,46,19239,152,1,19507,0.0010029999999999761
888002,3011,1106,128200,-9964,-96,127059,46,19237,188,1,19508,0.0009989999999999721
889000,5737,1672,127558,-207,4393,126446,51,19236,209,0,19509,0.0009980000000000544
890000,7352,10907,128576,-2343,9787,124211,50,19237,205,0,19510,0.0010000000000000009
891000,10658,1933,127004,-989,-2399,125799,39,19238,160,0,19511,0.0010000000000000009
892000,11397,-4672,126539,4197,-6408,127149,39,19238,160,0,19512,0.0010000000000000009
893000,13126,-8261,127047,5216,-9017,131313,42,19238,160,0,19513,0.0009999999999998899
894000,8372,2709,129739,-2512,1022,124563,42,19239,172,0,19514,0.0010000000000000009
895000,6217,1742,128072,-2517,-330,130173,43,19234,176,0,19515,0.0010000000000000009
896003,5290,5139,128890,-1852,5504,124595,41,19232,168,0,19516,0.0010030000000000872
897000,6090,5308,126421,-985,2149,125605,38,19237,156,0,19517,0.0009969999999999146
898000,12145,982,126840,-3508,2001,123955,42,19237,156,0,19518,0.0010000000000000009
899000,12635,2003,127478,9814,-1138,126554,51,19230,172,1,19519,0.0010000000000000009
900000,10546,-7797,127463,-462,-8683,131767,51,19237,209,1,19520,0.0010000000000000009
901000,9446,-2643,128849,-2833,-2497,127583,46,19239,188,1,19521,0.0010000000000000009
902000,4405,-2142,128019,1428,-2053,130405,46,19234,188,1,19522,0.0010000000000000009
903000,4920,8776,128172,-6082,9473,123870,42,19236,172,1,19523,0.0010000000000000009
904000,8480,2657,127708,-5775,40,126962,38,19236,172,1,19524,0.0010000000000000009
905001,11114,3396,126799,7044,3905,123373,36,19238,156,1,19525,0.0010010000000000296
906000,11547,-1616,127109,3140,-4664,131219,36,19236,147,1,19526,0.0009989999999999721
907000,10420,-6094,126774,-2403,-5702,126500,41,19234,168,1,19527,0.0010000000000000009
908000,8109,335,128842,3839,-1928,131227,51,19232,209,1,19528,0.0010000000000000009
909001,6075,633,128468,-5048,6178,122839,56,19234,229,0,19529,0.0010010000000000296
910000,5324,7887,128922,-7164,-453,126608,40,19234,229,0,19530,0.0009989999999999721
911000,8990,-2801,126936,3300,-2121,127393,43,19234,164,0,19531,0.0010000000000000009
912000,9716,1415,127049,590,688,123644,43,19235,176,0,19532,0.0010000000000000009
913000,11093,-1483,126839,463,-3807,129473,43,19232,176,0,19533,0.0010000000000000009
914000,9846,-1173,127298,2247,1096,126522,46,19235,188,0,19534,0.0010000000000000009
915000,8881,929,127656,-3364,-1141,128520,42,19239,172,0,19535,0.0010000000000000009
916000,6660,2151,128229,-2636,3980,123838,40,19239,164,0,19536,0.0010000000000000009
917000,7217,3313,127878,907,-1796,128716,41,19235,164,0,19537,0.0010000000000000009
918000,8233,-2594,127317,-1523,-758,125731,47,19236,168,0,19538,0.0010000000000000009
919000,9512,1759,127517,883,770,126272,47,19236,192,1,19539,0.0010000000000000009
920000,9346,-1031,127658,1216,-1590,127613,62,19239,254,1,19540,0.0010000000000000009
921001,10596,528,127560,-365,-1033,127528,46,19235,188,1,19541,0.0010010000000000296
922000,9307,-1587,127552,-1834,-1152,128485,46,19235,188,1,19542,0.0009989999999999721
923000,7086,3487,127848,605,3975,123821,38,19234,188,1,19543,0.0010000000000000009
924000,8096,2402,128155,-1454,-1294,128409,34,19237,156,1,19544,0.0010000000000000009
925000,8704,-1395,127467,714,-1468,126902,34,19238,139,1,19545,0.0010000000000000009
926000,10497,-191,127352,2692,-1604,126875,38,19232,156,1,19546,0.0010000000000000009
927000,10141,327,127229,165,1619,126375,44,19235,180,1,19547,0.0010000000000000009
928003,8584,1742,127721,-1758,-857,127953,52,19237,213,1,19548,0.0010029999999999761
929000,7707,-1449,127693,-2234,-316,128938,51,19237,213,0,19549,0.0009970000000000256
930000,6543,5139,128388,-1416,5026,123993,40,19235,209,0,19550,0.0010000000000000009
931000,9041,1760,127951,-616,-1968,127834,40,19238,164,0,19551,0.0010000000000000009
932000,8868,-2298,127339,2619,-3260,127239,41,19236,168,0,19552,0.0010000000000000009
933000,10101,-3754,127240,-474,-4382,128933,44,19231,180,0,19553,0.0010000000000000009
934002,9378,165,127839,-326,2148,125387,46,19238,188,0,19554,0.0010020000000000584
935000,8461,4618,128409,-1047,2225,127081,44,19238,188,0,19555,0.0009979999999999434
936000,6767,787,127844,-3206,816,127562,41,19235,180,0,19556,0.0010000000000000009
937003,6448,2576,127943,-683,1468,126067,41,19234,168,0,19557,0.0010029999999999761
938002,8591,-420,127323,661,-1768,127534,44,19239,180,1,19558,0.0009990000000000832
939002,10089,-69,127184,1002,-729,125366,51,19236,209,1,19559,0.0010000000000000009
940000,12321,-1411,128189,1159,-2415,128369,43,19233,176,1,19560,0.0009979999999999434
941000,9045,-220,127872,-1368,-657,126751,49,19233,176,1,19561,0.0010000000000000009
942000,5814,196,128005,-3090,-1193,128504,45,19233,201,1,19562,0.0010000000000000009
943000,5657,1541,128006,-3060,2087,127322,45,19236,184,1,19563,0.0010000000000000009
944000,7093,3992,127873,-751,2083,124565,37,19236,152,1,19564,0.0010000000000000009
945000,10115,196,126922,1479,-1065,126670,35,19239,143,1,19565,0.0010000000000000009
946000,10917,-913,126561,2293,-1814,125547,42,19233,172,1,19566,0.0010000000000000009
947000,10663,-3063,126957,1198,-3427,128415,50,19233,172,1,19567,0.0010000000000000009
948000,7767,1834,128149,-1760,2094,126292,53,19232,205,1,19568,0.0010000000000000009
949000,5373,3143,128404,-4891,1609,127479,53,19239,217,0,19569,0.0010000000000000009
950000,4813,1798,127928,-3820,1092,126268,46,19237,188,0,19570,0.0010000000000000009
951001,9088,1138,127054,2096,-499,126679,38,19239,156,0,19571,0.0010010000000000296
952000,10916,-1571,126860,3078,-2225,125649,41,19236,168,0,19572,0.0009989999999999721
953000,11847,-2811,126649,1907,-3473,127359,44,19236,168,0,19573,0.0010000000000000009
954000,9731,435,127789,193,254,126369,43,19239,180,0,19574,0.0010000000000000009
955000,7930,3726,128332,-2739,1767,127564,43,19239,176,0,19575,0.0010000000000000009
956000,5436,2130,128349,-2100,1191,126881,37,19235,152,0,19576,0.0010000000000000009
957000,6851,1707,127450,-1440,-1168,126874,38,19235,156,0,19577,0.0010000000000000009
958000,9264,-607,126994,689,-332,125664,43,19231,176,1,19578,0.0010000000000000009
959000,10687,358,127456,2969,-1652,126985,39,19231,176,1,19579,0.0010000000000000009
960000,11778,-2303,127526,-239,-1287,128052,47,19235,160,1,19580,0.0010000000000000009
961000,6498,1619,128859,-4409,221,126929,47,19232,192,1,19581,0.0010000000000000009
962000,5259,616,128626,-2597,-812,129235,46,19237,188,1,19582,0.0010000000000000009
963013,5268,2240,128136,-1874,2115,126140,37,19236,152,1,19583,0.0010130000000000416
964000,9038,1963,127523,-166,408,125780,33,19237,135,1,19584,0.0009869999999999601
965001,10784,144,126387,2705,-776,125165,38,19237,156,1,19585,0.0010010000000000296
966001,10996,-311,126929,2191,-2181,127614,47,19237,156,1,19586,0.0010000000000000009
967001,8908,-2538,127528,-2539,-2115,128728,51,19232,192,1,19587,0.0010000000000000009
968000,5609,1568,128785,-4917,2026,126939,51,19231,209,0,19588,0.0009989999999999721
969000,5046,2742,128951,-1414,2049,127475,45,19234,184,0,19589,0.0010000000000000009
970000,7568,1969,127385,-1274,-279,126293,39,19238,160,0,19590,0.0010000000000000009
971002,9240,66,127003,1353,-1865,125806,40,19238,164,0,19591,0.0010019999999999474
972000,10996,-873,126567,2432,-1608,125882,42,19237,164,0,19592,0.0009980000000000544
973000,9959,-288,127304,-735,-1081,127352,42,19236,172,0,19593,0.0010000000000000009
974000,8101,575,128392,-2935,-729,128070,42,19236,172,0,19594,0.0010000000000000009
975000,6231,150,127867,-1332,183,128073,40,19238,164,0,19595,0.0010000000000000009
976000,6206,2766,127898,-2800,2667,124811,37,19236,152,0,19596,0.0010000000000000009
977000,8886,3302,127593,644,294,125648,40,19238,164,0,19597,0.0010000000000000009
978003,9669,-756,126493,-365,-402,125653,46,19238,164,1,19598,0.0010029999999999761
979000,10781,1799,127931,1057,-660,126150,40,19232,188,1,19599,0.0009970000000000256
980000,9387,-2988,126764,3946,-4498,129459,40,19235,164,1,19600,0.0010000000000000009
981000,6333,-932,128350,-8364,489,127181,45,19233,184,1,19601,0.0010000000000000009
982000,6341,1731,128329,-338,189,128431,39,19237,160,1,19602,0.0010000000000000009
983000,7912,3994,128128,1430,3643,125040,34,19242,139,1,19603,0.0010000000000000009
984000,10231,2773,127303,-1240,244,124642,34,19242,139,1,19604,0.0010000000000000009
985002,10418,-1452,126129,2374,-2844,126186,38,19236,139,1,19605,0.0010019999999999474
986002,11268,-1073,127215,2359,-2151,128641,38,19230,156,1,19606,0.0010000000000000009
987000,7165,-640,128100,-1735,-413,127646,46,19232,188,1,19607,0.0009980000000000544
988000,5408,4446,128827,-5788,3554,126358,50,19236,205,0,19608,0.0010000000000000009
989000,5976,3142,128614,-1013,1512,127741,40,19239,164,0,19609,0.0010000000000000009
990000,9035,165,127731,201,-1453,126849,39,19239,164,0,19610,0.0010000000000000009
991000,10357,-1916,127021,506,-2874,126159,41,19236,160,0,19611,0.0010000000000000009
992000,11102,-144,127372,974,-456,125097,41,19237,168,0,19612,0.0010000000000000009
993000,8695,-968,128083,1898,-2771,129446,41,19236,168,0,19613,0.0010000000000000009
994000,5725,1031,128711,-5574,1184,128450,42,19241,172,0,19614,0.0010000000000000009
995000,5372,4204,128507,-4663,3266,126855,38,19236,156,0,19615,0.0010000000000000009
996000,6092,2757,127956,736,2130,126404,40,19236,156,0,19616,0.0010000000000000009
997000,8944,2448,127618,-1424,294,128459,46,19240,164,0,19617,0.0010000000000000009
998002,11399,-8351,125186,1155,-8907,124195,46,19232,188,1,19618,0.0010019999999999474
999000,9662,4858,127809,7685,6818,125849,45,19240,184,1,19619,0.0009980000000000544
1000000,10515,787,127251,-5644,-2871,131360,46,19235,188,1,19620,0.0010000000000000009
1001000,7389,214,128563,-6277,2473,123624,43,19232,176,1,19621,0.0009999999999998899
1002000,6081,5827,129427,8641,-4537,131628,38,19232,176,1,19622,0.001000000000000112
1003000,6222,-4008,127077,-4963,-2127,123404,36,19237,156,1,19623,0.0009999999999998899
1004000,10404,-1793,127440,-8149,-4378,129912,36,19238,147,1,19624,0.001000000000000112
1005000,12248,-1378,127274,14522,5936,122378,38,19236,156,1,19625,0.0009999999999998899
1006000,8525,10057,126660,-11929,6731,122144,45,19237,184,1,19626,0.001000000000000112
1007000,8599,361,128081,2948,-6511,133072,50,19233,205,1,19627,0.0009999999999998899
1008000,5032,-4294,126355,1846,140,127102,54,19233,221,0,19628,0.001000000000000112
1009000,8329,2842,129400,-10278,654,125656,39,19235,221,0,19629,0.0009999999999998899
1010000,11142,1382,127935,7495,-704,124258,40,19237,160,0,19630,0.001000000000000112
1011000,9664,-2662,126749,5327,-6551,131110,40,19232,164,0,19631,0.0009999999999998899
1012000,9191,-4019,126470,-10143,2075,123801,41,19240,168,0,19632,0.001000000000000112
1013000,8833,5899,128194,4857,2282,126994,42,19236,172,0,19633,0.0009999999999998899
1014000,8706,1979,127477,3953,2371,127520,41,19236,168,0,19634,0.001000000000000112
1015000,6785,4407,128393,-11465,1262,124356,38,19239,168,0,19635,0.0009999999999998899
1016000,9947,-2340,127774,5059,-3472,130318,41,19235,156,0,19636,0.001000000000000112
1017001,8995,-1085,127676,9099,-1134,125817,41,19238,168,1,19637,0.0010010000000000296
1018000,9662,-984,127296,-9577,-728,125977,49,19235,201,1,19638,0.0009989999999999721
1019000,10207,2058,127943,-114,1120,126711,42,19234,172,1,19639,0.0009999999999998899
1020000,8906,928,127768,4676,-2214,130255,47,19234,192,1,19640,0.001000000000000112
1021003,6845,-880,128355,-5573,574,126385,43,19237,192,1,19641,0.0010029999999998651
1022000,5660,1429,127721,-2572,-738,127083,38,19238,176,1,19642,0.0009970000000001367
1023000,9685,1322,128276,1989,2262,126240,38,19238,156,1,19643,0.0009999999999998899
1024000,10733,3381,127853,3533,481,125886,38,19235,156,1,19644,0.001000000000000112
1025000,10115,-2291,126540,-1941,-3037,127157,43,19235,176,1,19645,0.0009999999999998899
1026000,8876,-160,127447,1640,-829,127036,49,19235,201,1,19646,0.001000000000000112
1027001,7220,-3323,128314,-2059,-367,130341,55,19235,201,0,19647,0.0010010000000000296
1028000,7489,2887,129215,-4516,2904,125598,41,19238,225,0,19648,0.0009989999999999721
1029000,7471,1610,128256,542,-1043,128402,41,19236,168,0,19649,0.0009999999999998899
1030000,8492,-378,126994,390,-709,125689,41,19236,168,0,19650,0.001000000000000112
1031000,9819,-872,126211,2794,-2696,126637,43,19235,176,0,19651,0.0009999999999998899
1032000,10907,-994,126756,14,111,126763,43,19234,176,0,19652,0.001000000000000112
1033000,9815,3314,127999,-645,1785,125576,45,19234,176,0,19653,0.0009999999999998899
1034000,7478,872,128011,-2618,-34,128307,40,19236,184,0,19654,0.001000000000000112
1035000,6858,995,128538,-408,7,127813,40,19236,164,0,19655,0.0009999999999998899
1036000,6670,-1317,127396,269,-2103,128064,42,19236,172,0,19656,0.001000000000000112
1037000,8857,1436,127330,-1480,1432,124745,47,19236,192,0,19657,0.0009999999999998899
1038000,10716,541,127036,1707,-603,126178,57,19234,233,1,19658,0.001000000000000112
1039000,9569,1177,127395,1104,675,126178,42,19234,233,1,19659,0.0009999999999998899
1040000,10071,21,127392,-356,-1329,127877,43,19240,172,1,19660,0.001000000000000112
1041000,6620,-523,128099,-2305,-1006,127942,43,19235,176,1,19661,0.0009999999999998899
1042000,7653,971,128204,132,85,127238,39,19239,160,1,19662,0.001000000000000112
1043001,7963,1314,127874,80,662,126730,37,19235,152,1,19663,0.0010009999999998076
1044001,10930,1258,127401,612,-722,126313,38,19234,156,1,19664,0.001000000000000112
1045002,10726,-799,126634,2646,-1182,125742,43,19234,156,1,19665,0.0010010000000000296
1046000,10062,2084,127400,16,1305,126920,47,19235,176,1,19666,0.0009980000000000544
1047002,8262,1248,127897,-1875,196,128010,47,19233,192,0,19667,0.0010019999999999474
1048002,5083,1954,128587,-3455,1068,127667,54,19237,221,0,19668,0.0009999999999998899
1049000,8148,587,128567,-1684,-1787,127433,40,19235,164,0,19669,0.0009980000000000544
1050000,8494,-858,127394,822,-2606,126718,43,19233,176,0,19670,0.001000000000000112
1051000,10465,-1279,127173,1854,-1578,126300,42,19233,176,0,19671,0.0009999999999998899
1052000,10321,-290,127018,125,1007,125790,43,19236,172,0,19672,0.001000000000000112
1053000,9161,2804,128082,-1691,2655,126761,43,19232,176,0,19673,0.0009999999999998899
1054000,7044,2237,128098,-2305,157,127850,44,19236,180,0,19674,0.001000000000000112
1055001,5429,1329,128076,-1749,-296,127437,41,19233,168,0,19675,0.0010009999999998076
1056000,7171,-159,127843,10,-1486,127221,42,19233,172,0,19676,0.0009990000000001942
1057000,9228,-318,127192,1314,-477,125501,48,19233,197,1,19677,0.0009999999999998899
1058002,11368,534,127119,1894,44,125949,44,19237,197,1,19678,0.0010019999999999474
1059000,11333,760,127146,-43,135,126333,49,19239,180,1,19679,0.0009980000000000544
1060000,7056,196,127887,-3589,-2304,128806,49,19231,201,1,19680,0.001000000000000112
1061000,5527,-307,128184,-3016,148,127963,46,19240,188,1,19681,0.0009999999999998899
1062000,5920,1946,128202,-1264,1698,126708,37,19237,152,1,19682,0.001000000000000112
1063000,9088,1990,127452,1335,653,125044,34,19237,139,1,19683,0.0009999999999998899
1064000,10652,530,126335,1016,-1029,125411,39,19236,139,1,19684,0.001000000000000112
1065000,12110,-1765,126576,2741,-2269,127251,47,19237,160,1,19685,0.0009999999999998899
1066002,9530,274,127655,-1357,649,126351,47,19237,192,1,19686,0.0010019999999999474
1067002,6426,2074,128831,-4141,855,128101,52,19231,213,0,19687,0.001000000000000112
1068000,3907,1710,129003,-4448,-526,127729,55,19237,225,0,19688,0.0009980000000000544
1069000,7288,569,128240,12,-1440,127783,39,19236,160,0,19689,0.0009999999999998899
1070000,9789,-428,126912,2701,-683,125287,38,19236,160,0,19690,0.001000000000000112
1071000,11921,396,126530,2271,-1172,125109,42,19236,156,0,19691,0.0009999999999998899
1072003,12236,-1174,126736,768,-614,127079,42,19236,172,0,19692,0.0010030000000000872
1073002,8618,1503,128464,-1719,1241,127617,42,19236,172,0,19693,0.0009989999999999721
1074000,6834,1837,128814,-2376,321,127979,41,19237,168,0,19694,0.0009979999999998324
1075000,4860,1333,128264,-2367,65,127565,39,19238,160,0,19695,0.001000000000000112
1076000,7698,-389,127514,146,-1500,127447,41,19238,160,0,19696,0.0009999999999998899
1077000,10210,1172,126642,2303,1272,124673,35,19236,168,1,19697,0.001000000000000112
1078000,12755,61,126924,1396,150,126557,35,19236,143,1,19698,0.0009999999999998899
1079000,10240,-330,127583,-1240,-1722,127133,45,19234,184,1,19699,0.001000000000000112
1080000,6430,-169,128354,-2778,-1311,129218,46,19238,188,1,19700,0.0009999999999998899
1081000,4918,882,128906,-3021,405,128501,41,19236,168,1,19701,0.001000000000000112
1082000,5735,2595,128490,-2102,795,126277,35,19236,168,1,19702,0.0009999999999998899
1083000,9637,579,127223,1135,-398,126130,36,19236,143,1,19703,0.001000000000000112
1084000,10812,-552,126625,2578,-929,125476,36,19239,147,1,19704,0.0009999999999998899
1085002,10650,10,126948,941,-1012,126587,43,19236,176,1,19705,0.0010020000000001694
1086003,7891,394,128024,-2758,-205,128122,48,19234,197,1,19706,0.0010010000000000296
1087002,5688,2744,129447,-4257,2497,127581,54,19237,221,0,19707,0.0009989999999999721
1088001,6516,952,128754,-821,-287,128381,38,19237,221,0,19708,0.0009989999999999721
1089002,7927,-408,127338,-1519,-1303,126744,38,19236,156,0,19709,0.0010010000000000296
1090000,10775,-688,126483,2199,-1301,124815,38,19234,156,0,19710,0.0009979999999998324
1091000,10835,410,126329,3048,-175,126241,43,19235,176,0,19711,0.001000000000000112
1092000,9197,1284,127929,-3288,557,127483,43,19236,176,0,19712,0.0009999999999998899
1093000,7024,145,128624,-2523,-863,128662,41,19237,168,0,19713,0.001000000000000112
1094000,5280,-235,128401,-534,-38,126016,35,19237,168,0,19714,0.0009999999999998899
1095000,6480,1200,128096,-2745,-260,126676,38,19236,143,0,19715,0.001000000000000112
1096000,8444,-1195,126329,-91,-2075,126250,38,19235,156,0,19716,0.0009999999999998899
1097000,10615,808,126377,192,2429,123647,46,19236,188,1,19717,0.001000000000000112
1098000,10354,2876,127246,3500,-45,127054,38,19237,156,1,19718,0.0009999999999998899
1099001,7667,-1051,127098,-1539,-2064,128286,44,19234,180,1,19719,0.0010010000000000296
1100000,6648,-64,128843,-611,-1593,129740,42,19234,172,1,19720,0.0009989999999999721
1101000,6699,-647,127365,3344,1086,126509,33,19238,172,1,19721,0.001000000000000112
1102000,7962,4477,128283,-3261,2522,123793,31,19238,135,1,19722,0.0009999999999998899
1103000,10255,173,126347,776,-3552,126821,31,19241,127,1,19723,0.001000000000000112
1104001,11723,-963,126070,3160,1464,125312,37,19236,152,1,19724,0.0010010000000000296
1105002,8802,2961,128079,991,163,127820,45,19235,184,1,19725,0.0010010000000000296
1106000,5796,24,127824,-6899,-857,127554,52,19235,213,0,19726,0.0009979999999998324
1107000,5191,796,128580,-2562,72,129201,39,19233,213,0,19727,0.001000000000000112
1108001,8085,1074,128771,2282,961,126917,38,19236,160,0,19728,0.0010010000000000296
1109000,9883,1757,127180,-774,93,124089,38,19234,156,0,19729,0.0009989999999999721
1110000,9547,-1059,126946,-872,-1993,126639,42,19238,172,0,19730,0.0009999999999998899
1111000,9954,-1968,127588,1645,-2344,128929,43,19236,176,0,19731,0.001000000000000112
1112001,8317,-3210,126760,454,-911,127504,41,19236,168,0,19732,0.0010010000000000296
1113000,5611,6682,128585,-5424,7622,124259,42,19238,168,0,19733,0.0009989999999999721
1114000,7264,3193,127464,-1994,-2100,129333,38,19237,172,0,19734,0.0009999999999998899
1115000,8901,1104,127868,1014,3704,123593,38,19234,156,0,19735,0.001000000000000112
1116000,9518,1318,128068,1532,-4013,128652,46,19234,188,1,19736,0.0009999999999998899
1117000,8422,-5427,126986,-3395,-4389,126731,51,19233,209,1,19737,0.001000000000000112
1118000,8911,-2169,127654,1047,-3546,129857,45,19233,184,1,19738,0.0009999999999998899
1119003,8319,-1162,127600,-2624,1148,127459,45,19233,184,1,19739,0.0010030000000000872
1120002,7271,11687,127710,4083,12405,119533,41,19234,184,1,19740,0.0009989999999999721
1121000,7808,3155,127825,-8064,-5260,132442,41,19234,168,1,19741,0.0009980000000000544
1122000,13452,-5941,126940,1150,-137,122600,34,19239,139,1,19742,0.0009999999999998899
1123000,11430,3110,129037,13053,-4018,130524,36,19236,147,1,19743,0.001000000000000112
1124000,8047,-9382,126446,-7424,-7392,127264,44,19232,180,1,19744,0.0009999999999998899
1125000,4575,799,127737,-8196,-308,126681,48,19232,180,1,19745,0.001000000000000112
1126000,6014,3270,127611,7592,7364,128245,52,19235,197,0,19746,0.0009999999999998899
1127000,5927,17227,128587,-12174,13993,116911,52,19235,213,0,19747,0.001000000000000112
1128000,12897,-1776,126743,3251,-8330,132278,38,19237,156,0,19748,0.0009999999999998899
1129000,9902,-7497,126532,8638,-6697,127612,38,19236,156,0,19749,0.001000000000000112
1130000,14827,-5094,128581,-4822,-5481,128286,42,19232,172,0,19750,0.0009999999999998899
1131000,7571,-2903,129083,6408,-3430,130046,42,19232,172,0,19751,0.001000000000000112
1132000,6652,-167,127396,-954,636,128082,42,19232,172,0,19752,0.0009999999999998899
1133000,2794,10104,128021,-11993,10815,121741,42,19237,172,0,19753,0.001000000000000112
1134001,8270,8206,127353,-2813,5289,124430,40,19238,164,0,19754,0.0010010000000000296
1135002,13975,-1622,126620,12739,-2956,127649,39,19235,160,0,19755,0.0010009999999998076
1136000,8570,-3046,126950,1171,-4557,127227,48,19237,197,1,19756,0.0009980000000000544
1137000,12546,-4096,128241,-9367,-4372,127562,42,19237,197,1,19757,0.001000000000000112
1138000,8955,-3455,128731,11662,-4226,132022,48,19236,172,1,19758,0.0009999999999998899
1139000,6850,324,128588,-3484,1208,121430,48,19234,197,1,19759,0.001000000000000112
1140000,2685,8571,128315,-9385,7287,126624,42,19237,172,1,19760,0.0009999999999998899
1141000,7633,-436,127451,-5251,-2406,128051,38,19235,156,1,19761,0.001000000000000112
1142001,13044,1427,127236,9509,2501,124726,37,19235,152,1,19762,0.0010010000000000296
1143000,9791,1164,127314,3615,-931,126222,40,19235,164,1,19763,0.0009989999999999721
1144000,10383,-924,127014,-5398,-4755,128402,49,19232,164,1,19764,0.0009999999999998899
1145000,7393,-5572,127614,3102,-4929,133373,54,19235,201,1,19765,0.001000000000000112
1146000,9235,1984,128661,-1910,9879,120378,54,19234,221,0,19766,0.0009999999999998899
1147000,4108,9744,129378,-6120,692,126225,42,19238,172,0,19767,0.001000000000000112
1148000,8026,-3578,127558,-1105,-5918,129695,42,19238,172,0,19768,0.0009999999999998899
1149000,10393,-4453,126724,7683,-3434,128284,43,19238,176,0,19769,0.001000000000000112
1150000,9389,209,127106,-1092,3616,123627,45,19235,176,0,19770,0.0009999999999998899
1151000,10097,5616,127598,-1491,653,125572,45,19234,184,0,19771,0.001000000000000112
1152000,8203,-2979,126556,-2394,-3235,131091,45,19236,184,0,19772,0.0009999999999998899
1153000,9932,2549,128647,-165,6004,123331,41,19236,168,0,19773,0.001000000000000112
1154000,6291,6014,128411,133,-1947,126943,42,19235,172,0,19774,0.0009999999999998899
1155000,6827,-3762,127013,-3712,-4360,127917,45,19235,184,0,19775,0.001000000000000112
1156000,9155,-2938,127709,2583,-3104,129281,55,19234,184,1,19776,0.0009999999999998899
1157000,9770,1216,127797,92,4439,124033,42,19231,225,1,19777,0.001000000000000112
1158000,11365,5529,127919,536,472,126109,42,19241,172,1,19778,0.0009999999999998899
1159001,7682,-3976,126238,-3575,-4252,129657,46,19241,188,1,19779,0.0010010000000000296
1160002,8805,2025,127692,400,4237,124357,41,19235,168,1,19780,0.0010010000000000296
1161000,7722,4360,128533,1659,2435,127118,36,19237,147,1,19781,0.0009980000000000544
1162000,8664,-986,127238,-1736,-2370,126729,38,19237,147,1,19782,0.0009999999999998899
1163000,9703,-3663,126819,1994,-4265,128631,41,19234,156,1,19783,0.001000000000000112
1164000,10249,370,127628,1476,3057,124825,41,19237,168,1,19784,0.0009999999999998899
1165000,10120,3597,127935,-307,34,127311,48,19235,197,1,19785,0.001000000000000112
1166000,6241,-1200,127521,-4265,-754,128111,50,19235,205,0,19786,0.0009999999999998899
1167001,6933,4981,128324,-2170,4934,124478,41,19237,168,0,19787,0.0010010000000000296
1168000,8097,2035,128428,1925,-1310,127906,39,19237,168,0,19788,0.0009989999999999721
1169000,9120,-3099,127286,875,-5015,128192,43,19236,160,0,19789,0.001000000000000112
1170000,9965,-5237,127082,518,-4942,128252,43,19232,176,0,19790,0.0009999999999998899
1171000,9221,2528,128197,-1375,4480,123908,43,19236,176,0,19791,0.001000000000000112
1172000,9785,5188,128408,-934,1882,127623,42,19235,172,0,19792,0.0009999999999998899
1173000,5615,-1023,127481,-2328,-1265,128726,41,19238,168,0,19793,0.001000000000000112
1174000,6760,2620,128034,-2183,2038,125337,41,19238,168,0,19794,0.0009999999999998899
1175000,7472,1322,127646,1114,-169,126983,47,19235,168,1,19795,0.001000000000000112
1176002,10667,-1584,127250,1237,-3029,127401,47,19235,192,1,19796,0.0010019999999999474
1177005,12313,-2893,127428,1398,-2357,127438,43,19234,176,1,19797,0.0010029999999998651
1178002,9334,2105,127673,-2184,2466,124746,48,19233,197,1,19798,0.0009970000000001367
1179002,6964,1808,127920,-1931,-474,128079,46,19232,188,1,19799,0.0009999999999998899
1180000,5109,-482,127673,-2919,-1170,129081,39,19232,188,1,19800,0.0009980000000000544
1181000,7542,2375,128008,-1986,2085,125762,34,19237,160,1,19801,0.001000000000000112
1182000,8861,2761,127424,2380,1284,124115,34,19237,139,1,19802,0.0009999999999998899
1183001,11660,-2148,126436,1855,-3709,127761,37,19239,152,1,19803,0.0010010000000000296
1184002,10744,-4106,126521,1971,-3686,127766,46,19235,188,1,19804,0.0010010000000000296
1185001,7611,3965,128187,-2338,3856,125723,50,19233,205,1,19805,0.0009989999999999721
1186000,6234,3947,128435,-4783,2089,127578,53,19233,205,0,19806,0.0009989999999999721
1187001,4388,1441,128183,-2797,-89,128633,40,19236,217,0,19807,0.0010010000000000296
1188000,9340,-1602,126858,1447,-2591,125956,40,19237,164,0,19808,0.0009989999999999721
1189000,9966,-361,127040,2153,-838,125271,41,19232,168,0,19809,0.001000000000000112
1190000,12294,-2138,126804,1854,-3048,128144,42,19235,172,0,19810,0.0009999999999998899
1191000,10480,-508,127331,674,2603,126191,45,19236,184,0,19811,0.0009999999999998899
1192000,7628,5198,128816,-2280,3398,126775,39,19236,160,0,19812,0.001000000000000112
1193002,5657,2326,128102,-2757,-416,127513,39,19238,160,0,19813,0.0010019999999999474
1194000,7358,89,127903,-332,-973,127514,41,19234,160,0,19814,0.0009980000000000544
1195000,9615,-1557,127500,2546,-1203,126222,41,19236,168,1,19815,0.0009999999999998899
1196000,10036,876,127166,1057,296,124635,40,19237,164,1,19816,0.001000000000000112
1197000,11672,-694,127800,-107,-3120,128962,43,19234,176,1,19817,0.0009999999999998899
1198000,7409,-1628,127843,-2283,641,127337,48,19234,197,1,19818,0.001000000000000112
1199000,5707,2648,128980,-3189,954,128079,42,19235,197,1,19819,0.0009999999999998899
1200000,5253,1940,128446,-3164,815,126820,35,19236,172,1,19820,0.001000000000000112
1201000,8897,1039,127621,649,-346,126546,35,19233,143,1,19821,0.0009999999999998899
1202000,10919,-870,126755,4084,-850,125812,35,19238,143,1,19822,0.001000000000000112
1203000,10840,331,126705,1259,-491,125952,40,19233,164,1,19823,0.0009999999999998899
1204000,8903,-1440,127257,-2792,-1978,128487,47,19233,192,1,19824,0.001000000000000112
1205000,6295,942,128728,-4076,1672,127491,52,19233,192,0,19825,0.0009999999999998899
1206000,5588,3836,129458,-546,2413,127422,42,19236,213,0,19826,0.001000000000000112
1207000,6944,1244,127746,-1208,-1851,126878,42,19236,172,0,19827,0.0009999999999998899
1208000,9003,-1885,126948,-84,-2890,126830,39,19235,160,0,19828,0.001000000000000112
1209000,11432,-1925,126445,5187,-391,125482,40,19234,164,0,19829,0.0009999999999998899
1210000,10374,2078,126981,-1199,1914,125680,42,19237,172,0,19830,0.001000000000000112
1211000,8281,2030,128411,-5016,-903,127642,40,19237,172,0,19831,0.0009999999999998899
1212000,6121,-581,127974,-510,-567,128899,38,19236,164,0,19832,0.001000000000000112
1213000,6104,3279,128608,-722,2896,125496,38,19236,156,0,19833,0.0009999999999998899
1214000,7837,1201,127524,-1618,-1974,127094,39,19235,160,0,19834,0.001000000000000112
1215000,9325,-2703,126402,-138,-2146,126493,46,19233,188,1,19835,0.0009999999999998899
1216000,11043,1909,127392,1993,1296,124946,38,19240,156,1,19836,0.001000000000000112
1217002,10106,1869,126972,3435,574,126242,42,19240,156,1,19837,0.0010019999999999474
1218007,6030,325,128014,-8933,-980,128074,42,19234,172,1,19838,0.0010049999999999226
1219000,6224,-1035,128338,-164,-2185,129928,42,19239,172,1,19839,0.0009930000000000216
1220000,7600,1957,128057,3339,3427,125917,37,19237,152,1,19840,0.001000000000000112
1221000,9576,3180,127598,-2673,714,124103,35,19239,143,1,19841,0.0009999999999998899
1222000,10201,-2792,125815,218,-3857,127073,35,19236,143,1,19842,0.001000000000000112
1223000,12148,128,127101,4274,433,126871,43,19236,143,1,19843,0.0009999999999998899
1224000,7362,1756,127770,272,938,126671,48,19237,176,1,19844,0.001000000000000112
1225000,4875,2802,128210,-9118,1722,126699,48,19233,197,0,19845,0.0009999999999998899
1226000,6269,1189,128372,-298,-540,129168,41,19233,168,0,19846,0.001000000000000112
1227003,9465,-42,127901,3437,-1516,126570,38,19235,156,0,19847,0.0010029999999998651
1228002,9267,1138,127490,-631,-1873,124055,40,19233,164,0,19848,0.0009990000000001942
1229000,10057,-1801,126898,-915,-2485,126511,41,19233,164,0,19849,0.0009979999999998324
1230000,9046,-805,128144,2017,-1646,128861,42,19235,168,0,19850,0.001000000000000112
1231000,6418,3374,128736,-3765,2870,127159,42,19236,172,0,19851,0.0009999999999998899
1232000,5220,3302,128277,-4995,1900,127573,40,19237,164,0,19852,0.001000000000000112
1233000,5610,882,128066,134,-64,127136,38,19233,156,0,19853,0.0009999999999998899
1234000,10171,-1813,126642,-564,-3842,125783,44,19235,180,0,19854,0.001000000000000112
1235000,11718,127,126835,5776,1148,122817,52,19235,213,1,19855,0.0009999999999998899
1236000,9333,4240,127516,-2886,2100,128727,43,19235,213,1,19856,0.001000000000000112
1237000,10866,-2677,127537,-2379,1896,127206,46,19232,176,1,19857,0.0009999999999998899
1238000,5817,3253,129465,1588,-1432,130375,46,19237,188,1,19858,0.001000000000000112
1239000,5699,-1746,128322,2154,-3010,127344,42,19235,172,1,19859,0.0009999999999998899
1240000,5756,-2199,127159,-9858,-1666,126325,36,19240,147,1,19860,0.001000000000000112
1241000,13911,2230,128575,10298,4018,124619,36,19240,147,1,19861,0.0009999999999998899
1242000,10563,4975,126516,791,2413,123435,43,19230,147,1,19862,0.001000000000000112
1243000,8503,1377,127666,-7795,-3146,128738,47,19233,176,1,19863,0.0009999999999998899
1244000,6523,-4745,127063,4269,-3803,129676,47,19233,192,1,19864,0.001000000000000112
1245001,5135,3330,129486,-3540,5171,126816,53,19232,217,0,19865,0.0010010000000000296
1246000,8117,2824,129219,-6040,-1164,125329,42,19236,172,0,19866,0.0009989999999999721
1247000,9882,-1389,127401,6618,-1803,126246,38,19236,156,0,19867,0.0009999999999998899
1248000,10061,-2117,126963,1541,-3830,128828,42,19234,156,0,19868,0.001000000000000112
1249000,10683,-1158,126941,-5480,322,123872,42,19236,172,0,19869,0.0009999999999998899
1250000,8892,2104,127755,5411,987,129220,42,19240,172,0,19870,0.001000000000000112
1251003,7190,3685,128724,-1286,3081,126037,42,19234,172,0,19871,0.0010029999999998651
1252000,6166,2665,127815,-9161,-820,127106,38,19235,156,0,19872,0.0009970000000001367
1253007,9503,-2574,128028,5808,-2771,129162,39,19235,160,0,19873,0.0010069999999999801
1254003,8980,1098,127094,6295,2274,122767,46,19235,160,1,19874,0.0009959999999999969
1255000,10765,2181,127976,-9157,-508,126590,37,19235,188,1,19875,0.0009969999999999146
1256000,10446,-945,127484,1944,-1878,128511,37,19238,152,1,19876,0.001000000000000112
1257000,8920,-1900,127836,4065,-3763,130462,46,19234,188,1,19877,0.0009999999999998899
1258000,5819,1261,128275,-5669,3381,124348,46,19232,188,1,19878,0.001000000000000112
1259000,5158,3146,128268,-4346,-1430,128529,39,19237,160,1,19879,0.0009999999999998899
1260000,10102,-2111,127028,2199,805,126419,34,19237,160,1,19880,0.001000000000000112
1261000,10356,7455,128532,3912,5697,122747,40,19236,139,1,19881,0.0009999999999998899
1262000,9988,-672,126127,-750,-3338,127341,40,19235,164,1,19882,0.001000000000000112
1263000,8375,-3558,127262,-1383,-4920,128859,48,19236,197,1,19883,0.0009999999999998899
1264000,8242,-3980,128496,566,-2503,130907,53,19234,217,0,19884,0.001000000000000112
1265000,6807,6503,129311,-3772,7233,123066,50,19238,205,0,19885,0.0009999999999998899
1266000,7150,3468,128269,-2776,-950,127643,42,19238,205,0,19886,0.001000000000000112
1267001,8693,-3347,126436,517,-3713,127499,41,19237,172,0,19887,0.0010010000000000296
1268000,10668,541,126267,4384,302,124913,41,19234,168,0,19888,0.0009989999999999721
1269000,11444,2179,127519,-137,1985,125386,44,19236,180,0,19889,0.0009999999999998899
1270000,9201,120,127518,-886,-1806,128148,46,19237,188,0,19890,0.001000000000000112
1271001,7657,-1675,128299,-2700,-1079,129343,42,19235,172,0,19891,0.0010010000000000296
1272000,6890,3963,128877,-332,3082,126048,41,19235,172,0,19892,0.0009989999999999721
1273001,7177,-327,127285,476,-2071,127414,42,19236,168,0,19893,0.0010010000000000296
1274002,8902,-95,126940,-1439,-149,125493,42,19237,172,0,19894,0.0010009999999998076
1275000,10649,1339,127232,488,908,125383,52,19231,213,1,19895,0.0009980000000000544
1276000,9863,2270,127593,2225,1497,125825,40,19236,164,1,19896,0.001000000000000112
1277000,9696,-1788,127594,792,-3370,129553,46,19233,188,1,19897,0.0009999999999998899
1278000,6573,-2209,127623,-3817,-2331,127533,42,19233,188,1,19898,0.001000000000000112
1279000,7488,3633,129004,102,2986,127292,37,19237,172,1,19899,0.0009999999999998899
1280001,8658,1243,127600,527,-226,126180,37,19238,152,1,19900,0.0010010000000000296
1281000,11073,-505,126797,602,-1259,125986,37,19239,152,1,19901,0.0009989999999999721
1282000,10637,674,127045,2173,511,124907,40,19236,164,1,19902,0.001000000000000112
1283000,10390,2205,127494,1218,1214,128220,47,19234,192,1,19903,0.0009999999999998899
1284001,7810,-1690,127815,-2095,-2228,129676,53,19234,217,0,19904,0.0010010000000000296
1285000,5517,1353,128599,-3162,2978,125588,39,19233,217,0,19905,0.0009989999999999721
1286000,8338,3622,128886,-1145,188,126327,42,19237,160,0,19906,0.001000000000000112
1287000,8849,-1516,127430,509,-3246,128180,42,19235,172,0,19907,0.0009999999999998899
1288001,10575,-3831,126392,1708,-2553,126605,43,19235,176,0,19908,0.0010010000000000296
1289000,10315,403,127336,-146,2408,124970,43,19240,176,0,19909,0.0009989999999999721
1290000,9091,3808,128248,-1584,1816,127403,42,19240,172,0,19910,0.001000000000000112
1291000,7249,-105,128000,-2423,-2052,129886,40,19232,172,0,19911,0.0009999999999998899
1292000,5699,392,128155,-1533,1496,126303,39,19236,164,0,19912,0.001000000000000112
1293000,7361,2632,127918,355,570,125792,39,19234,160,0,19913,0.0009999999999998899
1294000,9565,-952,126809,1417,-2040,127304,46,19235,188,1,19914,0.001000000000000112
1295001,11271,160,127667,1152,-1308,125681,41,19236,168,1,19915,0.0010009999999998076
1296001,11576,413,127173,1132,216,127146,47,19236,192,1,19916,0.001000000000000112
1297002,6770,1508,128643,-2609,-562,127937,49,19237,192,1,19917,0.0010010000000000296
1298000,5260,-1721,128090,-3804,-2622,129669,38,19237,201,1,19918,0.0009980000000000544
1299000,5878,335,128008,-1824,2316,126584,38,19236,156,1,19919,0.0009999999999998899
1300000,9351,4687,127901,1675,2757,123515,36,19235,147,1,19920,0.001000000000000112
1301000,10974,491,126413,1951,-1994,126479,37,19236,152,1,19921,0.0009999999999998899
1302002,11833,-2789,126322,1477,-3292,127456,44,19235,180,1,19922,0.0010019999999999474
1303000,9348,143,127482,-462,621,126681,52,19235,180,1,19923,0.0009980000000000544
1304000,6298,2521,128720,-4869,1780,127580,54,19228,213,0,19924,0.001000000000000112
1305000,4043,1608,128777,-4022,-604,128298,54,19232,221,0,19925,0.0009999999999998899
1306000,7115,-101,127907,-456,-1201,127655,40,19238,164,0,19926,0.001000000000000112
1307001,9861,367,126765,2250,337,124699,37,19236,152,0,19927,0.0010009999999998076
1308000,11254,379,126450,2071,-1694,125394,41,19237,168,0,19928,0.0009990000000001942
1309000,12241,-1841,126547,794,-1886,127448,43,19237,168,0,19929,0.0009999999999998899
1310000,8679,1764,128643,-1140,2028,127132,42,19236,176,0,19930,0.0009999999999998899
1311001,6230,3861,128949,-2375,1140,127558,42,19233,172,0,19931,0.0010010000000000296
1312001,4815,-490,127632,-3121,-939,128603,35,19232,143,0,19932,0.001000000000000112
1313000,7591,168,127656,92,385,126467,39,19236,160,0,19933,0.0009989999999999721
1314000,10698,1360,126670,2596,795,124766,46,19241,188,1,19934,0.0009999999999998899
1315000,12258,1167,126856,1223,94,125933,41,19241,188,1,19935,0.001000000000000112
1316002,9947,-1561,127419,-1624,-2771,128249,47,19234,168,1,19936,0.0010019999999999474
1317000,6395,-440,128437,-2371,-249,128347,47,19237,192,1,19937,0.0009980000000000544
1318000,4512,1898,129155,-2989,982,127902,43,19238,176,1,19938,0.0009999999999998899
1319000,5745,1387,128090,-2984,95,126741,37,19239,152,1,19939,0.001000000000000112
1320000,9407,709,126973,597,774,125551,34,19237,139,1,19940,0.0009999999999998899
1321000,11093,636,126642,3092,-425,124664,41,19237,139,1,19941,0.001000000000000112
1322000,10634,-388,126804,1345,-1652,126595,47,19236,168,1,19942,0.0009999999999998899
1323000,7406,-840,128001,-3354,-1269,128578,47,19234,192,1,19943,0.001000000000000112
1324000,5733,1765,129148,-4025,904,127386,52,19237,213,0,19944,0.0009999999999998899
1325000,5987,3280,128886,-542,2118,127462,40,19238,164,0,19945,0.001000000000000112
1326000,7576,-358,127378,-1938,-1633,126451,39,19236,160,0,19946,0.0009999999999998899
1327000,10482,-1897,126307,898,-2443,124632,41,19236,160,0,19947,0.001000000000000112
1328000,11050,2000,126999,4222,1563,125063,42,19237,168,0,19948,0.0009999999999998899
1329000,9468,1974,127852,-2738,1152,128027,42,19233,172,0,19949,0.001000000000000112
1330000,6772,-1214,128300,-2785,-1781,129578,42,19234,172,0,19950,0.0009999999999998899
1331000,5232,1219,128458,-1029,2163,125901,36,19235,147,0,19951,0.001000000000000112
1332000,6732,2854,128367,-2151,598,126668,39,19235,160,0,19952,0.0009999999999998899
1333000,8378,-759,126544,-372,-2065,126130,44,19235,180,0,19953,0.001000000000000112
1334007,10852,559,126951,-87,1671,124686,46,19230,180,1,19954,0.0010069999999999801
1335001,10566,2045,127370,3354,-120,127105,43,19235,188,1,19955,0.0009939999999999394
1336000,8050,-505,127449,-5641,-2170,127875,43,19232,176,1,19956,0.0009989999999999721
1337000,6439,-327,129000,-2980,-1884,130004,42,19236,172,1,19957,0.001000000000000112
1338000,6889,-296,128436,3042,893,126972,36,19237,147,1,19958,0.0009999999999998899
1339001,8080,4457,128186,-1702,2323,124187,34,19237,139,1,19959,0.0010010000000000296
1340000,10452,505,126714,130,-2471,126347,34,19239,139,1,19960,0.0009989999999999721
1341000,11409,-860,126472,1781,753,125635,44,19238,139,1,19961,0.001000000000000112
1342002,9492,1963,128188,2550,-915,128504,44,19233,180,1,19962,0.0010019999999999474
1343000,6143,-182,127984,-5681,-275,127350,48,19237,197,0,19963,0.0009980000000000544
1344001,5502,1701,128581,-3564,1217,128056,46,19238,188,0,19964,0.0010010000000000296
1345001,7830,110,128493,3215,381,127515,38,19238,156,0,19965,0.0009999999999998899
1346000,10391,1138,127098,-609,-76,123944,42,19238,156,0,19966,0.0009989999999999721
1347002,10282,-1143,126348,537,-1716,125663,44,19237,172,0,19967,0.0010020000000001694
1348000,10309,204,127410,1731,-389,127564,44,19236,180,0,19968,0.0009979999999998324
1349000,8094,-632,128256,-1884,-652,129245,42,19236,172,0,19969,0.001000000000000112
1350000,5159,1326,128665,-5511,755,127690,42,19238,172,0,19970,0.0009999999999998899
1351000,5770,2268,128216,568,1303,126644,38,19232,156,0,19971,0.001000000000000112
1352000,8164,2650,127995,-701,1536,125565,42,19232,156,0,19972,0.0009999999999998899
1353013,9409,-974,126946,-1346,-3769,127313,53,19239,172,1,19973,0.0010130000000001527
1354002,9649,165,127071,-1063,612,125465,53,19234,217,1,19974,0.0009889999999999066
1355000,12589,-2137,126252,5339,-1751,126970,43,19236,176,1,19975,0.0009980000000000544
1356000,7039,4309,128279,674,4146,126579,46,19238,188,1,19976,0.0009999999999998899
1357000,7381,-461,127390,-11321,-4091,130488,42,19236,172,1,19977,0.001000000000000112
1358000,9943,864,128927,5602,3771,125384,37,19236,172,1,19978,0.0009999999999998899
1359000,8309,3615,128384,4060,-725,126005,35,19234,152,1,19979,0.001000000000000112
1360002,10592,-3207,127035,-5878,-4353,126269,35,19237,143,1,19980,0.0010019999999999474
1361001,7220,-6859,126118,2774,-5500,131337,39,19236,160,1,19981,0.0009989999999999721
1362002,8576,3294,127730,1333,6538,123966,48,19232,197,1,19982,0.0010010000000000296
1363002,7096,11684,127548,-5488,9765,121250,52,19235,213,0,19983,0.001000000000000112
1364000,6640,1178,128482,-2615,-3272,131702,41,19235,213,0,19984,0.0009979999999998324
1365000,11375,-9697,125671,1293,-9230,129032,38,19236,168,0,19985,0.001000000000000112
1366000,10554,834,129005,4886,1225,125092,38,19238,156,0,19986,0.0009999999999998899
1367000,9647,-768,127150,-58,-3119,126938,42,19234,172,0,19987,0.001000000000000112
1368000,7586,-1638,126978,-3261,-1712,127276,41,19235,168,0,19988,0.0009999999999998899
1369000,7834,3815,128125,352,4263,128796,41,19233,168,0,19989,0.001000000000000112
1370000,7151,7112,127609,-509,5645,122838,37,19233,168,0,19990,0.0009999999999998899
1371000,7770,909,127003,-4920,-778,126410,38,19236,152,0,19991,0.001000000000000112
1372000,12151,-1213,128333,5167,-1932,128207,38,19234,156,0,19992,0.0009999999999998899
1373000,9916,-1086,127277,5093,-1948,127469,46,19238,188,1,19993,0.001000000000000112
1374000,8163,-1316,128483,-6641,-2410,127639,43,19234,176,1,19994,0.0009999999999998899
1375000,8813,-2537,127354,1445,-2698,128291,46,19233,188,1,19995,0.001000000000000112
1376000,6958,3112,128398,-58,2827,125701,44,19233,180,1,19996,0.0009999999999998899
1377000,5997,4369,128567,-4079,-122,127236,42,19239,180,1,19997,0.001000000000000112
1378000,7988,-2397,127014,-3885,-2102,127077,36,19239,172,1,19998,0.0009999999999998899
1379000,11419,3899,127988,4339,5820,123170,36,19238,147,1,19999,0.001000000000000112
1380000,10102,2949,127847,4828,-5635,129518,39,19231,160,1,20000,0.0009999999999998899
1381000,9973,-6158,126007,-3948,-3610,127549,45,19232,184,1,20001,0.001000000000000112
1382000,6946,-279,128254,1157,427,128475,51,19232,209,1,20002,0.0009999999999998899
1383000,7821,3335,128498,-3533,5329,124233,56,19229,209,0,20003,0.001000000000000112
1384000,5859,5187,129170,-4229,-1757,128056,43,19236,229,0,20004,0.0009999999999998899
1385000,8570,-4351,127418,1591,-4503,129159,43,19237,176,0,20005,0.001000000000000112
1386000,10146,805,126758,4068,2583,122826,43,19234,176,0,20006,0.0009999999999998899
1387002,10225,3124,127722,-686,-504,126915,44,19237,180,0,20007,0.0010019999999999474
1388000,10454,-3172,126764,20,-3776,128965,46,19237,188,0,20008,0.0009980000000000544
1389000,8346,-184,127515,-2100,2299,126576,42,19235,188,0,20009,0.001000000000000112
1390000,7182,5820,129360,-2902,4464,124976,40,19233,172,0,20010,0.0009999999999998899
1391000,7019,1423,127920,1506,-3253,129109,40,19232,164,0,20011,0.001000000000000112
1392001,7347,-4826,127274,-1946,-4388,128782,42,19241,172,0,20012,0.0010010000000000296
1393000,9903,1310,127623,1274,3053,123244,50,19234,205,1,20013,0.0009989999999999721
1394000,10179,3325,127408,625,961,125970,50,19238,205,1,20014,0.0009999999999998899
1395001,11820,62,127430,-233,-2391,128257,45,19238,205,1,20015,0.0010010000000000296
1396000,8250,-2170,127112,-3442,-913,128018,43,19237,184,1,20016,0.0009989999999999721
1397000,6815,3397,128469,-161,3475,125142,43,19234,176,1,20017,0.001000000000000112
1398000,7476,1694,128414,392,-1869,128474,38,19237,156,1,20018,0.0009999999999998899
1399000,8976,-3394,127240,-285,-3304,128259,34,19236,139,1,20019,0.001000000000000112
1400001,11262,569,127656,2611,1622,124540,38,19233,156,1,20020,0.0010009999999998076
1401000,10276,2427,127291,1561,929,125874,45,19233,156,1,20021,0.0009990000000001942
1402002,9221,75,127131,-1813,-1860,128063,51,19231,184,1,20022,0.0010019999999999474
1403000,6157,685,128069,-2983,724,128006,51,19232,209,0,20023,0.0009980000000000544
1404000,5997,4678,128873,-2424,3388,125713,46,19238,188,0,20024,0.0009999999999998899
1405000,8238,281,128078,795,-2696,128147,41,19235,168,0,20025,0.001000000000000112
1406000,9377,-4850,126914,1812,-5273,128727,42,19230,172,0,20026,0.0009999999999998899
1407000,10975,-1463,127126,1218,-280,125318,44,19230,172,0,20027,0.001000000000000112
1408000,9476,3407,127951,-1171,2792,125563,44,19233,180,0,20028,0.0009999999999998899
1409000,9111,1683,127788,-1771,157,128085,44,19234,180,0,20029,0.001000000000000112
1410002,5365,1159,128121,-2259,921,127626,44,19237,180,0,20030,0.0010019999999999474
1411000,6121,3357,128192,-1891,2621,125889,42,19234,172,0,20031,0.0009980000000000544
