t_us,ax,ay,az,ax1,ay1,az1,shunt_raw,bus_raw,curr_raw,pg_rpm,seq,dt
0,1421,2480,128303,3505,1441,129584,61,19235,250,0,48383,
1002,10077,-4542,126241,-10565,-6285,122514,87,19235,250,1,48384,0.0010019999999999999
2000,5747,21298,128242,-6195,18639,117888,61,19237,356,1,48385,0.0009980000000000002
3000,12345,3051,128742,7605,5056,132257,61,19236,250,1,48386,0.001
4000,8222,-6065,126297,541,-6645,127509,55,19237,225,1,48387,0.001
5000,7844,-6874,128411,-9325,-7055,131470,57,19239,233,1,48388,0.001
6000,2892,981,128831,640,2938,124643,83,19234,340,0,48389,0.001
7000,7200,1720,128576,6696,-1348,129473,73,19234,340,0,48390,0.0009999999999999992
8000,6586,3331,127404,-15065,6444,121534,68,19236,299,0,48391,0.0010000000000000009
9000,5474,9278,127436,4658,5766,124621,68,19235,279,0,48392,0.0009999999999999992
10004,10506,-2034,126810,4438,-691,129736,62,19238,254,0,48393,0.0010039999999999997
11000,7245,-4723,127222,-4995,-4930,129910,80,19231,328,1,48394,0.0009960000000000004
12004,3582,-6351,128910,-8424,-3660,129090,65,19244,266,1,48395,0.0010039999999999997
13002,6282,4745,129363,7981,2862,126166,59,19244,266,1,48396,0.0009980000000000006
14002,11090,-4293,127905,-3169,-5299,131758,56,19241,242,1,48397,0.0009999999999999992
15002,9415,3348,126796,-3001,4771,118287,56,19236,229,1,48398,0.0010000000000000009
16000,3891,2697,126748,328,-1247,129646,70,19236,287,0,48399,0.0009980000000000006
17000,12429,1983,128106,-1380,2218,125973,65,19235,266,0,48400,0.0009999999999999974
18002,7868,-202,128505,-2094,-2416,130031,69,19241,283,0,48401,0.0010020000000000029
19000,7133,-3169,128322,639,-3015,127145,60,19241,283,0,48402,0.0009979999999999989
20000,8281,-631,127623,4701,-3564,127252,74,19236,246,0,48403,0.0010000000000000009
21000,9834,-7832,127189,-6425,-7266,132171,74,19228,303,1,48404,0.0009999999999999974
22000,9349,5810,128283,-623,6749,119534,57,19240,233,1,48405,0.0010000000000000009
23000,5992,5219,128619,2400,2953,128187,65,19242,266,1,48406,0.0010000000000000009
24000,11186,339,128273,-5231,-1306,126560,54,19241,221,1,48407,0.0010000000000000009
25001,6313,-7933,127021,542,-9889,132398,63,19241,258,1,48408,0.0010009999999999984
26000,7594,-1720,127727,4376,-1031,127231,89,19231,258,0,48409,0.0009989999999999999
27000,11067,7073,128970,1437,4873,123929,69,19237,365,0,48410,0.0010000000000000009
28000,11608,-2000,127691,-6005,-1541,130020,69,19240,283,0,48411,0.0009999999999999974
29000,11947,3563,128104,4748,3057,122846,60,19238,246,0,48412,0.0010000000000000009
30000,10338,-1810,127766,8047,-3484,130135,64,19235,262,1,48413,0.0010000000000000009
31000,9124,-2581,127830,-7957,-3245,127733,71,19235,291,1,48414,0.0010000000000000009
32000,5862,-4632,128557,65,-5123,129663,62,19236,291,1,48415,0.0010000000000000009
33000,9799,3815,128769,4965,3580,127440,55,19236,254,1,48416,0.0010000000000000009
34000,13089,5007,127781,1529,3879,122400,55,19241,225,1,48417,0.000999999999999994
35000,8963,-3650,125950,-3001,-4582,128435,58,19235,238,0,48418,0.0010000000000000009
36000,9076,497,127663,4431,133,125923,83,19238,340,0,48419,0.0010000000000000009
37001,11147,1051,127989,3413,-119,128830,71,19238,291,0,48420,0.0010010000000000019
38000,8886,1669,128843,-8558,1043,126494,65,19235,291,0,48421,0.0009989999999999999
39000,6696,-2623,127572,2248,-3533,129064,61,19237,266,0,48422,0.0010000000000000009
40000,11384,-1488,127260,6699,-2287,128621,61,19236,250,0,48423,0.0010000000000000009
41000,8763,1291,126609,-4768,498,124977,86,19232,352,1,48424,0.000999999999999994
42002,7552,4095,127272,-4904,3273,124737,59,19240,242,1,48425,0.0010020000000000029
43000,10908,4933,127938,5949,4449,125867,53,19239,217,1,48426,0.0009979999999999989
44000,12180,1425,127811,1008,1830,126987,52,19239,217,1,48427,0.0010000000000000009
45000,6350,-1607,127504,-360,-2910,128383,74,19238,213,0,48428,0.0010000000000000009
46000,5498,-1360,128218,689,-2394,127968,74,19233,303,0,48429,0.0010000000000000009
47000,10969,2922,128266,1232,2606,125977,70,19235,287,0,48430,0.0010000000000000009
48001,7380,6461,128142,-6875,5810,124032,63,19236,258,0,48431,0.001000999999999995
49000,8933,3359,126685,719,2896,125435,56,19241,229,0,48432,0.0009989999999999999
50000,9810,65,126809,6112,-610,127992,76,19241,229,1,48433,0.0010000000000000009
51000,7198,-5161,126183,-8790,-8712,129809,57,19231,311,1,48434,0.0010000000000000009
52000,5309,1226,126424,917,8813,120345,57,19242,233,1,48435,0.0010000000000000009
53000,10783,13572,128808,108,6375,128779,60,19239,246,1,48436,0.0010000000000000009
54001,12489,-460,125824,-327,1653,123276,52,19240,213,1,48437,0.0010010000000000019
55000,2189,5395,127101,-8275,-253,126795,69,19231,283,0,48438,0.0009989999999999999
56000,9438,-7725,127222,-1425,-6233,130112,70,19231,283,0,48439,0.000999999999999994
57000,5982,1292,128540,2785,-1617,128261,66,19235,287,0,48440,0.0010000000000000009
58000,7918,-3888,127842,-5378,-501,127648,66,19236,270,0,48441,0.0010000000000000009
59003,3244,12059,127155,2168,13862,119126,57,19238,233,0,48442,0.0010030000000000039
60001,9498,1698,125659,-5359,201,129258,69,19230,283,1,48443,0.0009979999999999989
61000,6744,-19,126544,-4502,3029,121589,67,19240,274,1,48444,0.0009989999999999999
62000,7920,-657,127830,9075,-3818,131389,64,19240,274,1,48445,0.0010000000000000009
63000,9271,-678,128977,-3719,1522,125651,52,19239,262,1,48446,0.0010000000000000009
64000,8023,-103,128392,-6093,-4783,130381,52,19238,213,1,48447,0.0010000000000000009
65001,3379,-5399,126888,-1535,-1353,127665,63,19232,258,0,48448,0.0010010000000000019
66000,3495,10969,128803,1916,7894,123189,81,19234,332,0,48449,0.0009989999999999999
67000,8988,-4893,126412,-10199,-4679,129663,72,19235,295,0,48450,0.000999999999999987
68000,6303,9662,128702,-4253,10249,119209,63,19235,295,0,48451,0.0010000000000000009
69000,8705,-1928,127771,9893,-5975,132836,67,19242,258,0,48452,0.0010000000000000009
70000,6903,21,127412,-3892,1003,123321,67,19233,274,1,48453,0.0010000000000000009
71001,4113,-6175,129105,-15902,-10099,133668,97,19236,397,1,48454,0.0010010000000000019
72000,8052,-2760,127215,10119,1006,125960,60,19238,246,1,48455,0.0009989999999999999
73002,9179,10864,129858,663,7430,124036,54,19239,221,1,48456,0.0010020000000000029
74002,10530,-6725,125314,-12738,-6808,128704,59,19239,242,1,48457,0.0010000000000000009
75002,4036,3726,127166,5307,2078,123152,88,19235,242,0,48458,0.0010000000000000009
76000,8719,-2403,127019,8915,-3377,134632,73,19239,360,0,48459,0.0009979999999999989
77000,9821,7603,126887,-12978,8781,118235,73,19240,299,0,48460,0.0010000000000000009
78000,8877,-1973,128396,-4092,-2830,131732,63,19242,258,0,48461,0.0010000000000000009
79000,10495,-4452,127439,17739,-4449,128181,61,19232,250,0,48462,0.0010000000000000009
80000,7985,-1549,127376,-6341,-2474,126318,87,19232,356,1,48463,0.0010000000000000009
81000,6908,-5391,128862,-13000,-4781,129373,64,19238,356,1,48464,0.0010000000000000009
82000,6717,7373,129014,11485,7104,122613,61,19240,262,1,48465,0.000999999999999987
83000,12021,1322,129356,-324,291,131145,61,19242,250,1,48466,0.0010000000000000009
84000,9982,-1444,126862,-7526,-1969,123939,55,19239,225,1,48467,0.0010000000000000009
85000,5189,-7607,126590,7210,-8954,131999,75,19231,307,0,48468,0.0010000000000000009
86001,10242,1097,128285,1636,1027,125038,66,19235,270,0,48469,0.0010010000000000019
87000,12176,3888,129084,-5601,3742,124093,67,19235,270,0,48470,0.0009989999999999999
88000,8147,-2428,127617,2716,-3613,131115,61,19241,274,0,48471,0.0010000000000000009
89000,8377,238,127673,3359,-658,124448,61,19238,250,0,48472,0.0010000000000000009
90002,10898,-4596,127467,-1971,-5600,131807,76,19235,311,1,48473,0.0010020000000000029
91001,9094,135,126879,2116,-1406,124963,58,19239,238,1,48474,0.0009989999999999999
92000,8737,2390,127958,3260,1149,127700,62,19236,254,1,48475,0.0009989999999999999
93000,13905,5433,127965,-292,4867,123683,53,19236,254,1,48476,0.0010000000000000009
94000,9548,593,125951,1045,1608,129170,68,19239,217,1,48477,0.0010000000000000009
95000,7155,-358,128794,958,-1365,127319,68,19231,279,0,48478,0.0010000000000000009
96000,9793,-1313,128305,3212,-1717,128882,66,19233,270,0,48479,0.0010000000000000009
97000,10170,554,129355,-4100,-102,126490,71,19240,291,0,48480,0.000999999999999987
98000,7951,3027,127652,-2225,-611,126502,60,19241,246,0,48481,0.0010000000000000009
99000,9925,-2863,127031,7747,-2377,128979,66,19241,246,0,48482,0.0010000000000000009
100000,9803,526,126521,-2306,510,125319,76,19235,270,1,48483,0.0010000000000000009
101000,7514,1938,127099,-5709,4027,125241,76,19240,311,1,48484,0.0010000000000000009
102000,10125,5631,127610,8221,5491,125736,59,19238,242,1,48485,0.0010000000000000009
103000,11548,1158,127735,-3906,-2450,127426,50,19239,205,1,48486,0.0010000000000000009
104000,9387,-3727,126025,-4370,-2954,127133,58,19238,238,1,48487,0.0010000000000000009
105000,6243,-422,128246,8888,-124,127837,75,19238,238,0,48488,0.0010000000000000009
106000,11001,3211,127917,-1686,2085,126708,68,19236,307,0,48489,0.0010000000000000009
107000,8917,2565,126940,-9396,3242,123296,68,19237,279,0,48490,0.0010000000000000009
108000,7947,5447,127592,5784,3697,126081,60,19239,246,0,48491,0.0010000000000000009
109000,11222,-1261,126936,5772,-2484,128168,61,19235,250,0,48492,0.0010000000000000009
110000,6250,-1503,127943,-12842,1277,125371,93,19239,381,1,48493,0.0010000000000000009
111000,6566,-3741,128939,-3420,-4940,129658,61,19239,381,1,48494,0.0010000000000000009
112000,6212,2708,127046,5738,-747,128785,52,19236,250,1,48495,0.000999999999999987
113001,10189,1383,125273,1914,4252,120579,57,19239,213,1,48496,0.0010010000000000019
114002,8584,12541,126942,-9505,9247,124852,57,19236,233,1,48497,0.0010010000000000019
115000,7772,-7362,124994,3383,-7808,129425,84,19235,344,0,48498,0.0009979999999999989
116000,10095,6879,129968,-3799,6133,125043,68,19236,279,0,48499,0.0010000000000000009
117000,9253,-5194,127375,-1631,-7356,131414,61,19236,250,0,48500,0.0010000000000000009
118000,-770,-268,126971,2204,-1511,126193,59,19241,250,0,48501,0.0010000000000000009
119000,10132,-4336,126062,-3847,-4212,129790,81,19238,242,1,48502,0.0010000000000000009
120000,5675,16659,127174,-6640,18606,114299,81,19236,332,1,48503,0.0010000000000000009
121000,10893,9251,128761,-1712,5089,127997,62,19239,254,1,48504,0.0010000000000000009
122000,7374,-9797,126413,8044,-10109,130339,61,19240,250,1,48505,0.0010000000000000009
123000,7871,-2562,128142,-9279,-3308,128751,54,19240,221,1,48506,0.0010000000000000009
124000,6435,-2245,129533,-4120,-2500,128678,74,19236,221,0,48507,0.0010000000000000009
125000,386,1414,127645,9390,-795,127145,71,19232,303,0,48508,0.0010000000000000009
126001,9837,1633,127257,-14870,1442,128652,71,19237,291,0,48509,0.0010010000000000019
127001,3189,13442,126684,-9636,12898,117704,71,19239,291,0,48510,0.0010000000000000009
128001,11808,-562,126178,6535,-1642,129691,62,19237,254,0,48511,0.0010000000000000009
129000,8921,-4160,127101,5247,-4929,128211,76,19237,311,0,48512,0.0009989999999999999
130000,4864,-2985,128499,-13294,-3646,128686,80,19231,311,1,48513,0.0010000000000000009
131000,7164,987,129236,-2433,496,128313,61,19237,328,1,48514,0.0010000000000000009
132000,7290,-1439,128320,8268,-2542,128907,61,19238,250,1,48515,0.0010000000000000009
133000,14003,-901,126166,-8774,-1710,126895,54,19240,221,1,48516,0.0010000000000000009
134000,2659,7308,127305,3,6350,119028,67,19234,274,0,48517,0.0009999999999999731
135000,8013,-3668,127283,-536,-4699,131814,79,19239,324,0,48518,0.0010000000000000009
136002,9778,-180,129364,-632,-284,126396,70,19239,324,0,48519,0.0010020000000000029
137001,5872,-549,128058,-3523,-1831,128968,61,19234,287,0,48520,0.0009989999999999999
138000,9191,2091,127357,1994,827,124589,61,19233,250,0,48521,0.0009989999999999999
139000,9047,-8273,126729,4131,-8449,131899,68,19232,279,1,48522,0.0010000000000000009
140000,11926,-1840,127492,-8696,-3308,120050,74,19239,303,1,48523,0.0010000000000000009
141000,5170,9315,128324,4526,8574,125903,68,19239,279,1,48524,0.0010000000000000009
142000,10300,-375,128823,-2324,-491,130052,58,19239,279,1,48525,0.0010000000000000009
143000,9189,-5489,127601,-3233,-5160,129373,58,19240,238,1,48526,0.0010000000000000009
144000,4393,-1421,128477,-164,-2737,126351,58,19237,238,0,48527,0.0010000000000000009
145000,7806,4763,127920,2702,3651,123830,90,19234,369,0,48528,0.0010000000000000009
146000,10233,201,128009,-1738,-2691,129316,72,19236,295,0,48529,0.0010000000000000009
147004,12981,-1743,127919,-6347,-174,125009,64,19239,262,0,48530,0.0010040000000000049
148000,8350,5617,128689,11575,1692,126095,65,19239,262,0,48531,0.0009959999999999969
149000,11636,-5573,127584,-7389,-8761,131605,84,19233,266,1,48532,0.0010000000000000009
150000,6696,-4772,127875,-1764,-3923,127242,84,19242,344,1,48533,0.0010000000000000009
151003,8511,1933,128413,6309,2971,128842,63,19240,258,1,48534,0.0010030000000000039
152002,13706,7088,127967,2846,6621,121267,58,19238,238,1,48535,0.0009989999999999999
153000,10948,1381,125911,-6100,-2970,127902,57,19236,233,1,48536,0.0009979999999999989
154000,9605,-4931,127043,4314,-3154,127679,80,19236,233,0,48537,0.0010000000000000009
155000,8149,3566,128590,8233,2891,125882,72,19235,328,0,48538,0.0010000000000000009
156000,11161,-631,129501,-9533,-2965,130502,72,19238,295,0,48539,0.0010000000000000009
157000,5043,-2162,128225,-1862,-1688,125783,67,19237,274,0,48540,0.0010000000000000009
158000,9382,-598,128214,8298,-1784,130338,60,19238,246,0,48541,0.0010000000000000009
159001,10751,1096,126381,-902,1557,123289,80,19230,328,1,48542,0.0010010000000000019
160000,5813,1913,126904,-8564,1881,124707,56,19230,229,1,48543,0.0009989999999999999
161000,10904,-239,126809,7640,29,125107,56,19236,229,1,48544,0.0010000000000000009
162000,12640,7361,129311,4716,5247,125706,49,19236,229,1,48545,0.0010000000000000009
163000,11254,-2580,126409,-4494,-4878,128889,49,19240,201,1,48546,0.0010000000000000009
164001,4072,-4553,127096,402,-4174,126932,66,19236,270,0,48547,0.0010009999999999741
165000,9471,2867,127373,4298,1194,128654,67,19237,274,0,48548,0.0009989999999999999
166000,10266,5470,127874,-5182,5758,123915,68,19237,279,0,48549,0.0010000000000000009
167000,7090,6314,128017,-4552,4685,124379,55,19243,279,0,48550,0.0010000000000000009
168000,8547,-351,126926,7425,-1890,128194,69,19236,225,0,48551,0.0010000000000000009
169000,8931,-4085,125960,-2877,-5567,128262,69,19232,283,1,48552,0.0010000000000000009
170000,4336,1509,128516,-3976,2594,123785,78,19240,319,1,48553,0.0010000000000000009
171006,7153,6538,128151,624,5361,127231,61,19239,250,1,48554,0.0010060000000000069
172001,12827,4452,127759,1205,4935,124277,51,19239,209,1,48555,0.0009949999999999959
173001,7886,8045,126965,598,6614,122184,63,19238,209,1,48556,0.0010000000000000009
174000,6390,-7068,126863,-7104,-8676,131534,81,19231,258,0,48557,0.0009989999999999999
175000,9017,-4050,129880,2142,-3627,126637,81,19238,332,0,48558,0.0010000000000000009
176000,9573,-1096,128298,1494,-1684,132773,67,19235,274,0,48559,0.0010000000000000009
177000,3319,9747,128109,-8402,9752,118650,58,19239,238,0,48560,0.0010000000000000009
178000,6762,2566,125361,-126,888,125346,64,19239,262,0,48561,0.0010000000000000009
179000,10709,-2209,124502,2298,-3079,130453,87,19235,262,1,48562,0.0010000000000000009
180002,5544,9672,127898,-6402,8593,116984,64,19233,356,1,48563,0.0010020000000000029
181000,10276,-5391,127973,-991,-6776,133642,64,19238,262,1,48564,0.0009979999999999989
182000,9913,-56,129129,7778,-680,125916,55,19238,225,1,48565,0.0010000000000000009
183003,4530,-6423,127770,-8830,-7469,132764,57,19238,233,1,48566,0.0010030000000000039
184000,734,7056,127457,-5629,5648,121526,90,19232,369,0,48567,0.0009969999999999979
185000,8390,1946,128016,5344,1764,128129,76,19232,369,0,48568,0.0010000000000000009
186000,9586,4133,127463,-12199,3022,125398,65,19234,311,0,48569,0.0010000000000000009
187000,7484,4987,127799,-1425,5175,129741,65,19240,266,0,48570,0.0010000000000000009
188000,9323,-5544,127955,10392,-6174,129185,62,19234,254,0,48571,0.0010000000000000009
189002,6681,-5182,127572,-8680,-5859,129619,86,19235,352,1,48572,0.0010020000000000029
190000,3486,-2971,128984,-9331,-4939,127981,63,19242,258,1,48573,0.0009979999999999989
191000,6622,9971,129409,9109,8869,123848,58,19242,258,1,48574,0.0010000000000000009
192000,11372,-2043,126821,-5413,-5334,128502,57,19239,238,1,48575,0.0010000000000000009
193001,8370,685,127030,-6946,-1260,124250,57,19239,233,1,48576,0.0010009999999999741
194000,6212,946,127412,10017,-3915,129709,77,19234,315,0,48577,0.0009989999999999999
195000,10531,2124,128602,-376,4958,125404,68,19240,279,0,48578,0.0010000000000000009
196001,9137,2119,129082,-6420,-2652,128278,64,19235,262,0,48579,0.0010010000000000019
197000,8399,-2484,127161,12273,-885,127104,59,19235,262,0,48580,0.0009989999999999999
198001,9924,-329,128432,-1377,-3770,127799,80,19235,242,1,48581,0.0010010000000000019
199000,8492,-7526,127565,-10916,-6296,128147,80,19236,328,1,48582,0.0009989999999999999
200000,7871,2224,127821,6239,3322,125941,60,19241,246,1,48583,0.0010000000000000009
201000,7805,4198,129803,2887,3305,127879,63,19242,258,1,48584,0.0010000000000000009
202001,10810,1536,127203,-7373,-447,125624,52,19238,213,1,48585,0.0010010000000000019
203000,5763,-7106,126121,257,-8971,131667,69,19238,213,1,48586,0.0009989999999999999
204000,8435,-2013,126902,6720,802,124629,85,19232,283,0,48587,0.0010000000000000009
205000,12302,4726,128141,-3217,3538,125072,85,19236,348,0,48588,0.0010000000000000009
206000,9382,-183,127903,-6937,-1577,127955,68,19237,279,0,48589,0.0010000000000000009
207000,9793,-2531,127604,8043,-3538,128350,57,19236,233,0,48590,0.0010000000000000009
208000,10338,-1891,127761,6145,-2714,129300,69,19233,283,1,48591,0.0010000000000000009
209000,8232,-174,127830,-9019,-2244,125706,52,19233,213,1,48592,0.0010000000000000009
210000,8930,-2866,127753,3296,-4373,128902,62,19240,213,1,48593,0.0010000000000000009
211001,10689,5828,129320,7589,3327,124204,52,19239,254,1,48594,0.0010010000000000019
212002,12520,7917,128877,-6316,5034,124149,52,19240,213,1,48595,0.0010010000000000019
213000,5869,-3355,127647,-3242,-4921,129118,63,19233,258,0,48596,0.0009979999999999989
214000,6102,-5090,128143,10374,-5757,130811,76,19238,311,0,48597,0.0010000000000000009
215000,10105,1366,128158,-5410,1311,127383,73,19238,299,0,48598,0.0010000000000000009
216000,10083,1808,127457,-6577,942,124360,61,19235,299,0,48599,0.0010000000000000009
217000,10951,-844,126654,12786,-1150,128012,62,19240,250,0,48600,0.0010000000000000009
218000,12799,2578,126969,-1298,2096,125641,62,19233,254,1,48601,0.0010000000000000009
219000,7522,873,126629,-8890,150,126194,92,19240,377,1,48602,0.0010000000000000009
220003,5932,2649,126952,6097,1631,126702,61,19238,250,1,48603,0.0010029999999999761
221018,9325,3397,128955,917,2588,127513,51,19245,209,1,48604,0.0010150000000000159
222007,12051,-2291,126814,-5153,-3097,127406,54,19245,209,1,48605,0.0009889999999999899
223003,7558,-1162,126871,5419,-1997,126493,83,19237,221,0,48606,0.0009959999999999969
224000,8848,3072,128264,2193,1895,125358,83,19237,340,0,48607,0.0009969999999999979
225000,11467,5094,128410,-3862,4881,124732,70,19236,287,0,48608,0.0010000000000000009
226000,5792,1252,127915,-3326,-75,128130,61,19238,250,0,48609,0.0010000000000000009
227000,7125,-855,126415,3035,-1923,126945,58,19236,238,0,48610,0.0010000000000000009
228003,6756,-1185,128076,-291,-2219,126841,88,19236,238,1,48611,0.0010030000000000039
229000,4609,19,126225,-9985,-1156,128626,62,19235,360,1,48612,0.0009969999999999979
230000,8103,-303,125976,-2720,-940,127273,62,19240,254,1,48613,0.0010000000000000009
231000,10340,6998,127393,10214,5322,122498,54,19237,221,1,48614,0.0010000000000000009
232001,13165,13103,128141,-5976,13850,120527,51,19242,209,1,48615,0.0010010000000000019
233000,5728,-11401,125067,-1621,-12043,133711,72,19230,295,0,48616,0.0009989999999999999
234000,3377,775,129531,3,-1540,123628,68,19230,295,0,48617,0.0010000000000000009
235003,14070,4392,130053,-8359,4959,129218,65,19238,279,0,48618,0.0010030000000000039
236000,-976,-3389,127354,4929,-4251,128920,65,19235,266,0,48619,0.0009969999999999979
237000,8144,-1570,126663,-2978,-3693,126602,56,19235,229,0,48620,0.0010000000000000009
238000,6693,10809,125839,-1472,16262,115897,73,19233,299,1,48621,0.0010000000000000009
239000,8760,15271,129075,-13202,4659,126096,58,19238,238,1,48622,0.0010000000000000009
240000,10421,-11765,126774,9763,-15436,136265,59,19238,238,1,48623,0.0010000000000000009
241000,5430,-5860,127348,9275,-370,125594,55,19242,242,1,48624,0.0010000000000000009
242000,9670,5419,130004,-23202,2269,124953,55,19237,225,1,48625,0.0010000000000000009
243000,2028,-1566,126253,18566,-5438,131075,70,19231,287,0,48626,0.0010000000000000009
244000,9816,2517,127261,-7479,6144,124531,67,19233,274,0,48627,0.0010000000000000009
245000,6503,11881,127623,-16660,10976,119010,72,19236,295,0,48628,0.0010000000000000009
246000,7019,2043,128052,3135,-1645,127853,62,19236,295,0,48629,0.0010000000000000009
247000,11634,-6232,127743,13336,-8651,132803,69,19239,254,0,48630,0.0010000000000000009
248000,4329,-4565,128279,-12025,-2133,126761,69,19233,283,1,48631,0.0010000000000000009
249000,3678,5289,129748,-9042,3530,124239,98,19236,401,1,48632,0.0010000000000000009
250000,5783,-4973,127466,9620,-7219,134140,63,19242,258,1,48633,0.0010000000000000009
251000,14665,-402,128366,-4890,3550,122691,53,19238,217,1,48634,0.0010000000000000009
252000,7927,8903,128044,-244,5846,121812,61,19238,250,1,48635,0.0010000000000000009
253000,3964,-4135,126401,-1320,-7572,130601,85,19234,250,0,48636,0.0010000000000000009
254000,11023,-5933,127612,-1313,-6184,131534,70,19235,348,0,48637,0.0010000000000000009
255000,8703,2048,128041,-336,3591,126149,70,19236,287,0,48638,0.0010000000000000009
256000,8178,10194,128062,367,8205,120017,62,19236,254,0,48639,0.0010000000000000009
257000,7601,-8470,126347,552,-12652,134059,65,19237,266,0,48640,0.0010000000000000009
258002,12279,-9188,127319,-6175,-6161,129588,86,19237,352,1,48641,0.0010020000000000029
259007,7887,6879,129585,6369,6157,121631,66,19237,352,1,48642,0.0010049999999999781
260000,5362,5603,129625,-1897,1440,126852,58,19236,270,1,48643,0.0009930000000000216
261000,9196,-6181,127449,-5794,-9751,131532,58,19240,238,1,48644,0.0010000000000000009
262000,7110,-2469,128102,1320,-1930,128623,57,19237,233,1,48645,0.0010000000000000009
263000,7992,5840,126725,7350,4745,121994,83,19232,340,0,48646,0.0010000000000000009
264000,8764,-561,128068,-2724,-2041,125911,73,19232,299,0,48647,0.0010000000000000009
265000,13745,-3153,127679,-8578,-3378,129895,65,19242,299,0,48648,0.0010000000000000009
266000,10381,2554,128697,10808,2186,125899,62,19235,266,0,48649,0.0010000000000000009
267006,10290,1130,128355,6417,-1047,128365,62,19233,254,1,48650,0.0010059999999999514
268002,6637,-9339,126550,-10640,-10576,130626,82,19235,336,1,48651,0.0009959999999999969
269002,8042,408,127954,-1896,885,127019,62,19238,254,1,48652,0.0010000000000000009
270000,10998,7854,128457,10816,7010,125430,58,19238,238,1,48653,0.0009979999999999989
271000,11980,4114,126784,-1430,3076,123127,54,19238,238,1,48654,0.0010000000000000009
272000,9578,-6389,126798,-7539,-6929,128824,77,19235,221,0,48655,0.0010000000000000009
273000,7798,1405,128302,10404,900,126906,77,19234,315,0,48656,0.0010000000000000009
274000,11424,1758,129045,3102,574,128853,70,19236,287,0,48657,0.0010000000000000009
275000,7172,-3090,127819,-11349,-3921,128135,69,19237,283,0,48658,0.0010000000000000009
276001,8375,2161,128101,1021,1700,125594,57,19237,233,0,48659,0.0010010000000000296
277001,12395,-118,126859,11093,-865,128249,69,19237,233,0,48660,0.0010000000000000009
278000,10173,-4877,126145,-3892,-4037,124543,64,19229,283,1,48661,0.0009989999999999721
279000,7653,1546,127524,-6113,494,127656,64,19238,262,1,48662,0.0010000000000000009
280000,10682,7406,127186,8255,6180,123835,59,19238,242,1,48663,0.0010000000000000009
281001,13176,815,127404,2225,677,130835,52,19239,213,1,48664,0.0010010000000000296
282000,5661,-5804,126114,-4986,-7092,124976,61,19236,250,0,48665,0.0009989999999999721
283000,6523,4212,128033,643,1778,127783,71,19236,250,0,48666,0.0010000000000000009
284000,10414,3411,128479,4243,3360,125786,68,19236,291,0,48667,0.0010000000000000009
285000,8085,4525,127596,-7788,2460,125074,68,19238,279,0,48668,0.0010000000000000009
286000,8479,-450,126979,-617,-3193,127297,59,19237,242,0,48669,0.0010000000000000009
287000,10899,3407,126835,8070,3569,123027,68,19232,279,1,48670,0.0010000000000000009
288000,8004,-730,127614,-3772,-4315,131834,84,19240,344,1,48671,0.0010000000000000009
289000,4049,-775,126677,-7745,3239,123660,61,19240,344,1,48672,0.0010000000000000009
290000,8100,10922,129796,2844,6474,126492,52,19239,250,1,48673,0.0010000000000000009
291000,10346,-1653,125660,4654,-1399,124935,52,19242,213,1,48674,0.0010000000000000009
292001,4384,4768,127525,-5630,2179,125693,58,19238,238,0,48675,0.0010010000000000296
293000,9249,-6937,127304,-4791,-8212,132880,91,19234,373,0,48676,0.0009989999999999721
294000,10376,12276,129126,-746,14847,117961,70,19238,287,0,48677,0.0010000000000000009
295000,9244,-2082,126565,-2201,-8527,135828,59,19238,287,0,48678,0.0010000000000000009
296000,1824,-2099,127078,4421,1050,123136,61,19236,242,0,48679,0.0010000000000000009
297000,5283,-3065,124616,-2621,-6346,131787,61,19236,250,1,48680,0.0010000000000000009
298000,5490,9928,127924,-19531,16542,115906,87,19239,356,1,48681,0.0010000000000000009
299000,11634,12878,128788,11362,5209,124950,62,19239,254,1,48682,0.0010000000000000009
300000,10506,-8333,127356,13328,-8314,134025,58,19237,238,1,48683,0.0010000000000000009
301000,7638,-3888,126849,-22335,-5634,124608,58,19237,238,1,48684,0.0010000000000000009
302000,5073,-6564,128917,713,-4848,131645,83,19236,238,0,48685,0.0010000000000000009
303003,3707,9047,128897,14269,8043,124684,74,19235,340,0,48686,0.0010029999999999761
304000,8981,-102,128085,-18904,-1299,127861,74,19232,303,0,48687,0.0009970000000000256
305000,2491,7901,126518,-10619,7830,120073,68,19236,279,0,48688,0.0010000000000000009
306000,10743,-1981,126661,15325,-4959,131449,62,19236,254,0,48689,0.0010000000000000009
307000,10321,-2913,126141,-3170,-992,124278,84,19236,344,1,48690,0.0010000000000000009
308000,4291,1593,129051,-11754,-1254,128167,62,19230,344,1,48691,0.0010000000000000009
309000,5802,-5062,126875,2638,-4912,131217,58,19236,254,1,48692,0.0010000000000000009
310000,9388,4844,129993,286,2773,125655,58,19240,238,1,48693,0.0010000000000000009
311003,11496,-3045,126575,-2640,-5316,128404,54,19238,221,1,48694,0.0010029999999999761
312000,2813,5161,127516,2321,4652,122686,72,19232,295,0,48695,0.0009970000000000256
313000,7828,-2020,128040,-5557,-3724,130594,67,19233,274,0,48696,0.0010000000000000009
314002,11853,3434,129043,-1018,3934,124260,69,19233,274,0,48697,0.0010020000000000029
315000,6605,3382,128346,2857,1219,128047,60,19238,283,0,48698,0.0009979999999999989
316000,7373,-5261,126862,1512,-6075,127225,60,19236,246,0,48699,0.0010000000000000009
317000,9763,-7653,127596,-3898,-8453,130935,72,19231,295,1,48700,0.0010000000000000009
318000,10495,-1689,128339,573,-1364,128247,56,19234,229,1,48701,0.0010000000000000009
319000,6334,10860,129051,3061,9987,119787,64,19239,262,1,48702,0.0010000000000000009
320000,10132,-1588,128081,-3722,-2183,130647,56,19239,262,1,48703,0.0010000000000000009
321000,9018,-3896,126503,-3136,-4902,127931,62,19240,229,1,48704,0.0010000000000000009
322000,6444,-3928,127427,3101,-4834,129959,62,19232,254,0,48705,0.0010000000000000009
323000,8192,3716,128198,4150,2877,123869,93,19234,381,0,48706,0.0010000000000000009
324000,11468,-687,127981,-5525,-803,126585,72,19237,295,0,48707,0.0010000000000000009
325000,10094,-1946,128246,-2932,-2938,129242,62,19237,254,0,48708,0.0010000000000000009
326000,9392,2223,128315,11765,1569,125109,62,19237,254,0,48709,0.0010000000000000009
327000,9913,-5671,127154,-1736,-6744,129868,70,19233,254,1,48710,0.0010000000000000009
328000,7604,-1991,126792,-7280,-3162,126458,70,19240,287,1,48711,0.0009999999999999454
329000,9133,784,128733,8076,-270,129532,65,19237,266,1,48712,0.0010000000000000009
330001,13448,7658,127521,5228,6451,121009,56,19238,229,1,48713,0.0010010000000000296
331002,10490,-3118,126199,-5393,-2405,130503,60,19233,246,1,48714,0.0010009999999999741
332000,8012,-1270,127024,1133,-3242,125034,85,19233,246,0,48715,0.0009979999999999989
333000,10876,1723,129092,8841,-1321,129868,73,19236,348,0,48716,0.0010000000000000009
334002,9989,503,128442,-6922,1511,125472,73,19236,299,0,48717,0.0010020000000000029
335000,5936,1571,128502,-4164,-2405,127935,60,19240,246,0,48718,0.0009979999999999989
336000,9448,-3578,127456,7928,-2709,129813,61,19234,250,0,48719,0.0010000000000000009
337000,10546,1652,127198,-4429,624,124249,85,19234,348,1,48720,0.0010000000000000009
338000,6271,1179,127320,-3853,2033,126338,60,19234,348,1,48721,0.0010000000000000009
339000,9956,7402,128009,4958,7074,123248,54,19240,246,1,48722,0.0010000000000000009
340000,13210,2092,128196,457,-1556,129347,54,19245,221,1,48723,0.0010000000000000009
341000,10591,-4271,126329,-1313,-5600,127330,52,19239,213,1,48724,0.0010000000000000009
342000,4041,-695,127437,3216,-791,126626,73,19236,299,0,48725,0.0010000000000000009
343000,11162,2877,127999,-1363,3921,128466,69,19236,283,0,48726,0.0010000000000000009
344000,10309,4911,126902,-5468,6423,125269,64,19236,283,0,48727,0.0010000000000000009
345000,6682,1833,126580,2783,3270,127095,59,19239,262,0,48728,0.0010000000000000009
346000,10262,1752,126893,4279,1107,124057,59,19236,242,0,48729,0.0010000000000000009
347014,7272,-272,127472,-7444,-2686,128543,77,19228,315,1,48730,0.0010140000000000149
348000,6215,-8171,126548,-1592,-8976,131066,55,19239,225,1,48731,0.0009859999999999869
349000,5909,11724,129055,4474,15130,116466,58,19240,238,1,48732,0.0010000000000000009
350000,14558,8563,128027,-6197,3041,130727,52,19240,213,1,48733,0.0010000000000000009
351000,5499,-3461,125323,3221,-2401,124051,68,19242,213,1,48734,0.0010000000000000009
352000,3453,-569,127841,-6955,-2516,128495,74,19226,279,0,48735,0.0010000000000000009
353001,12949,-1005,130031,-395,-478,127742,74,19237,303,0,48736,0.0010010000000000296
354000,5388,-2367,127319,-237,-4639,128994,66,19241,270,0,48737,0.0009989999999999721
355001,7413,2332,128626,-1354,3029,126993,58,19238,238,0,48738,0.0010010000000000296
356000,5021,10933,125568,-1065,9346,118910,70,19238,287,0,48739,0.0009989999999999721
357000,11173,6114,128153,-12162,4263,126401,73,19236,287,1,48740,0.0010000000000000009
358000,8743,-4320,125855,7884,-5097,128637,60,19239,299,1,48741,0.0010000000000000009
359000,6184,-1572,128592,6245,-2235,129144,60,19237,246,1,48742,0.0010000000000000009
360000,9160,3483,128993,-17544,2097,124777,51,19238,209,1,48743,0.0010000000000000009
361000,5680,-3465,128548,2482,-5079,130517,62,19234,254,0,48744,0.0010000000000000009
362000,4067,1727,127869,10336,1947,128751,81,19236,332,0,48745,0.0010000000000000009
363000,5764,9362,127805,-11519,7790,120801,76,19236,332,0,48746,0.0010000000000000009
364000,8100,651,126128,-16913,158,125324,63,19233,311,0,48747,0.0010000000000000009
365001,9486,1730,128837,14533,1115,127994,63,19236,258,0,48748,0.0010009999999999741
366001,10125,-4813,127166,5573,-5789,129484,64,19234,262,0,48749,0.0010000000000000009
367000,4453,-120,129045,-15839,-705,124982,96,19235,393,1,48750,0.0009990000000000276
368000,5033,-7838,127365,-3121,-8969,133733,62,19240,254,1,48751,0.0010000000000000009
369000,10946,5925,128898,7664,5014,124754,56,19240,254,1,48752,0.0010000000000000009
370000,10723,7107,127837,-5835,6710,123185,58,19238,229,1,48753,0.0010000000000000009
371003,5680,-5106,125582,-3084,-5934,126863,58,19235,238,0,48754,0.0010029999999999761
372000,4568,-5377,127492,2768,-6702,130868,86,19235,352,0,48755,0.0009970000000000256
373000,12138,2395,129936,-1994,2209,127860,71,19235,291,0,48756,0.0010000000000000009
374001,7291,7164,128668,-2356,6671,122522,62,19239,254,0,48757,0.0010009999999999741
375002,6154,-6398,127149,2816,-6714,130548,62,19239,254,0,48758,0.0010010000000000296
376000,11691,-3625,127344,-2654,-5223,126541,88,19236,254,1,48759,0.0009979999999999989
377002,8193,-38,128793,-497,221,127073,88,19236,360,1,48760,0.0010020000000000029
378002,7169,3488,128362,2351,4054,125943,64,19235,262,1,48761,0.0010000000000000009
379000,7513,2079,129952,-2700,1725,130509,60,19239,246,1,48762,0.0009979999999999989
380000,12215,-858,127791,-2941,-191,126716,55,19237,225,1,48763,0.0010000000000000009
381000,6149,334,127104,4740,-3603,127413,74,19237,225,0,48764,0.0010000000000000009
382000,6346,-4106,126080,2574,-3304,127329,68,19232,303,0,48765,0.0010000000000000009
383000,12671,2544,127716,-5290,4060,123860,68,19237,279,0,48766,0.0010000000000000009
384002,10278,2290,128437,2616,-31,129087,67,19240,274,0,48767,0.0010020000000000029
385000,10241,-188,127799,6838,-1921,126703,59,19238,242,0,48768,0.0009979999999999989
386001,8551,-5462,126877,-3162,-8119,130839,72,19234,295,1,48769,0.0010009999999999741
387000,8894,-2101,127314,-4299,192,125130,56,19234,295,1,48770,0.0009989999999999721
388001,9788,4961,128121,10067,3667,126735,61,19238,229,1,48771,0.0010010000000000296
389001,12796,2090,128309,403,1833,126251,61,19238,250,1,48772,0.0010000000000000009
390001,12338,2289,126525,-4796,321,123283,53,19241,217,1,48773,0.0010000000000000009
391000,6103,-1755,127779,4369,-1966,129386,65,19235,266,0,48774,0.0009989999999999721
392000,9614,-1665,128428,6328,-2904,129311,66,19239,270,0,48775,0.0010000000000000009
393002,8530,-2250,129034,-8281,-1217,128246,71,19239,291,0,48776,0.0010020000000000029
394002,7417,2316,128901,-2811,3047,125055,59,19240,291,0,48777,0.0010000000000000009
395002,9332,-799,128333,9758,-2277,128651,66,19238,242,0,48778,0.0010000000000000009
396001,11172,-1925,125749,-1992,-2171,128689,66,19232,270,1,48779,0.0009990000000000276
397002,5750,-302,126432,-7380,772,123837,79,19238,324,1,48780,0.0010009999999999741
398000,9301,8080,127513,5401,8285,124286,60,19243,246,1,48781,0.0009979999999999989
399000,12327,2821,128878,6507,775,128390,52,19243,213,1,48782,0.0010000000000000009
400001,10521,-4098,126465,-7385,-5141,128609,58,19235,213,1,48783,0.0010010000000000296
401000,5455,-1366,127679,551,-1803,126706,77,19233,238,0,48784,0.0009989999999999721
402000,9388,4035,127632,8803,2504,126167,77,19234,315,0,48785,0.0010000000000000009
403000,10283,3048,127955,-7196,2069,126257,69,19235,283,0,48786,0.0010000000000000009
404000,6735,2926,127062,-5957,2534,124527,61,19238,250,0,48787,0.0010000000000000009
405000,9883,6171,127449,10431,5237,124059,64,19238,262,0,48788,0.0010000000000000009
406001,8221,-1632,127185,-2004,-2745,128392,94,19235,262,1,48789,0.0010010000000000296
407000,3968,-2527,128389,-13207,-2515,127388,61,19236,385,1,48790,0.0009989999999999721
408000,5199,3235,129006,6047,2893,127462,61,19239,250,1,48791,0.0010000000000000009
409000,11258,817,125866,988,-661,127796,54,19237,221,1,48792,0.0010000000000000009
410000,8639,9366,126619,-1692,9366,117658,54,19235,221,1,48793,0.0010000000000000009
411000,6447,2153,125211,-2068,737,131835,81,19229,332,0,48794,0.0010000000000000009
412000,10707,-48,127773,-3022,749,124276,70,19229,332,0,48795,0.0010000000000000009
413000,10908,5705,131698,-4628,5197,126218,62,19233,287,0,48796,0.0010000000000000009
414000,5123,-8230,127936,6984,-9025,132122,62,19240,254,0,48797,0.0010000000000000009
415002,1400,917,128009,-1819,-297,125824,58,19238,238,0,48798,0.0010020000000000029
416002,9178,-651,126821,-10824,-1443,128741,80,19233,328,1,48799,0.0010000000000000009
417000,8573,22153,127876,-3938,21088,111186,59,19235,242,1,48800,0.0009979999999999989
418000,12064,-603,128588,12411,-644,132600,56,19235,242,1,48801,0.0010000000000000009
419000,8296,-8225,126005,-4232,-9132,127791,55,19240,229,1,48802,0.0010000000000000009
420000,6798,-7127,129236,-10347,-7922,130561,55,19237,225,1,48803,0.0010000000000000009
421000,2932,1648,128658,5847,-309,124305,75,19232,307,0,48804,0.0010000000000000009
422001,8251,3358,127927,4154,3122,127921,73,19232,299,0,48805,0.0010009999999999741
423000,5365,5151,126840,-19732,3483,120726,71,19236,291,0,48806,0.0009990000000000276
424000,7538,7274,126964,-805,7409,126376,60,19236,291,0,48807,0.0010000000000000009
425000,10649,-5636,126585,9600,-5645,129553,75,19239,246,0,48808,0.0010000000000000009
426000,6629,-169,129075,-3865,-3312,127369,75,19232,307,1,48809,0.0010000000000000009
427000,3239,-6490,128455,-11723,-5383,131710,84,19237,344,1,48810,0.0010000000000000009
428000,5834,4001,130589,4413,-18,127306,62,19242,254,1,48811,0.0010000000000000009
429000,12362,-756,128103,-417,-3718,128062,54,19239,221,1,48812,0.0010000000000000009
430000,6223,3466,125980,-2075,4487,120511,66,19239,221,1,48813,0.0010000000000000009
431000,4498,1699,127594,-1957,-2810,129723,78,19232,270,0,48814,0.0010000000000000009
432000,13246,-1640,127593,498,780,127741,78,19237,319,0,48815,0.0010000000000000009
433000,7810,3142,128865,-2557,721,127004,70,19235,287,0,48816,0.0010000000000000009
434000,6642,-1658,127771,3949,-3276,127429,60,19241,246,0,48817,0.0010000000000000009
435000,8757,-4340,127124,-352,-6186,129723,70,19231,287,1,48818,0.0010000000000000009
436000,11464,-6542,127191,-5645,-3661,129410,76,19231,311,1,48819,0.0010000000000000009
437000,7305,8364,127927,3890,8968,119941,69,19237,311,1,48820,0.0010000000000000009
438001,7039,5697,129004,-2541,1116,128382,58,19238,283,1,48821,0.0010009999999999741
439000,10267,-4811,127694,-4034,-5645,129041,58,19242,238,1,48822,0.0009990000000000276
440000,5554,-4560,127912,2419,-6410,130958,59,19230,242,1,48823,0.0010000000000000009
441000,7078,-1427,127852,4185,788,125473,89,19229,365,0,48824,0.0010000000000000009
442000,10668,4617,128348,-4799,2370,124512,74,19229,303,0,48825,0.0010000000000000009
443000,13256,-3263,127116,-4661,-3137,129219,65,19235,303,0,48826,0.0010000000000000009
444000,10822,2306,127858,10782,3916,124257,63,19240,266,0,48827,0.0010000000000000009
445000,12738,-7067,126675,2871,-9257,130594,63,19234,258,1,48828,0.0010000000000000009
446000,7013,-2707,127728,-8293,-3546,127071,83,19239,340,1,48829,0.0010000000000000009
447002,6577,-1278,127581,3715,-1923,130623,64,19236,262,1,48830,0.0010019999999999474
448000,10992,3298,128133,6355,4170,125485,57,19236,233,1,48831,0.0009979999999999989
449000,11888,5728,127134,-2115,3580,122457,56,19236,233,1,48832,0.0010000000000000009
450000,9576,-5325,126082,-3245,-5810,129380,80,19238,229,0,48833,0.0010000000000000009
451001,8014,3211,128174,8572,2950,124700,80,19236,328,0,48834,0.0010010000000000296
452001,11176,302,128643,-1545,-888,130822,75,19238,307,0,48835,0.0010000000000000009
453001,6829,1075,128446,-7901,342,124731,66,19235,270,0,48836,0.0010000000000000009
454000,7459,-1519,128184,5326,-2668,129795,58,19237,238,0,48837,0.0009989999999999721
455000,12161,-2649,126796,5612,-2669,128746,77,19237,238,1,48838,0.0010000000000000009
456000,7095,3378,126998,-7401,2717,122542,58,19234,315,1,48839,0.0010000000000000009
457000,9193,3295,126654,-2992,2686,126704,58,19239,238,1,48840,0.0010000000000000009
458000,10861,7098,128271,7936,6502,123699,57,19238,233,1,48841,0.0010000000000000009
459002,13109,-2349,127161,-1058,-3576,130466,51,19236,209,1,48842,0.0010020000000000029
460001,4792,-2650,126990,-2314,-3874,126835,68,19230,279,0,48843,0.0009990000000000276
461001,5353,2026,128750,1593,394,128160,64,19230,279,0,48844,0.0010000000000000009
462000,12313,1665,127274,194,1348,127327,66,19238,262,0,48845,0.0009989999999999721
463000,5804,9257,128429,-7094,8172,121358,66,19237,270,0,48846,0.0010000000000000009
464000,8973,-172,127539,2852,-63,127028,61,19238,250,0,48847,0.0010000000000000009
465000,9867,-1754,126505,3678,-2330,126986,72,19231,295,1,48848,0.0010000000000000009
466000,5605,-5626,126437,-6252,-6208,130177,79,19242,324,1,48849,0.0010000000000000009
467000,5417,3769,126407,-1116,646,122825,62,19242,324,1,48850,0.0010000000000000009
468000,12276,11473,128892,-819,12972,124659,52,19240,254,1,48851,0.0010000000000000009
469000,11107,-1735,125555,4000,-3245,121681,52,19240,213,1,48852,0.0010000000000000009
470000,3597,6777,127242,-5910,6611,126808,63,19232,258,0,48853,0.0010000000000000009
471001,8486,-8307,127094,-4265,-8874,131308,88,19236,360,0,48854,0.0010010000000000296
472003,6583,-76,128242,4193,-1690,128993,70,19239,287,0,48855,0.0010020000000000029
473000,7815,-2716,127804,-8414,3830,124942,57,19239,287,0,48856,0.0009969999999999701
474000,2957,14717,127199,3503,11074,120776,63,19239,233,0,48857,0.0010000000000000009
475000,11019,478,125989,-1862,-3048,129451,63,19234,258,1,48858,0.0010000000000000009
476000,6198,2175,126272,-10635,2180,121189,90,19240,369,1,48859,0.0010000000000000009
477000,9048,409,129189,6096,-3397,130521,62,19235,254,1,48860,0.0010000000000000009
478000,9558,3239,130428,-4837,-1700,123376,57,19237,233,1,48861,0.0010000000000000009
479000,7004,-4882,127923,-5271,-7953,134443,60,19237,233,1,48862,0.0010000000000000009
480000,3194,-1075,128266,-623,4672,123027,90,19238,246,0,48863,0.0010000000000000009
481010,4998,8687,128198,1145,4358,126038,90,19233,369,0,48864,0.0010100000000000109
482002,9738,-3707,126932,-13406,-2355,127256,73,19241,299,0,48865,0.0009919999999999929
483000,7396,7633,128506,1024,7256,122179,64,19241,262,0,48866,0.0009979999999999989
484003,8400,-3210,126637,10791,-5387,132017,63,19234,258,0,48867,0.0010029999999999761
485000,5877,2224,128280,-11720,1451,122857,89,19234,365,1,48868,0.0009970000000000256
486000,3565,-9478,128159,-9898,-12662,136090,62,19232,365,1,48869,0.0010000000000000009
487000,8923,2180,127504,13546,7489,122266,55,19240,254,1,48870,0.0010000000000000009
488000,10532,7669,129962,-3066,2047,126674,55,19244,225,1,48871,0.0010000000000000009
489000,8680,-6744,125475,-11974,-5622,125433,54,19237,221,1,48872,0.0010000000000000009
490000,5695,1605,127923,7113,-1031,128028,77,19236,315,0,48873,0.0010000000000000009
491003,9182,-1556,127093,9178,-1527,130827,73,19236,299,0,48874,0.0010029999999999761
492000,7389,8627,128460,-17224,7078,119785,65,19236,299,0,48875,0.0009970000000000256
493000,8692,-5286,127726,-2464,-7312,133280,56,19239,266,0,48876,0.0010000000000000009
494007,10666,-827,126972,19099,461,124492,56,19238,229,0,48877,0.0010069999999999801
495007,7254,-5859,126925,-9822,-8943,128703,78,19231,319,1,48878,0.0010000000000000009
496000,6985,-3030,128720,-13267,-1619,125744,62,19235,254,1,48879,0.0009930000000000216
497001,9064,7072,128621,14595,5373,126156,64,19235,262,1,48880,0.0010009999999999741
498000,9937,167,128411,2271,-371,129531,53,19240,262,1,48881,0.0009990000000000276
499000,8151,1746,127137,-20006,-217,122664,67,19237,217,1,48882,0.0010000000000000009
500000,7329,-12061,125914,13487,-13054,135412,67,19236,274,0,48883,0.0010000000000000009
501001,8754,5990,128850,10568,6884,121274,80,19235,328,0,48884,0.0010010000000000296
502000,11597,2190,128237,-18802,1028,126596,69,19235,283,0,48885,0.0009989999999999721
503001,8410,-711,127860,5562,-1093,127598,60,19237,246,0,48886,0.0010010000000000296
504000,12159,-282,128073,11263,-1885,129142,67,19237,246,0,48887,0.0009989999999999721
505000,10036,-4401,127739,-7994,-4836,127736,56,19235,274,1,48888,0.0010000000000000009
506000,7178,-210,128369,1618,-1038,125710,56,19241,229,1,48889,0.0010000000000000009
507000,8131,-4835,126933,5202,-6012,133487,62,19236,254,1,48890,0.0010000000000000009
508002,14036,12203,129014,-5173,11763,118567,53,19239,217,1,48891,0.0010019999999999474
509000,9422,206,126278,5466,-343,128378,62,19233,254,1,48892,0.0009980000000000544
510000,6535,-1516,126819,2789,-2453,125879,77,19233,254,0,48893,0.0010000000000000009
511000,12311,-2399,128724,-4322,-3430,129135,71,19235,315,0,48894,0.0010000000000000009
512000,10482,-3261,127475,-2060,-4352,128878,71,19238,291,0,48895,0.0010000000000000009
513000,8853,4462,128433,4638,3900,124390,60,19242,246,0,48896,0.0010000000000000009
514000,8868,-3843,126997,1272,-4363,130368,64,19236,262,0,48897,0.0010000000000000009
515000,8946,-1107,126617,-5607,-2367,126923,93,19239,381,1,48898,0.0010000000000000009
516000,7206,2802,127742,92,2155,124800,61,19239,381,1,48899,0.0010000000000000009
517000,9940,9466,128397,4492,8322,123217,52,19238,250,1,48900,0.0010000000000000009
518001,12391,1045,127762,-672,2071,130048,52,19238,213,1,48901,0.0010009999999999186
519001,8362,-6261,126164,-2524,-7426,127282,52,19234,213,0,48902,0.0010000000000000009
520000,6609,368,128162,7405,891,127578,79,19235,324,0,48903,0.0009990000000000832
521000,9971,3082,128241,-33,2966,125334,70,19239,287,0,48904,0.0010000000000000009
522000,8282,5457,127975,-11597,4028,124316,60,19239,287,0,48905,0.0010000000000000009
523003,7979,2174,127474,3031,156,128257,59,19240,246,0,48906,0.0010029999999999761
524002,9869,-463,126795,7832,-2022,125760,59,19236,242,1,48907,0.0009989999999999721
525003,5401,-722,127286,-12279,-887,127423,83,19236,340,1,48908,0.0010010000000000296
526002,6424,2332,127530,1776,2083,127058,60,19243,246,1,48909,0.0009989999999999721
527000,10336,2843,125829,6417,1582,124971,53,19240,217,1,48910,0.0009980000000000544
528000,10999,11549,127874,-4063,10039,120090,54,19240,221,1,48911,0.0010000000000000009
529000,7044,92,125690,-4431,-7169,131851,75,19240,221,0,48912,0.0010000000000000009
530000,4381,-4880,128198,1654,461,124795,67,19232,307,0,48913,0.0010000000000000009
531000,12899,8046,130109,-5804,3942,127113,67,19235,274,0,48914,0.0010000000000000009
532000,5276,-3940,127185,3079,-4629,129802,62,19238,254,0,48915,0.0010000000000000009
533000,2992,-1943,126962,-1843,-3509,127594,56,19237,229,0,48916,0.0010000000000000009
534002,11129,141,125720,-4041,4493,124393,76,19237,311,1,48917,0.0010019999999999474
535000,5834,18520,128179,-7576,16296,116371,57,19230,311,1,48918,0.0009980000000000544
536000,12505,-2240,127702,7547,-6400,133647,62,19238,233,1,48919,0.0009999999999998899
537000,5560,-7645,126025,1494,-6073,128256,62,19238,254,1,48920,0.0010000000000000009
538003,10744,954,129961,-12916,687,126761,51,19237,209,1,48921,0.0010030000000000872
539000,3548,-1325,127682,5585,-2996,128680,66,19231,270,0,48922,0.0009969999999999146
540000,3905,-1510,127994,2427,-1722,129137,69,19231,283,0,48923,0.0010000000000000009
541000,8714,4533,127889,-14574,5540,123131,74,19234,283,0,48924,0.0010000000000000009
542000,4546,10338,127440,-3536,8343,121319,63,19240,303,0,48925,0.0010000000000000009
543002,10888,-4457,127252,8116,-6401,131089,63,19237,258,0,48926,0.0010020000000000584
544001,5771,-3743,127283,-641,-5509,127498,69,19234,283,1,48927,0.0009989999999999721
545000,4997,-1099,129121,-16257,-3661,127627,102,19234,418,1,48928,0.0009989999999999721
546000,5301,3645,129210,5563,1898,127511,60,19238,246,1,48929,0.0010000000000000009
547000,11358,-3611,127729,1146,-4564,130726,54,19238,246,1,48930,0.0010000000000000009
548000,10932,4937,127208,-4171,4109,120785,62,19239,221,1,48931,0.0010000000000000009
549000,3780,1196,126519,-1060,-1093,127227,62,19236,254,0,48932,0.0010000000000000009
550000,8805,-3599,127614,368,-4658,130048,87,19236,356,0,48933,0.0010000000000000009
551000,8683,2245,129050,-703,1647,127433,70,19236,287,0,48934,0.0010000000000000009
552001,7832,4339,127992,-5771,3004,124825,60,19238,246,0,48935,0.0010010000000000296
553000,6953,-210,127267,7647,-1437,126777,63,19238,246,0,48936,0.0009989999999999721
554000,11805,-11454,126224,-3000,-11860,134503,92,19235,258,1,48937,0.0010000000000000009
555000,8883,4046,128736,-3286,4018,121860,92,19235,377,1,48938,0.0010000000000000009
556000,5062,5384,129966,3094,4972,124888,70,19236,287,1,48939,0.0010000000000000009
557000,11698,-1620,128776,-2457,-1787,129496,60,19240,246,1,48940,0.0010000000000000009
558000,7996,-6518,127516,-1336,-7406,130785,57,19234,233,1,48941,0.0010000000000000009
559000,7626,415,126950,789,-992,126561,82,19234,233,0,48942,0.0010000000000000009
560001,6504,3317,128112,5156,3165,123117,70,19234,336,0,48943,0.0010010000000000296
561000,14076,-4089,127362,-7135,-5190,131263,70,19238,287,0,48944,0.0009989999999999721
562000,9966,508,129539,-47,-101,124811,64,19237,262,0,48945,0.0010000000000000009
563000,9027,2826,127572,10818,1661,129314,60,19234,246,0,48946,0.0010000000000000009
564001,10411,-7138,126835,-3353,-7280,128532,80,19237,328,1,48947,0.0010010000000000296
565003,6767,-3038,127170,-4206,-6406,130131,60,19237,328,1,48948,0.0010019999999999474
566001,10707,4103,128585,5985,2348,123307,60,19238,246,1,48949,0.0009980000000000544
567000,12023,7635,127806,6673,2595,125310,60,19239,246,1,48950,0.0009989999999999721
568000,11814,-4347,126306,-7414,-5935,128772,54,19236,221,1,48951,0.0010000000000000009
569003,7463,224,127180,1769,1694,124949,71,19232,291,0,48952,0.0010029999999999761
570000,10173,3261,129908,9707,-100,129654,69,19239,283,0,48953,0.0009970000000000256
571000,9797,-1613,128055,-7139,-2850,126315,69,19239,283,0,48954,0.0010000000000000009
572000,5741,-913,129063,2677,-846,128878,59,19238,283,0,48955,0.0010000000000000009
573002,11000,379,127608,9678,-573,127595,72,19240,242,0,48956,0.0010020000000000584
574000,8513,1577,126642,-7398,511,124675,72,19231,295,1,48957,0.0009979999999999434
575000,6758,-455,127650,-4954,-134,127523,65,19237,266,1,48958,0.0010000000000000009
576000,9799,6005,127834,8943,7476,123177,57,19238,233,1,48959,0.0010000000000000009
577003,14506,6135,128509,966,504,128570,50,19238,205,1,48960,0.0010029999999999761
578002,7367,-4129,125459,-4176,-5126,127016,62,19240,205,1,48961,0.0009990000000000832
579000,5787,-1045,126913,962,1213,127164,72,19236,254,0,48962,0.0009979999999999434
580000,11188,3766,128786,4732,4001,126759,72,19234,295,0,48963,0.0010000000000000009
581000,9660,6481,127791,-8334,5018,123843,69,19236,283,0,48964,0.0010000000000000009
582000,6857,2026,128668,-1077,418,127992,57,19237,233,0,48965,0.0010000000000000009
583000,9765,842,127342,5869,-407,126010,66,19237,270,0,48966,0.0010000000000000009
584000,8662,-6024,125327,-847,-5798,128343,88,19236,270,1,48967,0.0010000000000000009
585000,4505,4143,128968,-8141,4624,123973,61,19239,360,1,48968,0.0010000000000000009
586000,7873,3321,126794,-535,3031,127765,61,19237,250,1,48969,0.0010000000000000009
587000,12624,8288,127714,5932,8307,123146,53,19238,217,1,48970,0.0010000000000000009
588000,6202,4087,127104,-3369,605,124548,57,19237,233,1,48971,0.0010000000000000009
589003,5429,-10012,125173,-9447,-11272,131039,91,19236,373,0,48972,0.0010029999999999761
590001,11146,-1154,129846,6984,-983,129465,69,19236,373,0,48973,0.0009980000000000544
591000,7852,-1078,127110,-765,-1530,128087,61,19233,283,0,48974,0.0009989999999999721
592000,2394,11841,127376,-12493,11064,118233,61,19237,250,0,48975,0.0010000000000000009
593000,10090,1711,126881,5361,-550,130937,62,19235,254,0,48976,0.0010000000000000009
594000,6920,-108,125015,2791,-762,124582,89,19240,365,1,48977,0.0010000000000000009
595000,8073,5344,129070,-13052,3632,122684,59,19237,242,1,48978,0.0010000000000000009
596000,10903,-1895,129691,6199,-2694,130064,56,19237,242,1,48979,0.0010000000000000009
597000,7510,-2190,127904,6936,-3698,129793,57,19239,229,1,48980,0.0010000000000000009
598000,3914,-5631,128658,-17274,-6008,129834,57,19238,233,0,48981,0.0010000000000000009
599000,830,6591,126715,3814,5406,122749,84,19236,344,0,48982,0.0010000000000000009
600000,8371,5291,127113,-598,3713,128099,73,19234,299,0,48983,0.0010000000000000009
601000,9343,5730,127646,-15940,5507,121372,67,19239,274,0,48984,0.0010000000000000009
602000,7701,-1149,126825,8333,-2032,128637,61,19239,274,0,48985,0.0010000000000000009
603000,9791,-3833,127594,6569,-5030,129565,79,19237,250,0,48986,0.0010000000000000009
604000,5422,-4917,128017,-13823,-5639,127786,79,19230,324,1,48987,0.0010000000000000009
605000,5510,312,128660,-3154,-1278,129925,64,19239,262,1,48988,0.0010000000000000009
606000,7170,5829,128746,9215,5198,124807,58,19240,238,1,48989,0.0010000000000000009
607000,10804,-135,127276,-11778,-492,126869,55,19238,225,1,48990,0.0010000000000000009
608000,7297,-921,126581,-2276,-1754,124130,71,19238,225,0,48991,0.0010000000000000009
609000,4727,-2788,127068,12141,-4575,130536,69,19236,291,0,48992,0.0010000000000000009
610000,11744,2349,129071,-8277,2344,124728,69,19236,283,0,48993,0.0010000000000000009
611000,6811,1109,128320,-6406,167,128837,68,19234,279,0,48994,0.0010000000000000009
612000,10222,-3595,126217,10060,-4111,127251,57,19236,233,0,48995,0.0010000000000000009
613000,9539,-3413,127995,1772,-2835,128595,74,19236,303,1,48996,0.0010000000000000009
614000,7259,-5504,126377,-9711,-3733,127684,64,19236,303,1,48997,0.0010000000000000009
615000,8240,3160,128081,-286,4693,126010,65,19235,262,1,48998,0.0010000000000000009
616001,7672,5301,129253,5514,2570,126850,65,19240,266,1,48999,0.0010010000000000296
617000,11667,-911,127610,-6694,-3904,128222,56,19237,229,1,49000,0.0009989999999999721
618002,5249,-6060,126067,-1495,-6491,128820,62,19233,254,0,49001,0.0010019999999999474
619001,8023,612,127823,4896,2403,124998,91,19237,373,0,49002,0.0009990000000000832
620002,12417,2827,127716,-6537,1268,125511,71,19237,291,0,49003,0.0010009999999999186
621002,8579,435,128881,-3156,-773,127926,62,19237,291,0,49004,0.0010000000000000009
622000,10183,-1989,127771,10637,-4693,129741,67,19238,254,0,49005,0.0009980000000000544
623000,9774,-1788,127567,110,-2386,127209,67,19232,274,1,49006,0.0010000000000000009
624000,8396,-1634,127846,-6853,-3596,127981,70,19240,287,1,49007,0.0010000000000000009
625001,9886,-1360,127513,7139,440,126998,64,19237,262,1,49008,0.0010009999999999186
626001,13128,8731,129019,6056,8291,123632,56,19237,229,1,49009,0.0010000000000000009
627000,11855,2806,127410,-6567,-792,126558,58,19240,229,1,49010,0.0009990000000000832
628000,4489,-2209,127402,-932,-2606,129424,86,19239,238,0,49011,0.0010000000000000009
629002,8222,-3789,128524,7424,-3391,132508,86,19237,352,0,49012,0.0010019999999999474
630002,9846,3258,129016,-5803,4510,123007,73,19236,299,0,49013,0.0010000000000000009
631002,7836,1721,129042,-3190,-1331,127726,64,19240,262,0,49014,0.0010000000000000009
632000,10506,-4642,126666,8517,-4111,129209,59,19240,242,0,49015,0.0009980000000000544
633000,11504,3240,127569,-1306,3094,123561,83,19236,242,1,49016,0.0010000000000000009
634002,6844,1912,126722,-5662,898,126662,58,19236,340,1,49017,0.0010019999999999474
635000,7624,4774,127757,5826,4324,123430,58,19239,238,1,49018,0.0009980000000000544
636000,10956,1462,128790,1347,36,130866,53,19238,217,1,49019,0.0010000000000000009
637000,11910,-1658,126892,-5117,-2841,125696,53,19235,217,1,49020,0.0010000000000000009
638000,6008,486,127636,5647,-515,126730,72,19233,295,0,49021,0.0010000000000000009
639000,9608,321,127164,2995,-1527,128159,68,19233,295,0,49022,0.0010000000000000009
640002,10209,6149,127999,-6669,5845,122815,65,19239,279,0,49023,0.0010019999999999474
641000,7271,3645,128275,-2967,2342,128313,65,19241,266,0,49024,0.0009980000000000544
642003,8524,1878,126510,6831,1060,124244,60,19237,246,0,49025,0.0010029999999999761
643000,6622,212,128146,-3009,-704,126946,77,19228,315,1,49026,0.0009970000000000256
644000,4039,-2616,127665,-10336,-3190,129743,57,19239,233,1,49027,0.0010000000000000009
645000,7619,-626,126629,4529,-1752,127540,56,19239,233,1,49028,0.0010000000000000009
646000,10424,11720,128789,7617,11817,122743,53,19243,229,1,49029,0.0010000000000000009
647000,12561,12077,127192,-12551,11561,120208,53,19240,217,1,49030,0.0010000000000000009
648000,4559,-9675,125975,5753,-10843,133113,68,19232,279,0,49031,0.0010000000000000009
649000,8292,-1248,129670,-3585,-1557,127946,77,19241,315,0,49032,0.0010000000000000009
650000,11559,2357,129158,-3727,2107,125674,65,19239,266,0,49033,0.0010000000000000009
651004,1116,-4824,127731,3533,-5823,131100,56,19239,266,0,49034,0.0010039999999998939
652000,8948,3039,125934,-2457,1625,124984,67,19236,229,0,49035,0.000996000000000108
653002,6226,12798,126597,-5576,11774,120679,67,19231,274,1,49036,0.0010019999999999474
654000,12384,10364,127964,-8354,10025,120768,71,19240,291,1,49037,0.0009980000000000544
655000,7061,-10478,126338,16032,-10478,133394,62,19238,254,1,49038,0.0009999999999998899
656000,8457,-3645,129219,-2695,-5494,129976,52,19237,213,1,49039,0.0010000000000000009
657000,7417,2789,129277,-17857,2894,128885,62,19237,213,1,49040,0.0010000000000000009
658000,1521,-4980,126865,13005,-6761,130424,79,19235,254,0,49041,0.0010000000000000009
659002,10468,5172,127758,-867,3901,120827,79,19241,324,0,49042,0.0010020000000000584
660000,4670,8551,126891,-14537,8302,123519,73,19237,299,0,49043,0.0009979999999999434
661000,9470,1667,127583,-5504,382,127700,65,19238,266,0,49044,0.0010000000000000009
662000,8140,-8423,126830,14215,-10898,133045,67,19234,274,0,49045,0.0010000000000000009
663002,5650,-2851,128529,-4581,1123,124261,96,19234,274,1,49046,0.0010020000000000584
664002,3269,3788,129415,-15678,-2035,128929,61,19239,393,1,49047,0.0010000000000000009
665000,5755,-7297,127741,9666,-5273,132704,61,19239,250,1,49048,0.0009979999999999434
666000,15114,6890,128363,-6674,8791,118741,54,19238,221,1,49049,0.0010000000000000009
667000,5174,4688,126706,741,426,125773,58,19237,238,1,49050,0.0010000000000000009
668000,6074,-2367,126966,-2797,-4897,128780,88,19236,360,0,49051,0.0010000000000000009
669000,10214,-5982,127986,2264,-5671,133023,75,19236,307,0,49052,0.0010000000000000009
670000,8821,4724,129026,-5041,7161,122729,62,19239,307,0,49053,0.0010000000000000009
671000,7686,5772,128066,4126,-10,124890,60,19238,254,0,49054,0.0010000000000000009
672000,8207,-9654,126843,-615,-10181,133547,60,19234,246,1,49055,0.0010000000000000009
673000,12583,-4450,127814,-4966,-2132,126165,85,19235,348,1,49056,0.0010000000000000009
674000,5029,6985,128458,4678,6152,123220,63,19237,258,1,49057,0.0010000000000000009
675001,8122,4168,129430,-4762,724,127690,61,19237,250,1,49058,0.0010010000000000296
676000,9276,-8227,126930,-953,-9255,132181,55,19239,250,1,49059,0.0009989999999999721
677000,6631,-900,127975,908,1212,127129,75,19237,225,1,49060,0.0010000000000000009
678000,8381,2701,126317,6222,2047,124485,75,19230,307,0,49061,0.0010000000000000009
679000,9533,-3247,126616,-4622,-1174,126656,70,19234,287,0,49062,0.0010000000000000009
680003,14481,-44,127887,-4503,-370,127644,69,19240,283,0,49063,0.0010030000000000872
681002,8735,2646,127568,11251,2445,124996,59,19240,242,0,49064,0.0009989999999999721
682001,10739,-3029,128384,478,-5833,131457,73,19236,242,1,49065,0.0009989999999999721
683002,6147,-8934,126968,-7304,-9054,128641,60,19236,299,1,49066,0.0010010000000000296
684001,7641,3925,128881,2266,4544,126646,60,19236,246,1,49067,0.0009989999999999721
685002,11117,5614,128383,8574,4676,125410,61,19237,250,1,49068,0.0010010000000000296
686000,12342,3274,127049,-4047,2403,123375,54,19238,221,1,49069,0.0009979999999999434
687000,9253,-5041,126989,-2970,-5754,129189,66,19231,270,0,49070,0.0010000000000000009
688000,6436,2124,128239,9669,2010,125009,68,19231,270,0,49071,0.0010000000000000009
689000,11584,-649,128925,-2476,-2275,130900,70,19236,279,0,49072,0.0010000000000000009
690000,5740,-3482,127736,-8405,-3792,127082,70,19238,287,0,49073,0.0010000000000000009
691000,9371,3982,128232,4624,3203,126221,58,19238,238,0,49074,0.0010000000000000009
692000,12089,-451,125926,6932,-1439,128103,66,19233,270,1,49075,0.0010000000000000009
693000,7379,2199,127141,-8196,1647,123499,78,19236,319,1,49076,0.0010000000000000009
694000,9089,1106,126443,-2105,-50,128384,60,19236,319,1,49077,0.0010000000000000009
695000,12188,10594,128974,8896,10115,122749,50,19236,246,1,49078,0.0010000000000000009
696000,12547,-284,128004,974,-1087,130372,50,19240,205,1,49079,0.0010000000000000009
697000,5115,-5557,126795,-5551,-6727,126636,56,19235,229,0,49080,0.0010000000000000009
698000,7166,3623,128587,4233,2498,125625,76,19235,311,0,49081,0.0010000000000000009
699000,10768,4315,128498,1355,3604,128263,69,19232,283,0,49082,0.0010000000000000009
700000,8043,4686,127929,-9426,4227,122520,59,19232,283,0,49083,0.0010000000000000009
701000,8308,-2836,126197,5023,-3121,129153,60,19240,242,0,49084,0.0010000000000000009
702000,11380,3341,126674,6360,2090,122625,60,19232,246,1,49085,0.0010000000000000009
703000,5971,-1615,127096,-8019,-1214,129296,89,19241,365,1,49086,0.0010000000000000009
704000,5068,-132,126645,-6179,-3332,122648,60,19240,246,1,49087,0.0010000000000000009
705000,10008,10182,129069,725,10577,127309,54,19243,221,1,49088,0.0010000000000000009
706000,10046,619,126256,4998,-279,123359,57,19243,221,1,49089,0.0010000000000000009
707004,4175,1638,126795,-4457,-4415,129965,82,19236,233,0,49090,0.0010040000000000049
708000,9733,-8520,126847,-5926,-1478,127938,82,19234,336,0,49091,0.0009959999999999969
709000,10254,13610,129860,3750,11464,121993,69,19236,283,0,49092,0.0010000000000000009
710000,5934,-5845,127269,-5995,-9151,130833,62,19238,254,0,49093,0.0010000000000000009
711000,3014,-866,128024,-1700,1304,126778,58,19236,238,0,49094,0.0010000000000000009
712000,7241,-7051,125912,8430,-8894,132552,84,19236,344,1,49095,0.0010000000000000009
713000,1932,18398,128354,-19838,20145,110791,61,19235,344,1,49096,0.0010000000000000009
714000,14628,6444,128760,9158,-3740,133307,59,19240,250,1,49097,0.0010000000000000009
715000,10208,-6112,127514,14593,-5102,129389,59,19241,242,1,49098,0.0010000000000000009
716001,7507,-5288,126931,-21681,-9502,129489,53,19242,217,1,49099,0.0010010000000000296
717000,2747,-4593,127482,555,166,126355,76,19233,311,0,49100,0.0009989999999999721
718000,4710,10057,128853,10450,6958,127416,72,19233,295,0,49101,0.0010000000000000009
719003,10341,396,127461,-19491,1612,126167,71,19237,295,0,49102,0.0010029999999999761
720001,2867,9924,126998,-2563,7338,119478,60,19239,291,0,49103,0.0009980000000000544
721002,10294,-6120,125893,10195,-9145,133695,60,19237,246,0,49104,0.0010009999999999186
722002,8578,-1999,127531,-6509,228,122784,75,19228,307,1,49105,0.0010000000000000009
723000,4141,-1655,130112,-7210,-4145,131403,82,19240,336,1,49106,0.0009980000000000544
724000,5720,912,127846,8069,1730,126992,60,19240,246,1,49107,0.0010000000000000009
725000,8868,1745,129076,-8433,-1106,126940,51,19239,246,1,49108,0.0010000000000000009
726000,11650,-3610,125980,-1037,-2400,125984,66,19235,209,1,49109,0.0010000000000000009
727000,3715,4327,127307,7470,3183,123501,66,19234,270,0,49110,0.0010000000000000009
728001,11446,-2396,126287,-7895,-2547,131259,79,19235,324,0,49111,0.0010010000000000296
729001,10112,2764,129599,-3449,4620,123914,70,19238,287,0,49112,0.0010000000000000009
730001,8671,-383,126922,6745,-3244,131111,61,19236,250,0,49113,0.0010000000000000009
731003,7428,-3178,126692,1898,-3365,125238,68,19236,250,0,49114,0.0010019999999999474
732000,8813,-8076,127517,-8436,-9369,132662,75,19232,279,1,49115,0.0009970000000000256
733000,9861,-538,128560,1252,1164,124360,75,19238,307,1,49116,0.0010000000000000009
734000,6825,12111,130063,4942,9908,122609,66,19235,270,1,49117,0.0010000000000000009
735000,10664,-4284,127753,-5558,-5272,130993,56,19239,229,1,49118,0.0010000000000000009
736000,6541,-2041,126839,-1599,-2690,126066,60,19234,246,1,49119,0.0010000000000000009
737000,7483,-5337,128062,4534,-6008,132374,93,19234,246,0,49120,0.0010000000000000009
738001,10402,5906,128439,3543,5752,121090,73,19237,381,0,49121,0.0010010000000000296
739001,10796,-1605,128810,-6543,-2273,129917,73,19239,299,0,49122,0.0010000000000000009
740003,10958,-496,127742,704,-878,126106,63,19237,258,0,49123,0.0010019999999999474
741000,9651,949,128160,10694,-471,127137,62,19236,254,0,49124,0.0009970000000000256
742000,9614,-5971,127070,-5333,-7032,131568,86,19243,352,1,49125,0.0010000000000000009
743000,7134,1829,127998,-4099,1397,123073,63,19243,352,1,49126,0.0010000000000000009
744000,9345,2847,128239,6363,1473,131470,57,19236,258,1,49127,0.0010000000000000009
745000,11223,8179,127393,1630,7025,121614,57,19238,233,1,49128,0.0010000000000000009
746000,9908,-3756,126060,-5036,-4805,129403,55,19240,225,1,49129,0.0010000000000000009
747001,8359,-311,128430,3464,-1113,126484,80,19235,328,0,49130,0.0010009999999999186
748000,10906,2896,128889,6126,2371,126630,72,19237,295,0,49131,0.0009990000000000832
749000,9842,-1149,129321,-9962,-1095,130260,66,19237,295,0,49132,0.0010000000000000009
750000,6777,-818,127686,596,-1634,124891,60,19240,270,0,49133,0.0010000000000000009
751000,10901,-2465,127470,8943,-3152,129269,60,19236,246,0,49134,0.0010000000000000009
752000,8960,849,126746,-4947,-303,123380,78,19233,319,1,49135,0.0010000000000000009
753000,7712,3445,127478,-4924,2275,127094,60,19240,246,1,49136,0.0010000000000000009
754000,10262,7050,128016,6489,5608,123974,58,19240,238,1,49137,0.0010000000000000009
755000,12322,2609,127768,740,4099,128234,51,19240,238,1,49138,0.0010000000000000009
756004,8235,-6269,126164,-3461,-6971,128803,70,19241,209,0,49139,0.0010040000000000049
757000,5295,-553,128092,4365,704,126692,70,19234,287,0,49140,0.0009959999999999969
758000,11710,3302,128317,1773,3705,126617,68,19238,279,0,49141,0.0010000000000000009
759000,7668,5457,127594,-7453,5481,123961,65,19240,266,0,49142,0.0010000000000000009
760000,8604,2440,127155,5561,111,127212,57,19237,233,0,49143,0.0010000000000000009
761003,10108,148,127151,2410,-296,125992,72,19237,295,0,49144,0.0010029999999999761
762002,6417,-1996,127825,-8453,-6940,128707,76,19234,295,1,49145,0.0009989999999999721
763000,6363,-6567,125051,4535,-2266,125719,62,19235,311,1,49146,0.0009980000000000544
764000,7109,17723,129339,781,17161,121363,62,19240,254,1,49147,0.0010000000000000009
765000,14134,-875,124910,-5650,-5482,130298,52,19240,213,1,49148,0.0010000000000000009
766000,3101,2209,126384,1510,3477,121775,63,19236,258,0,49149,0.0010000000000000009
767000,7068,-1799,128785,-3430,-4818,130826,81,19236,332,0,49150,0.0010000000000000009
768004,9746,1056,128556,-1821,-118,126123,69,19239,332,0,49151,0.0010040000000000049
769000,5228,-5472,127153,-4595,-7106,132703,60,19238,283,0,49152,0.0009959999999999969
770000,6183,6757,126864,4417,9188,120745,60,19237,246,0,49153,0.0010000000000000009
771000,6181,12194,125201,-7011,9351,121279,64,19235,262,1,49154,0.0010000000000000009
772000,11123,-404,127586,-10752,-3094,129011,86,19237,352,1,49155,0.0010000000000000009
773000,7377,-4633,125627,16127,-3973,128633,60,19238,246,1,49156,0.0010000000000000009
774000,8243,1165,130036,-3735,1103,128645,55,19238,246,1,49157,0.0009999999999998899
775000,8409,1555,127969,-14300,145,123697,62,19238,225,1,49158,0.0010000000000000009
776000,4728,-7750,127314,5025,-9267,134241,62,19238,254,0,49159,0.0010000000000000009
777001,4305,5006,128126,6753,7184,124584,92,19232,377,0,49160,0.0010010000000000296
778000,5368,7623,126850,-16573,6227,122493,74,19235,303,0,49161,0.0009989999999999721
779001,8800,61,125619,-10055,445,123938,66,19235,270,0,49162,0.0010010000000000296
780000,9595,131,129103,18154,-1893,130274,63,19235,270,0,49163,0.0009989999999999721
781003,9130,-5451,125896,-3080,-5450,128797,89,19237,258,1,49164,0.0010030000000000872
782000,2708,-57,129589,-17201,-1337,125714,89,19230,365,1,49165,0.0009969999999999146
783005,6235,-6653,126744,6331,-7604,134151,62,19240,254,1,49166,0.0010050000000000336
784003,11164,9050,129011,593,9477,121928,57,19239,233,1,49167,0.0009980000000000544
785001,10783,4592,127362,-8291,2852,124222,56,19238,229,1,49168,0.0009979999999999434
786000,5611,-6441,125609,3988,-7816,128771,77,19238,229,0,49169,0.0009989999999999721
787000,5349,-4394,128436,3463,-5740,130893,72,19233,315,0,49170,0.0010000000000000009
788001,11528,4064,129625,-9275,4002,125043,72,19236,295,0,49171,0.0010010000000000296
789000,7320,7571,128701,1463,6222,123661,68,19241,279,0,49172,0.0009989999999999721
790000,6558,-7990,126622,7444,-9054,132006,59,19236,242,0,49173,0.0010000000000000009
791001,11183,-3577,126837,-8291,-4269,126275,83,19232,340,1,49174,0.0010010000000000296
792000,7876,438,128744,-465,408,126864,62,19232,340,1,49175,0.0009989999999999721
793001,7279,3178,128647,5200,2250,125378,65,19235,254,1,49176,0.0010010000000000296
794000,9936,-317,129247,-4986,-276,129527,65,19238,266,1,49177,0.0009989999999999721
795000,9680,1001,127598,-2129,-726,129043,54,19238,221,1,49178,0.0010000000000000009
796001,6324,-2117,125927,4094,-2585,125433,68,19236,279,0,49179,0.0010010000000000296
797000,7831,-687,127576,612,-2747,127225,84,19235,344,0,49180,0.0009989999999999721
798000,13283,2932,128429,-4786,3380,128160,69,19235,344,0,49181,0.0010000000000000009
799000,8721,-772,128377,902,-2352,127197,59,19237,283,0,49182,0.0010000000000000009
800000,9400,1340,129033,5132,1138,128717,59,19237,242,0,49183,0.0010000000000000009
801000,9451,-8788,126671,969,-10089,130769,68,19230,279,1,49184,0.0010000000000000009
802000,8396,3183,128224,-4358,686,123601,60,19241,246,1,49185,0.0010000000000000009
803001,9640,2058,127606,5001,482,129445,65,19237,266,1,49186,0.0010010000000000296
804000,14225,3988,127847,4777,4820,122627,54,19237,221,1,49187,0.0009989999999999721
805000,11788,398,126402,-3330,-3128,127178,63,19239,221,1,49188,0.0010000000000000009
806001,6292,-1295,127073,1291,-21,126762,77,19230,258,0,49189,0.0010010000000000296
807000,9981,-647,129282,2212,-3799,131414,77,19236,315,0,49190,0.0009989999999999721
808000,9814,-3425,128564,-9367,-1338,127021,74,19235,303,0,49191,0.0010000000000000009
809000,7757,6575,128985,3404,4833,123804,59,19237,242,0,49192,0.0010000000000000009
810000,9682,-1779,127196,7797,-4648,129790,62,19237,254,0,49193,0.0010000000000000009
811000,10609,-1036,126521,-6985,-1787,124525,94,19236,254,1,49194,0.0010000000000000009
812000,5960,2870,128599,-2934,-1593,124972,62,19239,385,1,49195,0.0010000000000000009
813000,9340,7878,128164,7545,7769,125282,62,19240,254,1,49196,0.0010000000000000009
814002,11848,6031,129868,-158,2011,126315,51,19240,209,1,49197,0.0010020000000000584
815000,9503,-7652,125961,-7220,-8961,131038,53,19237,217,1,49198,0.0009979999999999434
816000,7012,-190,127336,7088,791,125327,80,19237,328,0,49199,0.0010000000000000009
817001,10500,3929,127750,4190,2864,127031,69,19237,328,0,49200,0.0010010000000000296
818000,10599,1882,126702,-12410,1526,125112,65,19236,283,0,49201,0.0009989999999999721
819000,7191,4136,127132,3066,3882,124452,65,19239,266,0,49202,0.0010000000000000009
820000,10615,3353,126833,9204,2037,128022,59,19236,242,0,49203,0.0010000000000000009
821002,7465,-1936,126229,-10731,-2119,125526,84,19233,344,1,49204,0.0010020000000000584
822000,4345,537,129720,-6633,358,127910,61,19241,250,1,49205,0.0009979999999999434
823000,5712,2212,128141,7235,972,128575,57,19241,250,1,49206,0.0010000000000000009
824000,11051,-2071,125342,-2584,-1578,124337,53,19240,233,1,49207,0.0010000000000000009
825000,8073,11733,128691,-517,11160,120609,53,19240,217,1,49208,0.0010000000000000009
826000,8894,-4923,124824,-2216,-7700,131669,76,19232,311,0,49209,0.0010000000000000009
827000,9584,5307,130956,-2479,7249,121793,70,19238,287,0,49210,0.0010000000000000009
828000,10048,-4902,127441,-2733,-7753,133894,63,19239,258,0,49211,0.0010000000000000009
829000,-184,-5316,126364,3396,-5592,125711,57,19239,258,0,49212,0.0010000000000000009
830000,4887,-1898,126256,-5740,-4412,131061,73,19241,233,0,49213,0.0010000000000000009
831000,9388,8369,125517,-9483,9480,119957,73,19235,299,1,49214,0.0010000000000000009
832000,7937,17328,128179,931,15810,119075,58,19236,238,1,49215,0.0010000000000000009
833000,10618,-7221,126768,6778,-8638,133618,63,19237,258,1,49216,0.0010000000000000009
834000,6977,-4040,125857,-7896,-5456,125546,53,19238,217,1,49217,0.0010000000000000009
835000,6620,-4486,130455,-6019,-4911,131915,69,19238,217,0,49218,0.0010000000000000009
836000,2121,3456,127383,9166,1982,124797,70,19230,283,0,49219,0.0010000000000000009
837000,8182,49,128008,-5577,-1244,130007,70,19235,287,0,49220,0.0010000000000000009
838000,5933,9065,126564,-18363,8329,119919,71,19236,291,0,49221,0.0010000000000000009
839000,8357,5296,127325,8683,5132,123915,62,19238,254,0,49222,0.0010000000000000009
840000,10876,-5371,126782,4011,-6516,130874,73,19230,299,0,49223,0.0010000000000000009
841000,4888,-3194,128406,-7699,-3539,126801,104,19230,299,1,49224,0.0010000000000000009
842001,5548,-3539,128114,-7904,-5340,131565,62,19238,426,1,49225,0.0010010000000000296
843000,7717,5290,129678,9591,4670,124681,62,19240,254,1,49226,0.0009989999999999721
844000,12251,-4415,125898,-5081,-5788,130457,53,19242,217,1,49227,0.0010000000000000009
845000,6294,6970,126215,-4753,4098,119963,62,19233,254,0,49228,0.0010000000000000009
846000,3723,-4754,126475,576,-6459,132080,86,19236,352,0,49229,0.0010000000000000009
847000,13422,1441,129723,-1470,1277,124343,69,19236,283,0,49230,0.0010000000000000009
848000,5868,396,127787,-3562,261,129924,60,19236,283,0,49231,0.0010000000000000009
849000,8081,-2504,128252,2520,-3993,127045,60,19236,246,0,49232,0.0010000000000000009
850000,10109,-3965,127786,2732,-6839,129293,63,19236,258,1,49233,0.0010000000000000009
851000,9486,-4391,128070,-5135,-129,126730,81,19238,332,1,49234,0.0010000000000000009
852003,7773,8645,128430,-1410,7522,121460,67,19236,274,1,49235,0.0010029999999999761
853002,6947,1633,129236,1713,-2102,131163,59,19236,242,1,49236,0.0009989999999999721
854002,11327,-4195,128262,-4685,-5121,128791,57,19241,242,1,49237,0.0010000000000000009
855000,4347,-4996,127144,3943,-6179,130063,81,19237,233,0,49238,0.0009980000000000544
856000,7567,2191,127649,2269,3399,124159,81,19235,332,0,49239,0.0010000000000000009
857000,11652,1746,127017,-5117,-1016,126980,72,19237,295,0,49240,0.0010000000000000009
858000,11039,-870,127364,-1111,547,126571,63,19236,258,0,49241,0.0010000000000000009
859000,10673,3317,127661,10290,1042,125476,59,19236,242,0,49242,0.0010000000000000009
860000,9672,-3549,127601,-3065,-5370,129917,81,19236,242,1,49243,0.0010000000000000009
861000,8312,-1868,128053,-5491,-4950,128072,64,19234,332,1,49244,0.0010000000000000009
862000,8241,202,128092,8193,-326,128471,64,19240,262,1,49245,0.0010000000000000009
863000,13002,9547,129187,4290,8975,122436,61,19240,250,1,49246,0.0010000000000000009
864000,12564,-506,126819,-5176,-3495,126465,54,19236,221,1,49247,0.0010000000000000009
865000,8661,-2251,127305,2192,-1016,126352,73,19236,299,0,49248,0.0010000000000000009
866000,8876,1244,128548,8479,153,129113,70,19232,299,0,49249,0.0010000000000000009
867000,9978,692,129180,-7139,1033,126717,67,19237,287,0,49250,0.0010000000000000009
868000,6714,-690,128884,-5265,-1975,128734,67,19240,274,0,49251,0.0010000000000000009
869000,9017,-2455,127939,10215,-2801,128280,56,19238,229,0,49252,0.0010000000000000009
870000,11477,1813,126833,140,1192,125981,72,19230,295,1,49253,0.0010000000000000009
871000,6816,-454,125877,-9140,-925,126143,60,19235,246,1,49254,0.0010000000000000009
872000,9494,6061,127739,6018,6141,123234,58,19235,246,1,49255,0.0010000000000000009
873000,13196,4899,128442,4550,3419,128151,48,19237,238,1,49256,0.0010000000000000009
874000,10467,-1738,127126,-3863,-2957,126585,48,19239,197,1,49257,0.0010000000000000009
875000,4896,-4564,127358,876,-5697,129593,62,19234,254,0,49258,0.0010000000000000009
876000,9141,858,127286,3793,59,126889,66,19236,270,0,49259,0.0010000000000000009
877000,10426,7824,128596,-3061,6975,123587,66,19231,270,0,49260,0.0010000000000000009
878011,6900,1710,127608,-6341,216,126534,57,19231,270,0,49261,0.0010109999999999841
879000,8290,545,127933,6489,-1016,124544,66,19238,233,0,49262,0.0009890000000000176
880001,7742,23,128015,-1418,-1294,129260,66,19235,270,1,49263,0.0010009999999999186
881000,5987,-7769,124513,-6821,-8249,128596,83,19241,340,1,49264,0.0009990000000000832
882000,5078,9640,128531,5755,8774,120610,63,19241,258,1,49265,0.0010000000000000009
883000,15179,5022,126489,-2651,4513,130473,53,19240,217,1,49266,0.0010000000000000009
884000,6977,4530,125540,1289,3437,120761,61,19240,217,1,49267,0.0010000000000000009
885000,4864,579,128252,-6384,-67,128562,92,19234,250,0,49268,0.0010000000000000009
886000,9295,-6143,127139,1249,-7035,129635,92,19235,377,0,49269,0.0010000000000000009
887000,7247,-594,129460,-1596,-1172,128821,69,19240,283,0,49270,0.0010000000000000009
888000,7427,220,128299,-5108,-1176,128084,59,19239,242,0,49271,0.0010000000000000009
889001,3881,14557,126812,6630,13678,118415,60,19235,246,0,49272,0.0010009999999999186
890000,10165,-1631,127344,-9747,-1994,129295,92,19235,246,1,49273,0.0009990000000000832
891000,7319,4221,126528,-5687,3600,120257,61,19241,377,1,49274,0.0010000000000000009
892000,10100,-4050,128564,12686,-5052,133637,61,19236,250,1,49275,0.0010000000000000009
893000,8580,5263,129272,-3926,3656,122673,54,19240,221,1,49276,0.0009999999999998899
894001,5266,-7615,127370,-9371,-7284,134650,56,19237,229,1,49277,0.0010010000000000296
895000,3518,2506,127322,1305,-3227,120629,83,19235,340,0,49278,0.0009989999999999721
896000,10153,3711,128023,4904,4570,128413,77,19235,315,0,49279,0.0010000000000000009
897000,7540,324,125640,-13163,3258,121697,66,19238,315,0,49280,0.0010000000000000009
898000,6409,7527,128455,-4238,2059,126697,64,19238,270,0,49281,0.0010000000000000009
899000,10724,-5904,127784,10435,-5533,131778,64,19237,262,0,49282,0.0010000000000000009
900000,3946,1909,128995,-3221,-809,124533,82,19231,336,1,49283,0.0010000000000000009
901000,4758,-9246,128356,-16757,-9710,133888,64,19243,262,1,49284,0.0010000000000000009
902000,8366,4936,129497,14103,9078,121574,59,19243,242,1,49285,0.0010000000000000009
903000,10205,3480,129064,-10385,-3033,129275,57,19237,242,1,49286,0.0010000000000000009
904000,7213,-2147,126411,-8039,556,121912,77,19237,233,1,49287,0.0010000000000000009
905000,3970,934,128090,12910,-3383,132079,77,19231,315,0,49288,0.0010000000000000009
906000,11719,-1593,127160,-3318,1602,127131,68,19235,279,0,49289,0.0010000000000000009
907000,8621,6947,128801,-15931,4144,122438,66,19238,270,0,49290,0.0010000000000000009
908002,10464,-5162,128116,13358,-6582,132687,57,19238,233,0,49291,0.0010020000000000584
909000,9928,-2050,127005,10457,-2886,125786,75,19239,233,1,49292,0.0009979999999999434
910000,6057,-5885,127733,-20028,-6067,129993,57,19231,307,1,49293,0.0010000000000000009
911000,6808,4254,127690,2055,3595,123163,57,19237,233,1,49294,0.0010000000000000009
912000,4868,9946,129771,9360,4768,128452,63,19240,258,1,49295,0.0010000000000000009
913000,12532,1700,128247,-12978,1984,126726,55,19239,225,1,49296,0.0010000000000000009
914000,5837,-3536,127350,4337,-6152,126345,64,19231,262,1,49297,0.0010000000000000009
915000,7355,-7247,127442,7637,-6425,131522,85,19231,262,0,49298,0.0010000000000000009
916000,13149,5288,128858,-8461,6027,121003,70,19237,348,0,49299,0.0010000000000000009
917000,9940,314,128449,-474,-1750,129768,70,19236,287,0,49300,0.0010000000000000009
918000,9159,-177,127149,6750,-920,127222,64,19235,262,0,49301,0.0010000000000000009
919000,9013,-3313,127947,-1416,-4981,128737,67,19234,274,1,49302,0.0010000000000000009
920000,10806,-2655,127785,-3355,-2990,128730,68,19236,279,1,49303,0.0010000000000000009
921000,7785,607,127649,7953,-190,126252,64,19236,279,1,49304,0.0010000000000000009
922000,10914,3598,129101,-1337,3129,126871,57,19237,262,1,49305,0.0010000000000000009
923000,14114,2886,126693,47,2081,124462,57,19236,233,1,49306,0.0010000000000000009
924000,6405,-1381,126907,3067,-2324,127524,58,19235,238,0,49307,0.0010000000000000009
925000,7801,-1241,128571,320,-2045,128204,85,19239,348,0,49308,0.0010000000000000009
926000,9209,-842,127987,-1214,-1455,128178,73,19240,299,0,49309,0.0010000000000000009
927000,9338,1899,129459,-4958,1001,127113,62,19240,299,0,49310,0.0010000000000000009
928000,9751,-1719,127087,7033,-2308,126172,60,19239,254,0,49311,0.0010000000000000009
929000,11928,-2994,126630,5186,-3991,127850,60,19236,246,1,49312,0.0010000000000000009
930000,7765,619,127125,-8331,-341,126632,87,19237,356,1,49313,0.0010000000000000009
931000,7345,6497,126729,-876,5401,123788,63,19235,258,1,49314,0.0010000000000000009
932000,10788,3331,128437,6262,2680,128027,55,19240,225,1,49315,0.0010000000000000009
933004,11407,-1561,126268,-3467,-2546,126459,53,19240,225,1,49316,0.0010040000000000049
934000,7171,-701,127229,-2903,-1903,127461,77,19235,217,0,49317,0.0009959999999999969
935002,6530,-843,127930,7720,-2296,128353,77,19233,315,0,49318,0.0010020000000000584
936000,11209,3169,127520,-1900,2670,125599,69,19236,283,0,49319,0.0009979999999999434
937000,6813,6461,127615,-9615,5083,123915,62,19237,254,0,49320,0.0010000000000000009
938003,9015,3758,127091,5736,3818,124783,60,19236,246,0,49321,0.0010029999999999761
939000,10171,-4054,126905,5231,-3955,129101,81,19236,332,1,49322,0.0009970000000000256
940000,3148,908,128637,-12160,189,126565,57,19231,332,1,49323,0.0010000000000000009
941000,5954,153,127249,-3550,-963,128980,57,19236,233,1,49324,0.0010000000000000009
942000,10140,-347,125838,8274,-1710,122634,57,19241,233,1,49325,0.0010000000000000009
943000,11464,12069,128118,-533,10727,122202,53,19236,217,1,49326,0.0010000000000000009
944002,8512,-2390,124416,-10299,-8081,131320,71,19235,291,0,49327,0.0010020000000000584
945000,4906,1412,129473,6014,8054,124253,68,19235,279,0,49328,0.0009979999999999434
946000,12778,-1218,127327,-3342,-5698,133640,65,19234,279,0,49329,0.0010000000000000009
947001,1492,-2579,127758,-3555,-761,124535,57,19240,266,0,49330,0.0010010000000000296
948002,4040,-1459,126429,1735,-5922,131521,57,19237,233,0,49331,0.0010010000000000296
949002,9837,4488,126094,-7807,13279,117912,69,19230,283,1,49332,0.0010000000000000009
950002,6276,19273,128294,-6915,11191,120068,65,19242,266,1,49333,0.0009999999999998899
951001,12171,-7161,127622,13816,-10768,135108,61,19242,250,1,49334,0.0009990000000000832
952002,6929,-4625,126492,-5579,-3342,125437,53,19239,250,1,49335,0.0010009999999999186
953000,9830,-148,130892,-12588,-890,129268,65,19240,217,1,49336,0.0009980000000000544
954000,1837,-954,127096,11708,-2961,127845,65,19233,266,0,49337,0.0010000000000000009
955001,6854,-1461,128173,-4213,-29,129399,81,19236,332,0,49338,0.0010010000000000296
956000,7809,7926,127397,-15292,9535,120080,72,19237,295,0,49339,0.0009989999999999721
957000,6219,7561,127388,2694,3934,123517,63,19237,258,0,49340,0.0010000000000000009
958000,10736,-4311,126741,7142,-6299,131692,69,19238,258,0,49341,0.0010000000000000009
959002,5548,-4764,128239,-6678,-4913,127869,104,19233,283,1,49342,0.0010019999999999474
960000,3507,-728,128765,-9440,-1161,128173,104,19236,426,1,49343,0.0009980000000000544
961000,5220,2184,129213,7976,-1787,128816,65,19244,266,1,49344,0.0010000000000000009
962000,12641,229,128422,-4372,135,128135,55,19239,225,1,49345,0.0010000000000000009
963003,9352,5847,127510,-1132,5842,122119,59,19236,242,1,49346,0.0010029999999999761
964000,5436,1440,126879,-799,-856,125965,89,19236,242,0,49347,0.0009970000000000256
965000,11213,-3071,128303,937,-4894,131185,72,19238,365,0,49348,0.0010000000000000009
966000,7757,-1448,128304,-1784,-1081,129094,72,19243,295,0,49349,0.0010000000000000009
967000,7837,4620,128780,-2425,3439,122969,62,19239,254,0,49350,0.0010000000000000009
968000,7614,-4035,126874,5463,-6044,130828,59,19236,242,0,49351,0.0010000000000000009
969008,11495,-6664,127082,-5422,-6303,128958,87,19236,356,1,49352,0.0010080000000000089
970000,8579,4017,127878,390,3815,123080,65,19236,356,1,49353,0.0009919999999999929
971000,6042,6250,128974,560,4615,125259,61,19241,266,1,49354,0.0010000000000000009
972002,11225,-3810,128098,-2568,-5212,130508,61,19242,250,1,49355,0.0010019999999999474
973002,6371,-4963,127634,-969,-5401,130175,56,19237,229,1,49356,0.0010000000000000009
974000,7350,1762,127636,3119,859,125470,75,19230,307,0,49357,0.0009980000000000544
975000,8650,244,127874,2344,-146,125729,70,19237,287,0,49358,0.0010000000000000009
976000,14017,-76,128104,-7996,-197,127803,66,19237,287,0,49359,0.0010000000000000009
977000,9860,1566,128329,6383,990,125409,59,19237,270,0,49360,0.0010000000000000009
978001,9757,1009,128320,6762,-169,127270,59,19234,242,0,49361,0.0010010000000000296
979000,8041,-6217,128308,-7318,-6808,130550,76,19235,311,1,49362,0.0009989999999999721
980000,6981,-1163,128592,678,-2174,129666,58,19238,238,1,49363,0.0010000000000000009
981000,10005,6919,128932,5870,6184,124776,61,19238,250,1,49364,0.0010000000000000009
982000,11666,2900,126771,711,2201,123844,52,19238,250,1,49365,0.0010000000000000009
983000,11445,-2774,126455,-6025,-2947,128431,68,19237,213,1,49366,0.0010000000000000009
984000,7851,354,127438,8680,-954,126012,68,19233,279,0,49367,0.0010000000000000009
985000,11369,2479,128670,3050,1526,128190,66,19235,270,0,49368,0.0010000000000000009
986000,8387,-3025,128042,-9570,-3522,128512,69,19241,283,0,49369,0.0010000000000000009
987001,7363,66,128175,832,-1041,128291,58,19238,238,0,49370,0.0010009999999999186
988000,12080,-73,126760,8822,-1016,125971,68,19238,279,0,49371,0.0009990000000000832
989000,8008,1867,126737,-3676,1126,124433,73,19233,279,1,49372,0.0010000000000000009
990000,8797,835,127279,-6638,-103,127246,61,19241,299,1,49373,0.0010000000000000009
991000,9455,6097,128339,8121,4207,124861,61,19233,250,1,49374,0.0010000000000000009
992000,13271,2405,128127,1501,-3529,129409,51,19240,209,1,49375,0.0010000000000000009
993000,5767,-5840,126204,-3413,-4780,126506,60,19235,246,0,49376,0.0010000000000000009
994000,6092,590,127754,425,1512,128020,73,19235,299,0,49377,0.0010000000000000009
995000,11169,1202,127448,4867,4565,125975,70,19234,299,0,49378,0.0010000000000000009
996000,6314,4119,127073,-9200,5367,123653,60,19234,287,0,49379,0.0010000000000000009
997002,8543,2460,127952,4561,124,127182,60,19239,246,0,49380,0.0010019999999999474
998002,10231,12,126355,3297,-2038,127212,65,19235,266,0,49381,0.0010000000000000009
999000,6394,-6721,125834,-4936,-6395,129268,96,19238,393,1,49382,0.0009980000000000544
1000003,4684,4412,126671,-4989,6691,121970,61,19238,250,1,49383,0.0010029999999999761
1001000,10667,7367,127089,2186,3585,128695,53,19239,250,1,49384,0.0009969999999999146
1002000,10992,6202,127098,7077,7269,121785,57,19241,217,1,49385,0.001000000000000112
1003000,4027,3984,127076,-11885,-1795,126987,57,19237,233,0,49386,0.0009999999999998899
1004000,6264,-10507,127009,-3086,-9767,130946,84,19232,344,0,49387,0.001000000000000112
1005000,9373,711,128746,5865,-778,129362,68,19239,279,0,49388,0.0009999999999998899
1006000,7321,-804,127662,-6668,1096,126201,62,19240,254,0,49389,0.001000000000000112
1007000,1951,13527,127676,-2784,12504,119283,58,19240,254,0,49390,0.0009999999999998899
1008003,11687,561,125885,664,-2601,131386,85,19240,238,1,49391,0.0010030000000000872
1009002,7058,2846,125890,-4088,3735,120522,85,19235,348,1,49392,0.0009989999999999721
1010002,9306,1101,128728,-1343,-1385,129186,62,19241,254,1,49393,0.0009999999999998899
1011000,10762,-1868,129076,5413,-1293,128389,58,19238,238,1,49394,0.0009980000000000544
1012001,8446,-2799,127651,-418,-3663,131468,55,19234,225,1,49395,0.0010010000000000296
1013003,1680,-2915,127210,-10342,925,127064,75,19234,225,0,49396,0.0010019999999999474
1014000,2969,10572,128337,2462,9447,120921,71,19233,307,0,49397,0.0009970000000001367
1015001,10830,-170,126403,-3510,-728,129892,71,19236,291,0,49398,0.0010010000000000296
1016002,6656,4499,127988,-8211,3943,121869,72,19240,295,0,49399,0.0010009999999998076
1017002,8855,-2484,127932,7283,-3212,128951,62,19235,254,0,49400,0.001000000000000112
1018000,8480,813,128827,1719,-445,126632,77,19228,315,1,49401,0.0009980000000000544
1019000,3713,-9823,128063,-13202,-11090,132864,80,19228,315,1,49402,0.0009999999999998899
1020002,5637,1573,128132,-1854,1956,125693,59,19241,328,1,49403,0.0010019999999999474
1021000,9383,8610,129403,6648,7526,124900,59,19236,242,1,49404,0.0009980000000000544
1022002,10331,-2807,125672,-7765,-3714,126305,54,19242,221,1,49405,0.0010019999999999474
1023000,6449,-317,127006,-5363,-1469,125602,70,19229,287,0,49406,0.0009980000000000544
1024001,8810,-2900,127578,12948,-4314,131664,77,19237,315,0,49407,0.0010010000000000296
1025002,10607,6219,128822,-4097,5611,122717,69,19237,315,0,49408,0.0010010000000000296
1026002,6113,-4706,127700,-12629,-5853,130865,58,19240,283,0,49409,0.0009999999999998899
1027002,9155,724,128064,11260,-118,125775,58,19238,238,0,49410,0.001000000000000112
1028002,9042,-1832,127011,4851,-2265,128694,69,19232,283,1,49411,0.0009999999999998899
1029002,6148,-1642,127699,-15865,-2002,125542,72,19236,295,1,49412,0.001000000000000112
1030002,8039,3772,129638,2041,3380,126167,67,19239,274,1,49413,0.0009999999999998899
1031002,10428,1721,128840,12708,774,130228,55,19239,274,1,49414,0.001000000000000112
1032002,10557,2292,128169,-10102,2928,122382,59,19238,225,1,49415,0.0009999999999998899
1033000,6037,-9604,125662,-3799,-10342,131853,59,19236,242,0,49416,0.0009980000000000544
1034002,10747,2394,128474,12101,513,123163,92,19233,377,0,49417,0.0010019999999999474
1035000,11924,1898,128133,-4263,2063,128857,71,19237,291,0,49418,0.0009980000000000544
1036002,7069,-1664,128510,-9070,-2817,126500,62,19240,254,0,49419,0.0010019999999999474
1037002,9381,-3243,127657,11340,-3605,131774,61,19240,250,0,49420,0.001000000000000112
1038002,9403,-219,127166,2938,-2815,124152,79,19233,250,1,49421,0.0009999999999998899
1039004,10609,2636,127064,-11181,-1407,127171,63,19240,324,1,49422,0.0010020000000001694
1040001,9260,-2421,126775,11152,-289,128248,63,19237,258,1,49423,0.0009969999999999146
1041003,14633,6506,128209,5204,5563,122755,56,19240,229,1,49424,0.0010019999999999474
1042000,11272,-1719,126817,-7233,-4471,128691,56,19235,229,1,49425,0.0009970000000001367
1043002,5037,-2207,127855,7256,-1936,128312,83,19235,340,0,49426,0.0010019999999999474
1044002,9839,-2518,129016,-3134,-2088,129537,72,19235,340,0,49427,0.0009999999999998899
1045002,9494,1865,129362,-8329,3750,124428,64,19238,295,0,49428,0.001000000000000112
1046000,8882,-1687,128584,8658,-6356,130262,64,19239,262,0,49429,0.0009980000000000544
1047000,8747,-1228,126674,2715,-537,126547,60,19237,246,0,49430,0.0009999999999998899
1048000,11061,3539,126858,-8430,466,125921,80,19234,328,1,49431,0.001000000000000112
1049002,5904,83,126094,3012,851,126775,57,19238,233,1,49432,0.0010019999999999474
1050002,8267,5216,128588,3928,3966,124885,55,19238,233,1,49433,0.0009999999999998899
1051002,12671,114,127669,-3167,-1831,128701,53,19240,225,1,49434,0.001000000000000112
1052000,9583,-1401,126071,-345,-2553,125484,53,19239,217,1,49435,0.0009980000000000544
1053002,6564,1280,127672,4477,836,127081,71,19232,291,0,49436,0.0010019999999999474
1054001,10917,4298,127331,-1739,3151,126674,65,19233,266,0,49437,0.0009989999999999721
1055000,8687,2614,127254,-5942,2068,125633,66,19236,270,0,49438,0.0009989999999999721
1056023,7047,2319,127929,2395,1194,126478,56,19236,270,0,49439,0.0010229999999999961
1057002,9405,-68,126846,5120,-709,126384,73,19241,229,0,49440,0.0009790000000000632
1058002,7263,195,128112,-8325,-249,127198,73,19230,299,1,49441,0.0009999999999998899
1059002,5514,1703,128339,-5773,1656,125714,64,19238,262,1,49442,0.001000000000000112
1060000,7245,586,126530,5005,-2050,128848,62,19243,254,1,49443,0.0009980000000000544
1061002,9157,6520,126919,1899,8483,120016,52,19240,213,1,49444,0.0010019999999999474
1062002,8835,6118,125636,-9748,3211,128631,64,19240,213,1,49445,0.0009999999999998899
1063002,7782,-7410,125692,2827,-5122,128077,79,19233,262,0,49446,0.001000000000000112
1064002,10793,9244,131058,-1580,8126,122617,79,19239,324,0,49447,0.0009999999999998899
1065002,9462,-5435,126637,-2323,-6435,132327,66,19237,270,0,49448,0.001000000000000112
1066002,1368,-1386,128519,-780,-2536,126843,58,19240,238,0,49449,0.0009999999999998899
1067002,9169,-2749,126228,906,-2819,129504,68,19231,279,0,49450,0.001000000000000112
1068000,6693,18562,127845,-9905,17944,114140,85,19231,279,1,49451,0.0009980000000000544
1069002,11109,3403,128699,-1851,1953,129137,63,19238,348,1,49452,0.0010019999999999474
1070000,6353,-10686,125609,12279,-11712,131923,63,19237,258,1,49453,0.0009980000000000544
1071001,9311,2091,129417,-11578,1384,124811,55,19240,225,1,49454,0.0010009999999998076
1072002,5952,-222,128835,-5886,-742,128153,62,19235,254,0,49455,0.0010010000000000296
1073002,2358,-1694,126527,11503,-3381,128718,90,19236,369,0,49456,0.001000000000000112
1074000,8754,2951,128459,-10925,1823,127689,74,19236,369,0,49457,0.0009979999999998324
1075000,4630,9713,126821,-11215,8955,119954,65,19236,303,0,49458,0.001000000000000112
1076000,9813,-1484,127206,3741,-1775,128837,65,19240,266,0,49459,0.0009999999999998899
1077000,8899,-3874,127410,8120,-4928,129532,65,19237,266,0,49460,0.001000000000000112
1078004,6544,415,128576,-12233,-18,127092,89,19229,365,1,49461,0.0010040000000000049
1079002,3734,4495,129774,-5057,3443,127360,61,19240,250,1,49462,0.0009980000000000544
1080000,8536,-3478,128609,5757,-4534,131937,56,19240,229,1,49463,0.0009979999999998324
1081000,12529,3913,128018,-3610,2136,119983,57,19239,229,1,49464,0.001000000000000112
1082000,4210,3739,127581,-2580,4605,127400,78,19238,233,0,49465,0.0009999999999998899
1083000,6577,-4519,126950,-225,-6215,130412,78,19234,319,0,49466,0.001000000000000112
1084000,9127,-1789,129149,1548,-2075,127681,70,19239,287,0,49467,0.0009999999999998899
1085000,8895,5045,128109,-5834,2844,123108,64,19239,262,0,49468,0.001000000000000112
1086000,6937,1994,127491,3002,-4403,128435,60,19239,246,0,49469,0.0009999999999998899
1087000,11564,-11235,126685,2759,-10091,132940,83,19240,246,1,49470,0.001000000000000112
1088000,9997,-579,127770,-6297,4562,122065,64,19233,340,1,49471,0.0009999999999998899
1089002,5895,7692,128627,2335,4535,125758,64,19233,262,1,49472,0.0010020000000001694
1090000,8896,-300,128334,-2395,-3493,129020,62,19239,254,1,49473,0.0009979999999998324
1091000,9442,-5072,128080,-3094,-5483,131121,54,19240,221,1,49474,0.001000000000000112
1092000,7119,-1083,127414,2337,-153,125340,70,19240,287,0,49475,0.0009999999999998899
1093000,6508,3913,127346,4416,561,124811,80,19230,287,0,49476,0.001000000000000112
1094001,12226,-3653,127576,-7998,-4203,130059,69,19236,328,0,49477,0.0010010000000000296
1095000,11943,-352,127437,1767,2566,124100,69,19236,283,0,49478,0.0009989999999999721
1096000,9795,2032,127951,10690,-1488,126541,59,19239,242,0,49479,0.0009999999999998899
1097000,11229,-3824,127694,-2964,-6052,129255,69,19234,283,1,49480,0.001000000000000112
1098000,5756,-2993,127412,-4384,-4079,128478,53,19234,217,1,49481,0.0009999999999998899
1099000,10230,438,128154,6175,1755,127859,63,19234,217,1,49482,0.001000000000000112
1100001,11029,7834,128226,5567,6643,122635,55,19239,258,1,49483,0.0010010000000000296
1101000,13010,-1716,126920,-7166,-4136,128890,55,19236,225,1,49484,0.0009989999999999721
1102000,7943,-1567,126916,3937,-191,124700,65,19233,266,0,49485,0.0009999999999998899
1103001,8136,2172,128639,8198,281,129351,73,19236,299,0,49486,0.0010010000000000296
1104002,11050,-2709,128333,-7799,-2485,128037,73,19236,299,0,49487,0.0010010000000000296
1105000,5609,1555,128978,-3067,1060,125357,62,19236,299,0,49488,0.0009980000000000544
1106000,10123,-608,127826,8048,-1551,129567,66,19236,254,0,49489,0.0009999999999998899
1107000,10173,4,126778,-116,-849,125021,66,19234,270,1,49490,0.001000000000000112
1108000,6271,-503,127299,-8443,-874,127175,92,19239,377,1,49491,0.0009999999999998899
1109000,9740,5660,127269,5356,5828,123184,59,19239,242,1,49492,0.001000000000000112
1110000,12293,6534,128799,4598,5061,127163,51,19240,209,1,49493,0.0009999999999998899
1111000,11662,-5808,126280,-3016,-6259,129857,55,19240,209,1,49494,0.001000000000000112
1112000,5066,-1158,127218,-1775,-787,125223,84,19237,225,0,49495,0.0009999999999998899
1113000,9627,854,126545,6370,-1017,127471,84,19237,344,0,49496,0.001000000000000112
1114000,9804,3826,128035,-2934,3408,125220,70,19235,287,0,49497,0.0009999999999998899
1115000,7219,4987,127952,-8066,3971,124465,62,19239,254,0,49498,0.001000000000000112
1116000,8805,1117,127520,6331,-46,127670,60,19237,246,0,49499,0.0009999999999998899
1117001,8754,-1935,126669,3413,-2782,126096,89,19237,246,1,49500,0.0010010000000000296
1118000,3272,-3335,127326,-8548,-3444,127645,61,19235,365,1,49501,0.0009989999999999721
1119000,7868,10139,128870,-4249,9504,123219,61,19242,250,1,49502,0.001000000000000112
1120000,12745,2002,126634,8943,1366,128527,56,19240,229,1,49503,0.0009999999999998899
1121000,8095,8620,127436,-347,7869,120822,55,19237,225,1,49504,0.001000000000000112
1122000,6712,-5666,127135,-12117,-5918,128792,78,19229,319,0,49505,0.0009999999999998899
1123000,7679,-5898,129086,5788,-6971,131149,69,19229,319,0,49506,0.001000000000000112
1124001,9809,-786,128431,402,-1295,129473,64,19239,283,0,49507,0.0010010000000000296
1125000,2379,7689,128008,-10343,6058,121392,64,19237,262,0,49508,0.0009989999999999721
1126000,5622,9359,126962,1954,8866,122949,58,19235,238,0,49509,0.0009999999999998899
1127000,10557,-2650,125347,759,-3242,131027,73,19234,299,1,49510,0.001000000000000112
1128000,5416,6748,127678,-6271,4791,120527,56,19240,229,1,49511,0.0009999999999998899
1129000,12108,1663,129832,-34,1107,130209,58,19240,238,1,49512,0.001000000000000112
1130002,9805,-4541,127878,9197,-5374,131521,54,19238,238,1,49513,0.0010019999999999474
1131002,5795,-3946,128323,-9519,-5871,126957,70,19238,221,1,49514,0.0009999999999998899
1132000,1020,5133,127533,-6236,3556,123537,70,19229,287,0,49515,0.0009980000000000544
1133000,6759,4715,127714,6700,3071,127909,67,19234,274,0,49516,0.001000000000000112
1134000,10803,3675,127357,-14355,3986,122314,70,19237,287,0,49517,0.0009999999999998899
1135000,6890,2051,127424,-428,-757,127737,61,19237,250,0,49518,0.001000000000000112
1136000,10314,-2156,127927,9812,-3310,127970,72,19237,250,0,49519,0.0009999999999998899
1137000,5831,-6381,127524,-5855,-9833,131630,99,19232,295,1,49520,0.001000000000000112
1138000,2669,-4231,128490,-3490,425,127828,99,19237,405,1,49521,0.0009999999999998899
1139001,6430,10013,129815,7314,7572,124262,61,19240,250,1,49522,0.0010010000000000296
1140000,10241,858,127237,-10342,-1868,126929,54,19239,221,1,49523,0.0009989999999999721
1141000,9996,-1622,126892,-1573,-3349,125703,62,19239,254,1,49524,0.001000000000000112
1142000,4451,-4330,126559,10808,-3522,130012,85,19233,254,0,49525,0.0009999999999998899
1143000,12323,4498,128363,-8426,4829,124223,72,19238,348,0,49526,0.001000000000000112
1144000,7983,1228,128312,-6052,-1767,128791,72,19235,295,0,49527,0.0009999999999998899
1145000,7808,-1373,127946,6523,-2736,127712,61,19234,250,0,49528,0.001000000000000112
1146000,10639,-164,128106,2039,-5802,126079,65,19233,266,0,49529,0.0009999999999998899
1147000,7028,-3291,128361,-8622,-4596,129509,82,19239,336,1,49530,0.001000000000000112
1148000,9226,42,128648,-1993,-429,125691,66,19239,336,1,49531,0.0009999999999998899
1149001,6542,3301,129093,9246,2318,128492,58,19236,270,1,49532,0.0010010000000000296
1150002,10461,4375,127795,-7395,2673,126062,58,19238,238,1,49533,0.0010010000000000296
1151000,7119,-6004,126033,-4387,-7407,127853,57,19236,233,1,49534,0.0009980000000000544
1152000,7768,-2233,127152,10161,-814,128315,82,19236,336,0,49535,0.0009999999999998899
1153000,12582,2543,128189,-1991,1017,125225,71,19236,291,0,49536,0.001000000000000112
1154000,9440,681,127932,-7879,456,126198,62,19236,291,0,49537,0.0009999999999998899
1155000,10191,-831,128178,5717,-3011,129845,62,19237,254,0,49538,0.001000000000000112
1156000,10233,-4529,126918,8105,-5123,128381,62,19236,254,1,49539,0.0009999999999998899
1157000,8422,2321,128717,-8902,988,125847,83,19236,340,1,49540,0.001000000000000112
1158000,8518,-4177,127241,842,-4401,129558,60,19238,246,1,49541,0.0009999999999998899
1159000,10178,6445,129201,7264,6871,123513,56,19242,229,1,49542,0.001000000000000112
1160000,13186,3617,128290,-2552,2087,127269,52,19242,229,1,49543,0.0009999999999998899
1161000,6647,-4836,126081,-1857,-5682,126667,75,19239,213,0,49544,0.001000000000000112
1162000,5218,-3991,128316,6450,-4371,130046,75,19235,307,0,49545,0.0009999999999998899
1163000,10201,-1401,127534,-5797,-2137,127029,69,19236,283,0,49546,0.001000000000000112
1164000,10344,4779,128057,-5663,3532,123682,68,19240,279,0,49547,0.0009999999999998899
1165000,10395,-2144,126916,9603,-2688,129857,58,19238,238,0,49548,0.001000000000000112
1166000,10851,-138,126342,2327,-1107,125272,70,19238,238,1,49549,0.0009999999999998899
1167000,7097,-179,127397,-8620,-1207,128696,52,19235,287,1,49550,0.001000000000000112
1168000,6502,2102,126305,1379,759,126167,52,19241,213,1,49551,0.0009999999999998899
1169000,9134,8208,129114,3485,7679,124434,57,19238,233,1,49552,0.001000000000000112
1170000,12977,-559,126692,-4006,-1150,128691,50,19239,205,1,49553,0.0009999999999998899
1171001,7643,-2502,126344,1853,-3758,124958,63,19231,258,0,49554,0.0010010000000000296
1172001,7780,1557,128497,4472,414,127947,68,19231,279,0,49555,0.0009999999999998899
1173000,10991,3135,128472,-1902,2824,125625,64,19236,279,0,49556,0.0009990000000001942
1174001,5791,3947,128302,-7393,2913,126028,58,19237,262,0,49557,0.0010009999999998076
1175000,7853,611,127020,4183,414,128152,58,19239,238,0,49558,0.0009990000000001942
1176000,9125,1244,126508,3880,257,125820,66,19234,270,1,49559,0.0009999999999998899
1177000,5587,836,127580,-10338,33,127070,81,19237,332,1,49560,0.001000000000000112
1178001,7989,536,125892,-4223,-1065,127551,60,19237,246,1,49561,0.0010009999999998076
1179000,10201,5150,126611,9733,920,119027,52,19240,246,1,49562,0.0009990000000001942
1180000,12212,11812,128008,-5500,6701,127309,60,19240,213,1,49563,0.0009999999999998899
1181000,6386,-11727,124597,-3454,-11811,130741,60,19236,246,0,49564,0.001000000000000112
1182000,4620,3024,129372,-1073,6061,123017,87,19237,356,0,49565,0.0009999999999998899
1183000,14555,2125,129801,-4221,-1243,131146,67,19241,274,0,49566,0.001000000000000112
1184000,-511,-2158,127296,3306,-3269,125874,57,19241,233,0,49567,0.0009999999999998899
1185000,7444,-1106,126987,-2049,-697,128374,61,19240,233,0,49568,0.001000000000000112
1186000,7114,10191,126584,-2175,14110,117198,93,19237,250,1,49569,0.0009999999999998899
1187000,9725,11977,129255,-7687,4778,125908,93,19242,381,1,49570,0.001000000000000112
1188000,8232,-11640,127210,14780,-13802,134558,65,19237,266,1,49571,0.0009999999999998899
1189000,6148,-1912,128095,-7702,629,125421,57,19239,233,1,49572,0.001000000000000112
1190026,11808,4269,129955,-13516,1725,126576,56,19237,229,1,49573,0.0010259999999999714
1191000,906,-2467,126503,14527,-4761,129979,84,19237,229,0,49574,0.0009739999999998084
1192000,8465,-206,127451,-6140,2292,126765,73,19237,344,0,49575,0.001000000000000112
1193000,4986,10657,127766,-14133,10292,119599,73,19237,299,0,49576,0.0009999999999998899
1194000,8041,2389,128133,-903,-903,128147,70,19238,287,0,49577,0.001000000000000112
1195000,9657,-5529,126614,14145,-8000,130950,62,19233,254,0,49578,0.0009999999999998899
1196000,5041,-610,127959,-10664,-1968,125131,84,19231,344,1,49579,0.001000000000000112
1197000,5383,4940,130066,-10515,2722,125218,58,19231,344,1,49580,0.0009999999999998899
1198000,4423,-5466,127304,10461,-7520,133371,57,19240,238,1,49581,0.001000000000000112
1199003,14462,623,129147,-4665,2943,123570,57,19242,233,1,49582,0.0010030000000000872
1200000,6694,9695,127173,-1961,7043,120180,56,19239,229,1,49583,0.0009969999999999146
1201001,6212,-4440,126438,-2005,-6846,130826,74,19231,303,0,49584,0.0010010000000000296
1202000,9568,-6216,127261,3131,-6845,132061,68,19236,279,0,49585,0.0009989999999999721
1203002,9236,3271,128204,-3328,3746,125282,67,19236,279,0,49586,0.0010019999999999474
1204000,8691,10281,128193,-1636,8507,120072,59,19239,274,0,49587,0.0009980000000000544
1205000,6797,-9524,126236,4584,-12459,134590,59,19237,242,0,49588,0.0009999999999998899
1206000,13122,-8780,126974,-6236,-7409,129611,76,19231,311,1,49589,0.001000000000000112
1207000,6379,6652,129395,3734,6107,121311,58,19240,238,1,49590,0.0009999999999998899
1208000,6902,5770,128958,-1923,4065,125873,66,19236,270,1,49591,0.001000000000000112
1209000,9827,-7060,127946,-2375,-8089,132177,52,19236,270,1,49592,0.0009999999999998899
1210000,8319,-3016,127403,-1561,-2780,129235,63,19239,213,1,49593,0.001000000000000112
1211000,8581,5972,127328,5582,4909,121572,63,19237,258,0,49594,0.0009999999999998899
1212000,7824,-4739,128214,2462,-5144,127880,86,19237,352,0,49595,0.001000000000000112
1213000,15897,-6287,129155,-7603,-5894,129689,72,19234,295,0,49596,0.0009999999999998899
1214000,7971,5160,129120,7172,3979,125382,60,19236,246,0,49597,0.001000000000000112
1215000,9894,1709,127998,6961,639,127154,67,19236,246,0,49598,0.0009999999999998899
1216000,6861,-8377,126478,-6832,-9763,130101,67,19231,274,1,49599,0.001000000000000112
1217000,8190,-1878,127635,-3154,-3042,128813,62,19239,274,1,49600,0.0009999999999998899
1218001,10972,9082,127976,9214,7730,124064,62,19241,254,1,49601,0.0010010000000000296
1219000,11206,3428,127442,1424,3244,124634,56,19238,229,1,49602,0.0009989999999999721
1220000,11793,-5626,126371,-7722,-5495,128262,61,19237,250,1,49603,0.001000000000000112
1221000,6654,1772,128063,8329,265,127031,86,19237,352,0,49604,0.0009999999999998899
1222000,11439,1837,129040,4757,1745,128429,74,19236,352,0,49605,0.001000000000000112
1223000,7778,-3284,127793,-9604,-3966,126954,64,19237,303,0,49606,0.0009999999999998899
1224000,7347,2770,128722,-1367,1280,126494,64,19240,262,0,49607,0.001000000000000112
1225000,11656,1567,127249,9417,1611,127093,62,19234,254,0,49608,0.0009999999999998899
1226001,8343,-1466,126590,-2872,-2153,126557,86,19237,352,1,49609,0.0010010000000000296
1227002,8030,268,127620,-6118,2419,125155,63,19237,258,1,49610,0.0010010000000000296
1228000,9611,8433,127960,6477,8266,124485,55,19242,258,1,49611,0.0009980000000000544
1229000,13241,2976,127786,4636,-2131,129713,52,19239,225,1,49612,0.0009999999999998899
1230000,8967,-8871,125004,-2559,-4402,126806,52,19239,213,1,49613,0.001000000000000112
1231000,5603,3452,128014,-760,3563,125759,75,19231,307,0,49614,0.0009999999999998899
1232000,10735,3025,127594,235,1850,127019,69,19240,283,0,49615,0.001000000000000112
1233000,9137,3329,127950,-9498,3322,124847,65,19243,266,0,49616,0.0009999999999998899
1234001,7406,2955,128212,4437,1427,126308,58,19243,266,0,49617,0.0010010000000000296
1235001,11949,-2305,125515,6978,-3115,126087,79,19237,238,0,49618,0.001000000000000112
1236000,6217,2249,128123,-7309,1918,125721,79,19233,324,1,49619,0.0009989999999999721
1237000,6206,-1951,126782,-7439,-3312,129680,58,19237,238,1,49620,0.0009999999999998899
1238000,7989,7742,128942,1483,9222,123097,58,19238,238,1,49621,0.001000000000000112
1239000,11609,4863,126719,8236,2444,124847,52,19236,213,1,49622,0.0009999999999998899
1240000,4074,1385,126146,-8219,-1224,127302,69,19236,213,1,49623,0.001000000000000112
1241001,8581,-9420,127010,-7072,-9316,130745,69,19233,283,0,49624,0.0010010000000000296
1242001,11268,6966,129433,10471,8401,124371,69,19235,283,0,49625,0.0009999999999998899
1243000,7349,2090,126608,-11282,-745,127131,66,19233,270,0,49626,0.0009989999999999721
1244000,2601,3858,128080,-4141,3591,122568,58,19236,238,0,49627,0.001000000000000112
1245000,9507,-5328,124005,11825,-10051,137094,72,19229,295,1,49628,0.0009999999999998899
1246000,3276,9934,128050,-11267,11626,115980,65,19229,295,1,49629,0.001000000000000112
1247000,9503,11327,129774,-14336,7980,125093,62,19238,266,1,49630,0.0009999999999998899
1248000,12057,-6287,128118,23473,-6238,132117,62,19238,254,1,49631,0.001000000000000112
1249004,6923,-2864,128389,-8603,-4662,127850,53,19238,217,1,49632,0.0010040000000000049
1250000,4664,-5998,128103,-16561,-5143,129408,66,19234,270,0,49633,0.0009959999999999969
1251000,297,7419,127896,13387,6629,122925,81,19234,332,0,49634,0.0009999999999998899
1252002,11499,1359,128345,-7838,284,130766,72,19234,332,0,49635,0.0010019999999999474
1253000,4579,7459,126409,-14504,7029,118410,62,19236,295,0,49636,0.0009980000000000544
1254000,9274,-903,128286,11678,-2692,130527,62,19236,254,0,49637,0.001000000000000112
1255000,9965,-5536,125588,866,-6226,128182,69,19238,283,0,49638,0.0009999999999998899
1256000,5690,-1659,129710,-13328,-2169,126924,101,19236,414,1,49639,0.001000000000000112
1257000,6736,-204,127838,2990,-1119,130944,64,19237,262,1,49640,0.0009999999999998899
1258000,6844,4483,128420,1871,3452,124936,55,19237,262,1,49641,0.001000000000000112
1259000,13122,-4774,126529,-11736,-5728,129551,59,19235,225,1,49642,0.0009999999999998899
1260000,4130,4297,126923,9325,3182,121732,59,19235,242,0,49643,0.001000000000000112
1261000,7128,-2550,127630,-908,-3726,130661,86,19236,352,0,49644,0.0009999999999998899
1262000,10851,1393,129081,-8600,1208,124365,71,19237,291,0,49645,0.001000000000000112
1263002,6813,-362,127528,1653,-1228,128311,66,19238,270,0,49646,0.0010019999999999474
1264000,8701,212,128183,6909,-393,126932,62,19238,254,0,49647,0.0009980000000000544
1265000,7918,-4284,126920,-3522,-4545,126711,91,19233,254,1,49648,0.0009999999999998899
1266000,9974,-9126,127159,-7371,-10348,133485,62,19240,373,1,49649,0.001000000000000112
1267000,6295,10596,128842,6850,8989,120162,62,19239,254,1,49650,0.0009999999999998899
1268000,11210,1772,128639,-1813,2179,128956,59,19237,242,1,49651,0.001000000000000112
1269000,9012,-1811,126769,-4183,-2597,125585,55,19239,225,1,49652,0.0009999999999998899
1270000,5178,-7104,126585,1378,-7410,132262,78,19239,319,0,49653,0.001000000000000112
1271000,9822,2555,127861,2786,285,120480,71,19232,319,0,49654,0.0009999999999998899
1272000,10128,3609,128308,-200,4314,129923,67,19240,291,0,49655,0.001000000000000112
1273000,9646,-4429,127858,-6718,-5147,126513,67,19241,274,0,49656,0.0009999999999998899
1274002,8544,1677,128222,7700,-1847,128479,58,19234,238,0,49657,0.0010019999999999474
1275000,11147,-5471,127497,4320,-4618,129901,74,19238,303,1,49658,0.0009980000000000544
1276000,8744,1664,127196,-7269,1308,122970,59,19238,242,1,49659,0.001000000000000112
1277000,8045,685,128520,3580,-291,131052,62,19240,242,1,49660,0.0009999999999998899
1278000,14538,3672,127485,5899,4836,123363,54,19240,254,1,49661,0.001000000000000112
1279001,10362,634,127001,-4647,274,128930,54,19235,221,1,49662,0.0010009999999998076
1280000,7845,-7050,125505,3308,-4321,128972,68,19231,279,0,49663,0.0009990000000001942
1281000,9024,1244,128746,6504,2426,125861,65,19234,266,0,49664,0.0009999999999998899
1282000,11249,2445,128677,-10454,-881,129153,71,19238,291,0,49665,0.001000000000000112
1283003,7563,-3361,128030,1620,-2510,127231,59,19238,291,0,49666,0.0010029999999998651
1284000,8310,1575,127939,9354,-507,127168,67,19238,242,0,49667,0.0009970000000001367
1285000,10557,-28,126516,-7273,-1021,126966,67,19234,274,1,49668,0.0009999999999998899
1286000,5390,3241,127052,-3301,3684,123277,75,19241,307,1,49669,0.001000000000000112
1287000,9005,2044,128177,7214,2250,128921,59,19237,242,1,49670,0.0009999999999998899
1288000,13638,3614,128133,-1044,2887,123723,50,19241,205,1,49671,0.001000000000000112
1289000,10259,-738,126866,-860,-3184,128108,57,19241,205,1,49672,0.0009999999999998899
1290000,5995,-4274,127319,3300,-4645,129206,77,19236,233,0,49673,0.001000000000000112
1291000,9735,2883,127509,1146,2252,125584,77,19234,315,0,49674,0.0009999999999998899
1292001,9569,4996,127986,-6823,3775,127235,68,19235,279,0,49675,0.0010010000000000296
1293000,6874,5317,127540,-875,4236,123024,59,19238,242,0,49676,0.0009989999999999721
1294000,8676,1238,127193,6642,-349,128044,61,19234,250,0,49677,0.001000000000000112
1295000,8258,-503,127868,-6264,-1574,127789,94,19234,250,1,49678,0.0009999999999998899
1296000,6607,233,128732,-5003,-571,128943,62,19240,385,1,49679,0.001000000000000112
1297000,5779,627,127194,10077,3548,124492,62,19238,254,1,49680,0.0009999999999998899
1298000,14449,16598,129082,-6984,15521,120483,51,19245,209,1,49681,0.001000000000000112
1299000,9917,-4688,124908,1746,-6977,130628,56,19236,229,1,49682,0.0009999999999998899
1300000,1382,-979,127232,-642,-2146,126505,84,19234,344,0,49683,0.001000000000000112
1301000,13870,1055,130625,-7890,1336,125383,69,19234,344,0,49684,0.0009999999999998899
1302000,4645,-1099,127620,6192,-3531,131250,61,19238,283,0,49685,0.001000000000000112
1303000,6388,-5590,127336,-4685,-5616,129724,61,19237,250,0,49686,0.0009999999999998899
1304000,5299,8622,125377,342,7785,121472,59,19234,242,0,49687,0.001000000000000112
1305000,7725,12841,127463,-10618,11992,120862,81,19236,332,1,49688,0.0009999999999998899
1306000,11969,-21,127025,-773,-876,126535,61,19240,250,1,49689,0.001000000000000112
1307001,5547,-7636,126490,15164,-8948,133268,58,19240,250,1,49690,0.0010009999999998076
1308000,9709,3552,129221,-16138,2731,123563,56,19237,238,1,49691,0.0009990000000001942
1309000,5230,-3463,127781,-5956,-3697,128427,56,19239,229,1,49692,0.0009999999999998899
1310000,4675,-2595,126901,12184,-4292,131300,75,19235,307,0,49693,0.0009999999999998899
1311001,6564,10040,128182,-4542,9107,121727,70,19236,287,0,49694,0.0010010000000000296
1312001,6104,3504,125746,-20520,3253,123706,69,19240,283,0,49695,0.001000000000000112
1313002,10640,3892,128409,6707,4341,125678,61,19240,250,0,49696,0.0010010000000000296
1314000,8530,-4952,127763,16297,-6203,133646,77,19239,250,0,49697,0.0009979999999998324
1315000,6864,2391,128915,-17710,1297,122559,83,19233,315,1,49698,0.001000000000000112
1316001,1900,-5964,128252,-6140,-5680,136775,83,19237,340,1,49699,0.0010010000000000296
1317000,10294,-998,127702,9190,-3796,121591,63,19239,258,1,49700,0.0009989999999999721
1318000,12390,10754,128459,-4199,10603,123016,54,19239,221,1,49701,0.0009999999999998899
1319001,4986,-2268,125420,-2077,-2538,127626,67,19239,274,0,49702,0.0010010000000000296
1320000,6377,-6386,126527,-2267,-7246,131761,77,19228,274,0,49703,0.0009989999999999721
1321000,10157,-1808,129069,3909,3371,127239,71,19233,315,0,49704,0.001000000000000112
1322000,10175,10814,128463,-4318,7350,120199,71,19241,291,0,49705,0.0009999999999998899
1323000,4902,-2499,127118,2133,-9259,132817,58,19239,238,0,49706,0.001000000000000112
1324000,11954,-9154,127143,-1688,-7099,129333,68,19227,279,1,49707,0.0009999999999998899
1325000,10015,329,127905,-1718,2983,124537,71,19235,291,1,49708,0.001000000000000112
1326000,5635,6216,128765,-211,4837,124368,64,19235,291,1,49709,0.0009999999999998899
1327001,7990,-1549,128380,-3876,-4934,130699,56,19241,262,1,49710,0.0010010000000000296
1328000,9498,-6207,128102,-589,-2855,131287,56,19234,229,1,49711,0.0009989999999999721
1329000,7591,756,127422,3635,1928,124369,62,19236,254,1,49712,0.001000000000000112
1330000,4146,-3334,126552,178,-4018,126977,91,19231,373,0,49713,0.0009999999999998899
1331001,12924,341,127293,-8641,-690,127494,70,19240,287,0,49714,0.0010010000000000296
1332000,12092,-891,126924,3693,-299,127494,62,19240,287,0,49715,0.0009989999999999721
1333000,8976,4735,127957,8924,3028,125718,62,19241,254,0,49716,0.001000000000000112
1334000,9675,-6413,127112,-3607,-10249,130938,62,19231,254,1,49717,0.0009999999999998899
1335000,6051,-3583,127008,-5418,-1839,127168,77,19239,315,1,49718,0.001000000000000112
1336000,10744,3259,128889,7411,2491,128520,62,19237,254,1,49719,0.0009999999999998899
1337001,11053,5024,127621,6735,5183,122958,56,19243,229,1,49720,0.0010010000000000296
1338000,13051,3171,127689,-8006,311,125434,57,19243,229,1,49721,0.0009989999999999721
1339000,7176,-5253,126134,2323,-4451,127894,81,19239,233,0,49722,0.001000000000000112
1340000,8136,3755,129672,9375,2281,127918,81,19236,332,0,49723,0.0009999999999998899
1341000,10198,-5078,128453,-6255,-5591,131126,72,19237,295,0,49724,0.001000000000000112
1342002,5345,3798,129171,-6832,3775,122116,64,19238,262,0,49725,0.0010019999999999474
1343000,10675,-590,127659,8911,-2463,131171,59,19240,242,0,49726,0.0009980000000000544
1344000,11254,-833,126113,3085,-601,125526,78,19240,242,1,49727,0.0009999999999998899
1345002,7094,1946,126840,-9758,2246,125524,58,19236,319,1,49728,0.0010020000000001694
1346002,9267,4616,125643,3406,5722,125043,58,19242,238,1,49729,0.0009999999999998899
1347001,11804,5323,128447,7681,5894,126046,54,19238,221,1,49730,0.0009989999999999721
1348000,11954,-5871,127362,-5208,-7059,132020,49,19236,201,1,49731,0.0009989999999999721
1349000,5799,-1611,125833,-2399,-1571,123832,71,19232,291,0,49732,0.001000000000000112
1350000,7422,3691,129744,9341,1883,128544,66,19232,291,0,49733,0.0009999999999998899
1351000,11237,1196,127388,-6476,1060,125619,66,19234,270,0,49734,0.001000000000000112
1352001,7010,2303,127442,-5138,1303,124599,66,19241,270,0,49735,0.0010010000000000296
1353001,8458,4406,127245,10159,3782,124779,56,19239,229,0,49736,0.0009999999999998899
1354000,10220,930,126797,-1775,628,125605,74,19231,303,1,49737,0.0009989999999999721
1355002,2765,-4428,128405,-11669,-4821,129981,66,19236,270,1,49738,0.0010020000000001694
1356000,6599,4539,128787,2296,3813,125423,58,19236,238,1,49739,0.0009979999999998324
1357002,10491,1132,126049,2645,332,129081,52,19238,238,1,49740,0.0010020000000001694
1358002,8372,3712,126593,-167,2696,119789,66,19240,213,1,49741,0.0009999999999998899
1359000,7198,1501,125148,-3506,1163,130514,66,19234,270,0,49742,0.0009980000000000544
1360000,9018,167,128197,-2941,-1916,126104,81,19237,332,0,49743,0.0009999999999998899
1361000,11414,9838,131291,-4081,11319,122535,68,19235,279,0,49744,0.001000000000000112
1362000,4847,-10003,127567,3146,-11412,133983,56,19235,229,0,49745,0.0009999999999998899
1363000,813,2129,127561,2502,1977,123634,64,19238,229,0,49746,0.001000000000000112
1364000,9099,-228,127685,-9734,-2259,121448,79,19235,262,1,49747,0.0009999999999998899
1365000,6607,21698,127775,-8312,19597,118445,79,19242,324,1,49748,0.001000000000000112
1366000,12161,520,129258,11818,3228,133352,63,19240,258,1,49749,0.0009999999999998899
1367000,8219,-4713,125946,-56,-6516,125942,55,19237,225,1,49750,0.001000000000000112
1368000,7761,-7171,128456,-12651,-5816,131678,59,19237,242,1,49751,0.0009999999999998899
1369000,2915,-5,128121,4450,2358,126235,83,19233,242,0,49752,0.001000000000000112
1370000,7879,3092,128755,7420,1365,127185,75,19238,340,0,49753,0.0009999999999998899
1371000,6552,4850,126740,-19585,6987,121998,75,19235,307,0,49754,0.001000000000000112
1372000,5753,6254,127189,-2784,2478,125317,65,19240,266,0,49755,0.0009999999999998899
1373000,10735,-4457,125991,3875,-4544,128846,66,19232,270,0,49756,0.001000000000000112
1374003,6839,235,128948,-8113,-1859,126137,91,19232,373,1,49757,0.0010029999999998651
1375000,3479,-4535,128767,-6068,-5117,131754,64,19232,373,1,49758,0.0009970000000001367
1376000,6490,1327,129797,7614,1137,127207,54,19241,262,1,49759,0.0009999999999998899
1377000,11322,-1911,127996,-5424,-3115,128087,54,19241,221,1,49760,0.001000000000000112
1378000,8463,2489,126571,-2185,3253,120499,57,19235,233,1,49761,0.0009999999999998899
1379000,4277,-267,127143,18,-1727,129120,79,19231,324,0,49762,0.001000000000000112
1380000,14656,-4606,128020,-570,-3439,128244,72,19236,295,0,49763,0.0009999999999998899
1381000,7782,5518,128793,-1973,1934,126678,64,19236,295,0,49764,0.001000000000000112
1382000,6315,-1973,126905,1437,-3497,128336,60,19239,262,0,49765,0.0009999999999998899
1383000,9177,-4541,126846,1586,-6195,129028,60,19235,246,0,49766,0.001000000000000112
1384000,9452,-7622,127520,-4202,-6950,131015,83,19239,340,1,49767,0.0009999999999998899
1385000,9231,8599,128154,-1035,9094,119277,61,19235,250,1,49768,0.001000000000000112
1386001,5253,5114,128886,1355,1932,127710,63,19237,258,1,49769,0.0010010000000000296
1387000,11067,-3793,127360,-5188,-4544,128625,54,19237,258,1,49770,0.0009989999999999721
1388000,6423,-4860,127634,1266,-6658,129958,69,19237,221,1,49771,0.0009999999999998899
1389001,6165,-1622,127318,4905,-591,127061,69,19231,283,0,49772,0.0010010000000000296
1390000,11459,3730,128828,-2059,2200,123881,77,19234,315,0,49773,0.0009989999999999721
1391000,11582,-2756,127566,-5024,-2890,128944,70,19236,287,0,49774,0.001000000000000112
1392000,11467,4183,128498,6511,2967,124702,59,19237,242,0,49775,0.0009999999999998899
1393000,9760,-3985,126871,6433,-5963,130452,71,19237,242,1,49776,0.001000000000000112
1394000,8547,-1979,127914,-10121,-2617,126887,54,19230,291,1,49777,0.0009999999999998899
1395000,6682,-1912,128535,1955,-1756,129917,54,19238,221,1,49778,0.001000000000000112
1396000,9009,5010,128467,6026,4654,127240,64,19242,262,1,49779,0.0009999999999998899
1397000,14466,139,125767,-1355,97,124973,57,19235,233,1,49780,0.001000000000000112
1398000,8471,-1589,126628,-2472,-2123,125632,64,19234,262,0,49781,0.0009999999999998899
