t_us,ax,ay,az,ax1,ay1,az1,shunt_raw,bus_raw,curr_raw,pg_rpm,seq,dt
0,8168,-2573,127355,-1300,-3436,129310,42,19235,172,0,63447,
998,9727,828,127326,251,232,124568,49,19234,201,0,63448,0.000998
1998,9736,481,127460,1018,-120,127467,59,19234,242,1,63449,0.0009999999999999998
2998,10266,1378,127490,685,696,126724,45,19238,242,1,63450,0.001
3998,7836,-1834,127068,-2325,-2824,128512,42,19236,184,1,63451,0.001
4998,7634,2443,128014,-1826,1107,126765,42,19237,172,1,63452,0.001
5998,7724,3536,128441,208,3270,125045,38,19240,156,1,63453,0.001
6998,9583,-2080,127226,-601,-3065,128929,36,19238,147,1,63454,0.001
7998,10122,379,126954,1564,-840,125393,38,19239,156,1,63455,0.001
8998,9440,1330,127443,1681,551,126400,44,19239,156,1,63456,0.0009999999999999992
9998,8414,787,127249,-1141,103,126825,50,19234,180,1,63457,0.0010000000000000009
10998,6398,-379,127718,-2270,-1591,128795,50,19236,205,0,63458,0.0009999999999999992
11998,7597,5028,128145,-2286,2937,126043,50,19236,205,0,63459,0.0010000000000000009
12998,8985,2987,127895,-290,3244,124535,41,19239,168,0,63460,0.0009999999999999992
13998,9715,-4356,127229,1162,-4742,128981,42,19237,172,0,63461,0.0010000000000000009
14998,10089,-3255,127315,1859,-4875,128082,42,19237,172,0,63462,0.0009999999999999992
15998,8133,1667,128179,-382,269,126201,42,19239,172,0,63463,0.0009999999999999992
16998,8093,3803,128465,-2822,3383,127290,42,19236,172,0,63464,0.0010000000000000009
17998,6426,568,127771,-1746,-364,127953,42,19234,172,0,63465,0.0010000000000000009
18999,7289,2846,128170,-1297,1808,125780,40,19240,164,0,63466,0.0010009999999999984
19998,8615,1120,127110,-464,774,126399,43,19238,176,0,63467,0.0009989999999999999
20998,10207,-1973,127154,1917,-2503,127515,49,19238,176,1,63468,0.0010000000000000009
21998,12302,-1027,128389,1062,-1384,127174,44,19237,201,1,63469,0.0010000000000000009
22998,8105,1081,128233,-239,298,126910,44,19240,180,1,63470,0.0009999999999999974
23998,5128,-626,128131,-2365,-2390,129278,48,19232,197,1,63471,0.0010000000000000009
24998,4536,-70,127870,-3193,76,127298,43,19237,176,1,63472,0.0010000000000000009
26005,7722,4693,128008,-2074,4157,124895,36,19243,147,1,63473,0.001007000000000001
26998,11054,2567,126573,3754,1762,124770,36,19243,147,1,63474,0.0009929999999999974
27998,12044,-2182,126095,3276,-2451,126615,42,19237,147,1,63475,0.0010000000000000009
29001,9809,-2679,126677,-1772,-2686,127641,42,19236,172,1,63476,0.0010030000000000004
29998,7177,-342,128528,-2622,-364,126944,48,19233,197,1,63477,0.0009970000000000014
30998,4910,3646,129244,-2463,2188,128939,54,19238,221,0,63478,0.0009999999999999974
31998,3505,396,127354,-4456,-227,127015,43,19237,176,0,63479,0.0010000000000000009
32999,8846,2444,127415,-1338,1610,124692,37,19237,176,0,63480,0.0010010000000000019
33998,10670,-216,127148,3727,-1419,126881,39,19235,152,0,63481,0.0009989999999999999
34998,13048,-2997,126638,2266,-3438,126329,39,19236,160,0,63482,0.0010000000000000009
36000,7827,-1027,128077,1696,-1615,128423,39,19237,160,0,63483,0.001001999999999996
36999,6526,3262,128283,-6163,2724,126337,40,19238,164,0,63484,0.0009989999999999999
37998,6746,3834,128187,-1736,2483,126366,38,19239,156,0,63485,0.0009989999999999999
38999,6950,1899,127548,2184,1059,127390,38,19239,156,0,63486,0.0010010000000000019
39999,10242,270,126839,-3270,-704,125254,42,19236,156,1,63487,0.0010000000000000009
40998,10229,-2386,126970,2914,-3280,126734,38,19237,172,1,63488,0.0009989999999999999
41998,11084,-543,128319,4139,-1120,128187,38,19238,156,1,63489,0.0010000000000000009
42998,5640,-1381,127857,-5445,-2211,128485,46,19238,188,1,63490,0.0010000000000000009
43998,4604,3715,128959,-4887,2902,126201,46,19237,188,1,63491,0.000999999999999994
44998,5990,2445,127723,-102,1116,128556,38,19237,156,1,63492,0.0010000000000000009
45998,9742,2269,127260,-2285,1709,124282,34,19236,156,1,63493,0.0010000000000000009
46998,11068,-460,127317,2127,-1273,126269,37,19239,139,1,63494,0.0010000000000000009
47998,10538,-3295,126836,3803,-3986,127890,37,19238,152,1,63495,0.0010000000000000009
48998,8248,-159,128197,-1789,-1015,126834,44,19234,180,1,63496,0.0010000000000000009
49998,4662,427,128783,-3745,-542,129636,50,19232,205,0,63497,0.0010000000000000009
50998,4798,4439,128694,-4902,3483,125737,46,19239,188,0,63498,0.000999999999999994
52000,8112,2203,127708,-1612,1497,126835,38,19239,188,0,63499,0.0010020000000000029
52998,10409,406,126888,1188,-226,126090,40,19237,156,0,63500,0.0009979999999999989
53998,10852,-2672,126802,3937,-3181,126350,40,19237,164,0,63501,0.0010000000000000009
54998,9475,-1671,127661,-726,-2692,127810,43,19236,176,0,63502,0.0010000000000000009
55998,8022,1153,128460,-2022,214,127614,42,19235,172,0,63503,0.0010000000000000009
56998,5213,1358,128253,-1286,150,128452,40,19239,164,0,63504,0.0010000000000000009
57998,6164,5373,128328,-4596,4500,124816,37,19239,164,0,63505,0.000999999999999994
58998,8293,336,126945,-1474,71,127161,39,19236,152,0,63506,0.0010000000000000009
59998,9973,283,126861,2507,-1648,125908,39,19236,160,1,63507,0.0010000000000000009
60998,10152,-409,127403,-156,-568,125525,49,19237,201,1,63508,0.0010000000000000009
61998,8871,-1530,126835,1332,-2546,128507,41,19239,168,1,63509,0.0010000000000000009
62998,5892,-2396,127643,-4174,-2951,127240,43,19236,176,1,63510,0.0010000000000000009
63998,7356,2721,128355,-3342,1479,126828,38,19236,176,1,63511,0.0010000000000000009
64999,7030,3841,127350,2073,3146,125483,32,19237,156,1,63512,0.0010010000000000019
66000,9885,1101,127030,-3417,911,125358,32,19238,131,1,63513,0.0010010000000000019
66999,9932,-298,126479,853,-603,125832,34,19237,139,1,63514,0.0009989999999999999
67998,10505,-955,127158,3144,-1786,127708,38,19240,156,1,63515,0.0009989999999999999
68998,6751,-1810,127453,2018,-2975,128791,48,19234,197,1,63516,0.0010000000000000009
69998,4980,2444,128053,-6202,2963,126197,52,19234,197,0,63517,0.000999999999999987
70998,8556,6942,128461,-5947,5429,125291,40,19239,213,0,63518,0.0010000000000000009
71998,8558,1693,127423,5616,-974,126463,40,19238,164,0,63519,0.0010000000000000009
72998,10181,-4044,126756,-3314,-5770,127649,38,19235,156,0,63520,0.0010000000000000009
73998,10110,-2777,127237,2073,-2239,126630,43,19234,176,0,63521,0.0010000000000000009
74998,8583,1830,128257,2434,984,128116,39,19234,160,0,63522,0.0010000000000000009
75998,5983,3052,128420,-5652,2326,126751,42,19234,160,0,63523,0.0010000000000000009
76998,5093,2659,128340,-5795,1623,127729,39,19238,172,0,63524,0.0010000000000000009
77998,7829,1998,127932,1078,1495,126193,39,19235,160,0,63525,0.0010000000000000009
78998,8295,1901,127958,744,128,125850,40,19234,164,0,63526,0.0010000000000000009
79999,10861,-7659,125595,-1149,-8678,129037,47,19232,192,1,63527,0.0010010000000000019
80998,10150,4027,128279,6466,5879,121852,38,19238,156,1,63528,0.0009989999999999999
81998,9243,504,127826,-3408,-2449,132838,45,19238,184,1,63529,0.0010000000000000009
82998,7505,-1033,127847,-8410,789,124878,43,19236,184,1,63530,0.0010000000000000009
83998,6579,7482,129445,7111,4812,126799,39,19235,176,1,63531,0.000999999999999987
84998,6621,-3370,127341,-280,-4261,128991,39,19237,160,1,63532,0.0010000000000000009
85998,9704,-2674,127372,-11419,-3398,124594,34,19233,139,1,63533,0.0010000000000000009
86998,12068,-1994,127594,12870,-2082,130167,37,19236,152,1,63534,0.0010000000000000009
87998,7667,9138,127123,329,8525,120088,45,19236,184,1,63535,0.0010000000000000009
88998,8441,1385,128603,-11643,245,128547,50,19234,184,1,63536,0.0010000000000000009
89999,4272,-2308,127180,5266,-3246,130235,51,19235,205,0,63537,0.0010010000000000019
90998,9779,2599,129251,-2781,2319,126503,51,19236,209,0,63538,0.0009989999999999999
91999,10418,1335,128667,-3774,583,124245,41,19242,168,0,63539,0.0010010000000000019
92998,9731,-4647,126764,11282,-5704,128663,38,19235,156,0,63540,0.0009989999999999999
93998,9345,-4351,126392,-5586,-5148,128413,42,19235,172,0,63541,0.0010000000000000009
94998,7763,6563,128758,-4165,5864,123592,42,19234,172,0,63542,0.0010000000000000009
95998,7482,3506,127341,6547,2475,128093,41,19236,172,0,63543,0.0010000000000000009
96998,7185,3075,128036,-6162,2241,125193,41,19236,168,0,63544,0.0010000000000000009
97998,10307,-108,128347,-5046,-783,127345,40,19237,164,0,63545,0.0010000000000000009
98998,8736,-989,127122,12408,-1765,127552,41,19234,168,0,63546,0.000999999999999987
99998,8763,-2532,127330,-4295,-3583,127208,53,19237,217,1,63547,0.0010000000000000009
100998,10569,2511,127917,-6629,1856,124618,44,19237,217,1,63548,0.0010000000000000009
101998,8492,537,127384,6678,-331,129496,47,19238,180,1,63549,0.0010000000000000009
102999,5943,1675,128196,-1953,411,127191,47,19235,192,1,63550,0.0010010000000000019
103998,6327,-979,127351,-7931,-1319,126601,43,19236,176,1,63551,0.0009989999999999999
104998,10499,3005,128203,1307,1480,126316,37,19236,152,1,63552,0.0010000000000000009
105999,10236,2790,127776,6663,2937,125290,39,19233,160,1,63553,0.0010010000000000019
106999,9606,-2895,126237,-3228,-3622,127971,44,19233,160,1,63554,0.0010000000000000009
108000,7455,1049,127647,-1154,-187,125501,50,19235,180,1,63555,0.0010010000000000019
108998,7304,-623,128432,1272,-1327,129560,50,19230,205,0,63556,0.0009979999999999989
109998,7078,3173,128684,-5556,1698,126585,55,19235,225,0,63557,0.0010000000000000009
110998,7578,1018,128326,-941,711,127997,41,19236,168,0,63558,0.0010000000000000009
111998,9097,804,127181,113,39,124546,43,19237,176,0,63559,0.0010000000000000009
112998,9572,-1429,126661,1308,-1753,128272,46,19237,176,0,63560,0.0010000000000000009
113998,10197,-1504,127079,1247,-3194,126827,46,19234,188,0,63561,0.000999999999999987
114998,9045,2744,127886,-468,2346,125616,46,19234,188,0,63562,0.0010000000000000009
115998,7408,3104,128652,-4266,2353,127296,45,19238,184,0,63563,0.0010000000000000009
116999,7587,350,128205,-917,-1945,128408,41,19237,168,0,63564,0.0010010000000000019
117998,6761,-2068,127498,1520,-2441,127782,41,19236,168,0,63565,0.0009989999999999999
119001,8803,1625,127643,-1917,782,124876,47,19236,168,0,63566,0.0010030000000000039
119998,10239,124,126887,1961,-632,126416,59,19234,192,1,63567,0.0009969999999999979
120998,10087,1760,127987,1043,1675,126270,59,19237,242,1,63568,0.0010000000000000009
121998,9114,45,127792,-2017,-1520,127629,43,19237,176,1,63569,0.0010000000000000009
122998,6363,128,127983,-2311,-558,127346,44,19234,180,1,63570,0.0010000000000000009
123998,7239,986,128241,-183,-349,128133,37,19239,152,1,63571,0.0010000000000000009
124998,8268,27,127820,253,-330,126592,36,19239,147,1,63572,0.0010000000000000009
125998,11108,1956,127206,1352,682,125315,39,19235,147,1,63573,0.0010000000000000009
126998,9794,268,127077,856,-734,126375,46,19233,160,1,63574,0.0010000000000000009
127998,9505,725,127131,-301,127,126566,46,19238,188,1,63575,0.0010000000000000009
128998,6783,2083,128465,-2336,1746,128242,53,19239,217,0,63576,0.0010000000000000009
129998,5576,1645,127765,-3771,536,126837,52,19239,213,0,63577,0.0010000000000000009
130998,8935,-377,128637,-721,-689,128376,40,19239,164,0,63578,0.0010000000000000009
131998,8414,592,127591,2264,-326,125444,42,19241,164,0,63579,0.0010000000000000009
132998,10829,-3337,126690,985,-4122,127923,44,19236,172,0,63580,0.0010000000000000009
133998,9505,33,127480,-279,-286,125887,44,19234,180,0,63581,0.0010000000000000009
134998,9303,2245,128269,-2014,1535,127151,47,19238,192,0,63582,0.0010000000000000009
135998,6604,4020,128476,-1169,3403,126225,46,19236,188,0,63583,0.0009999999999999731
136998,5452,1690,128261,-2000,329,127692,39,19236,160,0,63584,0.0010000000000000009
137998,8119,-3496,127237,-1669,-4224,129116,40,19243,160,0,63585,0.0010000000000000009
138998,9429,511,127299,2147,-184,125206,50,19232,164,1,63586,0.0010000000000000009
139999,13009,1066,127763,1495,754,126295,50,19235,205,1,63587,0.0010010000000000019
140998,9983,1701,127786,1049,1041,125211,44,19236,180,1,63588,0.0009989999999999999
141998,6327,-2041,127907,-4115,-2906,130067,47,19233,192,1,63589,0.0010000000000000009
142998,4570,714,128147,-2821,-559,127840,42,19236,172,1,63590,0.0010000000000000009
143998,5447,2430,128493,-1791,1605,126719,35,19236,172,1,63591,0.0010000000000000009
145000,10052,921,127133,-851,337,126375,34,19237,143,1,63592,0.0010020000000000029
145998,10736,350,126565,2157,-301,124667,34,19240,139,1,63593,0.0009979999999999989
146998,11994,-1179,126869,2438,-1811,127386,41,19235,168,1,63594,0.0010000000000000009
147998,8003,1216,127361,426,326,125281,47,19233,192,1,63595,0.0010000000000000009
148998,5493,324,128777,-5311,-604,128880,53,19232,217,1,63596,0.0010000000000000009
149998,3832,3151,128896,-4989,2134,127032,46,19232,217,0,63597,0.0010000000000000009
150998,7665,682,127270,-232,36,127721,41,19239,188,0,63598,0.0010000000000000009
151998,10083,-1407,126315,963,-2530,126799,41,19238,168,0,63599,0.0010000000000000009
152998,11413,-878,126033,2280,-1371,124451,42,19235,172,0,63600,0.0010000000000000009
153998,11910,858,127610,759,-298,126879,41,19237,168,0,63601,0.0010000000000000009
154998,7881,2751,128542,329,2075,126233,41,19236,168,0,63602,0.0010000000000000009
155999,5593,1085,128405,-3538,127,128928,39,19236,168,0,63603,0.0010010000000000019
157000,4715,2583,128291,-3418,1333,126333,38,19238,160,0,63604,0.0010010000000000019
158000,8107,-738,127299,-42,-908,128082,38,19238,156,0,63605,0.0010000000000000009
159000,10634,-306,126558,2051,-1542,124872,43,19234,176,1,63606,0.0010000000000000009
159998,12924,1250,127032,1708,-2,126446,36,19236,147,1,63607,0.0009979999999999989
160999,9911,66,127767,-123,798,126486,46,19235,188,1,63608,0.0010010000000000019
161998,5261,258,128571,-1571,-1031,129592,45,19235,188,1,63609,0.0009989999999999999
162998,4536,137,128879,-4345,-2282,128224,40,19240,184,1,63610,0.0010000000000000009
163998,6920,356,127480,-2923,1126,126494,40,19240,164,1,63611,0.0010000000000000009
164998,9803,5949,128044,431,4518,122757,35,19239,143,1,63612,0.0010000000000000009
165999,11443,-1784,126060,2281,-4083,127644,37,19233,152,1,63613,0.0010009999999999741
166998,9669,-2491,127229,14,-2217,127842,45,19234,184,1,63614,0.0009989999999999999
168001,7147,1313,128418,-2981,487,127308,48,19234,184,1,63615,0.0010030000000000039
168998,5508,3018,129047,-4363,2872,126792,43,19233,197,0,63616,0.0009969999999999979
169998,6482,3614,129095,-826,650,127932,43,19241,176,0,63617,0.0010000000000000009
170998,8340,-3277,126813,-2108,-4084,128602,39,19234,160,0,63618,0.0010000000000000009
171998,10236,-205,126423,3162,-675,123938,40,19235,164,0,63619,0.0010000000000000009
172998,10218,643,127040,2281,-322,126124,41,19237,168,0,63620,0.0010000000000000009
173998,9953,2168,128001,-4830,1615,126344,41,19237,168,0,63621,0.0010000000000000009
174998,6312,-102,128562,-1054,-1382,130041,40,19236,168,0,63622,0.0010000000000000009
175998,5688,1625,128434,-1248,1203,127005,37,19238,164,0,63623,0.0010000000000000009
176998,7024,1855,127575,-1921,602,125609,37,19237,152,0,63624,0.0010000000000000009
177998,8644,-2324,126582,21,-2981,127738,42,19236,172,0,63625,0.0010000000000000009
178998,11253,2249,127257,-221,1867,123846,49,19234,201,1,63626,0.0010000000000000009
179998,10152,2503,127437,3407,1796,126408,41,19234,168,1,63627,0.0010000000000000009
180998,6936,-407,127460,-3893,-1457,127513,45,19236,168,1,63628,0.0010000000000000009
181998,6124,-1088,128384,-5780,-2093,129119,39,19235,184,1,63629,0.0010000000000000009
182998,7075,79,128244,3881,-577,128798,39,19240,160,1,63630,0.0010000000000000009
183998,8381,4202,128010,-1169,3296,124077,33,19239,135,1,63631,0.0010000000000000009
184998,10355,-194,126338,-2062,-1046,125252,33,19235,135,1,63632,0.0010000000000000009
186000,11663,357,126571,2766,-395,125551,39,19235,160,1,63633,0.0010020000000000029
186998,8319,312,127367,3223,-665,127722,46,19235,160,1,63634,0.0009979999999999989
188000,5633,737,127950,-5551,-120,127449,50,19236,188,0,63635,0.0010020000000000029
188998,5520,1649,128789,-5428,797,127838,50,19236,205,0,63636,0.0009979999999999989
189998,8416,2092,128580,2690,1680,127340,40,19238,164,0,63637,0.0010000000000000009
190999,9572,272,127075,-1063,-551,125500,38,19238,156,0,63638,0.0010010000000000019
191999,10081,-3386,126919,-175,-3982,126645,40,19238,164,0,63639,0.0010000000000000009
193000,9318,741,127718,739,-245,126694,42,19238,164,0,63640,0.0010010000000000019
193998,7604,-1830,127377,-507,-2523,128989,40,19236,172,0,63641,0.0009979999999999989
194998,5569,5696,128264,-1953,3943,124723,40,19239,164,0,63642,0.0010000000000000009
195998,7012,4617,128650,-3229,5147,128232,40,19240,164,0,63643,0.0009999999999999731
196999,9205,-1617,126704,-1506,-3353,127194,40,19234,164,0,63644,0.0010010000000000019
197999,9880,3147,128604,2605,2993,124650,46,19229,188,1,63645,0.0010000000000000009
198998,8624,-2019,127698,-1221,-2401,126371,46,19229,188,1,63646,0.0009989999999999999
199998,8101,-4542,127789,-1459,-5627,130570,45,19240,188,1,63647,0.0010000000000000009
200998,6322,-2393,127787,-1401,-4453,131286,45,19236,184,1,63648,0.0010000000000000009
201999,7782,11766,128075,-1093,9180,121029,42,19240,172,1,63649,0.0010010000000000019
202999,7764,6401,128259,1684,8527,125116,40,19235,164,1,63650,0.0010000000000000009
203998,14146,-7575,126681,-9636,-8420,129497,37,19236,152,1,63651,0.0009989999999999999
204998,10968,-27,128239,11758,-375,130718,37,19236,152,1,63652,0.0010000000000000009
205998,6850,-5390,127238,4571,-7182,125459,43,19237,152,1,63653,0.0010000000000000009
206998,5245,1267,127807,-15626,424,127246,43,19236,176,1,63654,0.0010000000000000009
207998,4071,2865,128093,5053,-761,129543,49,19232,201,0,63655,0.0010000000000000009
208998,6676,14972,128193,-1197,12609,118266,56,19237,229,0,63656,0.0010000000000000009
209999,12099,-714,126472,-11994,-4443,128385,39,19239,160,0,63657,0.0010010000000000019
210998,10544,-6232,127197,12627,-7444,129104,41,19239,160,0,63658,0.0009989999999999999
211998,14952,-8229,127972,1916,-7864,129652,41,19236,168,0,63659,0.0010000000000000009
212998,5054,-1221,128814,-3014,-734,128165,41,19235,168,0,63660,0.0010000000000000009
213998,7560,4009,128179,755,3773,126733,43,19238,176,0,63661,0.0010000000000000009
214998,2403,9612,127279,-7292,9093,122631,40,19236,164,0,63662,0.0010000000000000009
215998,8784,5899,127378,-7910,3155,124858,39,19238,160,0,63663,0.0010000000000000009
216998,13217,-1972,126258,13813,-3141,127146,42,19238,172,0,63664,0.0010000000000000009
217998,8637,-3025,127247,2917,-3887,127834,51,19234,172,1,63665,0.0010000000000000009
218998,12718,-1994,128548,-10628,-2769,126563,44,19239,209,1,63666,0.0010000000000000009
219998,7334,-2397,127976,10540,-3800,131646,44,19236,180,1,63667,0.0010000000000000009
220998,6859,138,128518,-3178,810,127320,46,19233,188,1,63668,0.0010000000000000009
221998,2767,7720,127889,-9686,6122,122126,43,19235,176,1,63669,0.0010000000000000009
222998,8740,430,127147,-4182,-298,127606,36,19235,147,1,63670,0.0010000000000000009
223998,12335,3426,127865,11075,2929,124676,35,19238,147,1,63671,0.0010000000000000009
224999,9979,-3423,126351,-561,-4589,128823,42,19237,143,1,63672,0.0010009999999999741
225998,10080,-483,127570,-2513,-832,125245,42,19236,172,1,63673,0.0009989999999999999
226999,6054,-2909,128071,3055,-4303,131694,49,19236,201,1,63674,0.0010010000000000019
227999,9260,1980,128278,-6263,2575,126163,53,19235,217,0,63675,0.0010000000000000009
228998,5625,6915,129580,-607,5746,124229,41,19235,168,0,63676,0.0009989999999999999
229999,8032,-4278,126480,-3725,-5312,128551,40,19236,168,0,63677,0.0010010000000000019
230998,9171,-1882,126979,3058,-2650,126449,44,19236,164,0,63678,0.0009989999999999999
231998,10151,-706,127227,1696,-1388,128051,44,19237,180,0,63679,0.0010000000000000009
232998,9736,3839,127447,437,3042,124460,44,19236,180,0,63680,0.0010000000000000009
233998,7027,-1099,127629,-2742,-2004,129679,44,19239,180,0,63681,0.0010000000000000009
234998,9175,4725,128386,-2621,3895,124829,40,19236,164,0,63682,0.0010000000000000009
235998,6110,1080,128019,2225,344,126944,41,19236,164,0,63683,0.0010000000000000009
236998,8416,-1877,128036,-3585,-2668,127379,45,19230,168,0,63684,0.0010000000000000009
237998,8233,-2358,127273,1332,-3128,127722,45,19236,184,1,63685,0.0010000000000000009
238998,9099,886,127711,-420,-352,127519,57,19233,233,1,63686,0.0010000000000000009
239999,10611,4446,127476,72,4022,124057,45,19232,184,1,63687,0.0010010000000000019
240998,7396,-3012,126761,-1534,-3948,130118,44,19234,180,1,63688,0.0009989999999999999
241998,8588,3738,128065,-2140,2425,124448,40,19234,180,1,63689,0.0010000000000000009
242998,7363,1628,128025,1266,1361,127219,36,19236,164,1,63690,0.0010000000000000009
243998,10140,-20,127633,-1143,-768,126482,36,19236,147,1,63691,0.0010000000000000009
244998,8945,-2203,127155,2232,-2836,127550,36,19234,147,1,63692,0.0010000000000000009
245998,9808,-334,127210,-170,-2113,127618,40,19236,164,1,63693,0.0010000000000000009
246998,8470,3050,128034,-174,2755,124710,49,19235,201,1,63694,0.0010000000000000009
247998,6189,-313,127310,-1959,-1713,129752,55,19235,201,0,63695,0.0010000000000000009
249000,8875,5577,128006,-3522,3799,124142,43,19239,225,0,63696,0.0010020000000000029
249998,7841,834,127780,1114,1353,126773,43,19237,176,0,63697,0.0009979999999999989
250998,10415,-2486,127228,1378,-2980,127502,42,19239,172,0,63698,0.0010000000000000009
251998,9303,-4106,127004,1894,-5071,128819,42,19235,172,0,63699,0.0010000000000000009
252998,8874,1715,128114,-1682,-1062,125012,44,19239,180,0,63700,0.0010000000000000009
253998,8051,4269,128408,-1865,4339,127111,42,19239,180,0,63701,0.0010000000000000009
254998,5852,1202,127973,-1564,108,128092,42,19242,172,0,63702,0.0010000000000000009
255998,7327,2292,127691,-2610,849,125807,42,19237,172,0,63703,0.0010000000000000009
256998,7863,-349,127254,184,-1487,126875,44,19236,180,0,63704,0.0010000000000000009
257998,11267,-747,127303,929,-1703,127031,51,19236,209,1,63705,0.0010000000000000009
258998,11547,-1389,127176,3234,-2198,127417,44,19234,180,1,63706,0.0010000000000000009
259998,7767,1795,128123,-713,1507,126176,47,19234,180,1,63707,0.0010000000000000009
260998,5451,1972,128194,-2724,-1000,127854,44,19236,192,1,63708,0.0010000000000000009
261998,4929,-23,128026,-2189,-563,128817,44,19237,180,1,63709,0.0010000000000000009
262998,9251,3632,128324,-944,1889,125489,39,19238,160,1,63710,0.0010000000000000009
263998,9280,960,126822,2365,525,125030,36,19237,147,1,63711,0.0010000000000000009
264998,11793,-547,127288,1189,-2112,127055,40,19236,164,1,63712,0.0010000000000000009
265998,10662,-2934,126657,1114,-3037,127342,46,19236,188,1,63713,0.0010000000000000009
266998,6398,3194,128449,-2074,2843,126952,52,19231,188,1,63714,0.0010000000000000009
267998,4500,3595,128746,-6689,2479,126322,48,19233,213,0,63715,0.0010000000000000009
268998,5683,1652,128261,-1990,469,127479,48,19235,197,0,63716,0.0010000000000000009
269999,9801,-2128,127448,1595,-3106,128555,40,19236,164,0,63717,0.0010009999999999741
270998,11167,-838,126687,3461,-1384,124206,41,19235,168,0,63718,0.0009989999999999721
271998,11193,-1729,126637,1040,-2611,127578,41,19235,168,0,63719,0.0010000000000000009
272998,8995,318,127791,-2053,103,126810,43,19238,168,0,63720,0.0010000000000000009
273999,7158,5608,128860,-1437,4675,126488,41,19235,176,0,63721,0.0010010000000000296
274998,5664,2603,127957,-2245,1456,127396,41,19240,168,0,63722,0.0009989999999999721
275998,6400,732,127493,-1911,-370,125752,37,19237,152,0,63723,0.0010000000000000009
277000,9861,-3040,126814,1173,-3686,128907,42,19236,172,1,63724,0.0010020000000000029
277998,11314,402,127357,2718,-690,124735,36,19235,147,1,63725,0.0009979999999999989
278998,10563,957,128089,1076,370,126650,47,19235,147,1,63726,0.0010000000000000009
279999,6481,-334,127781,-4252,-1512,128372,47,19234,192,1,63727,0.0010010000000000296
280998,4920,1378,128577,-2796,359,127484,47,19240,192,1,63728,0.0009989999999999721
281998,5993,2348,128133,-2048,1302,128413,40,19237,164,1,63729,0.0010000000000000009
282998,9248,2550,127107,-988,1868,124046,34,19240,139,1,63730,0.0010000000000000009
283998,10228,-401,127125,1746,-1037,126438,35,19235,143,1,63731,0.0010000000000000009
284998,10843,-1116,127055,2289,-1816,126471,44,19235,143,1,63732,0.0010000000000000009
285998,7680,-838,127628,-255,-1798,127745,50,19232,180,1,63733,0.0010000000000000009
286998,5366,1180,128809,-5160,252,128279,50,19236,205,0,63734,0.0010000000000000009
287998,5653,3315,128954,-4544,2738,126526,54,19237,221,0,63735,0.0010000000000000009
288998,8624,981,128151,598,400,127609,40,19237,164,0,63736,0.0010000000000000009
290003,9653,-1065,126656,580,-1583,126362,37,19237,152,0,63737,0.0010050000000000336
291000,10280,-2009,126441,1920,-2814,126044,41,19237,152,0,63738,0.0009969999999999701
291998,9299,541,127584,675,-627,126544,41,19235,168,0,63739,0.0009979999999999989
292999,7704,2657,128309,-2727,2136,126868,41,19236,168,0,63740,0.0010010000000000296
293998,5847,1341,128345,-3483,-436,128854,42,19238,172,0,63741,0.0009989999999999721
295001,6362,1608,128244,-2014,209,125950,38,19235,156,0,63742,0.0010030000000000316
296000,8636,-813,126534,382,-1311,128137,38,19234,156,0,63743,0.0009989999999999721
296998,9643,-1758,126968,-784,-3642,126019,46,19234,156,1,63744,0.0009979999999999989
297999,10072,1996,128003,-250,2293,125324,38,19233,188,1,63745,0.0010010000000000296
298999,9053,-401,126325,2671,-1609,125630,38,19235,156,1,63746,0.0009999999999999454
299998,5826,2583,128957,-6208,1654,128297,45,19237,184,1,63747,0.0009990000000000276
301001,6230,-2409,127979,-2438,-2501,129724,40,19236,164,1,63748,0.0010029999999999761
301998,7581,3205,127943,2222,700,124103,34,19237,139,1,63749,0.0009970000000000256
302998,10092,1483,127620,-2366,-1156,127061,33,19237,139,1,63750,0.0010000000000000009
303999,11151,-1332,126021,497,-1065,124165,37,19236,135,1,63751,0.0010009999999999741
304999,10143,1066,127657,3602,-586,128341,37,19235,152,1,63752,0.0010000000000000009
305998,6515,-916,127461,1080,-919,127424,47,19236,192,1,63753,0.0009990000000000276
306998,5291,3726,128529,-7199,2671,126671,50,19232,205,0,63754,0.0010000000000000009
307998,7736,1903,128366,2409,693,129079,39,19235,160,0,63755,0.0010000000000000009
309000,9962,1818,127223,307,1101,124020,38,19235,156,0,63756,0.0010020000000000029
309998,9510,-2364,126665,-574,-4249,127234,40,19236,156,0,63757,0.0009979999999999989
310998,10463,-2354,126962,550,-2553,126767,40,19237,164,0,63758,0.0010000000000000009
311998,8136,1390,128223,1642,777,128071,42,19237,172,0,63759,0.0010000000000000009
312998,5533,3837,129056,-6752,3242,127490,40,19236,164,0,63760,0.0010000000000000009
313998,5233,2469,128047,-2894,1242,127332,41,19242,168,0,63761,0.0010000000000000009
314998,6636,608,127923,260,-144,127535,39,19242,160,0,63762,0.0010000000000000009
315998,10386,-2917,125585,127,-4510,126432,46,19235,160,0,63763,0.0010000000000000009
316998,11179,2758,126863,5326,3613,122024,49,19236,188,1,63764,0.0010000000000000009
317999,11231,1949,127522,-3531,84,128909,49,19235,201,1,63765,0.0010009999999999741
318998,8627,-1633,128282,-2944,-1457,127592,42,19236,172,1,63766,0.0009990000000000276
319998,5572,2097,129106,1174,682,129165,45,19239,184,1,63767,0.0010000000000000009
320998,5584,-764,128200,891,-1677,128703,38,19239,156,1,63768,0.0010000000000000009
321998,6051,-1919,127131,-8439,-2773,125807,35,19236,156,1,63769,0.0010000000000000009
322999,14778,2761,128002,2915,3049,126096,38,19238,143,1,63770,0.0010009999999999741
323998,11119,5506,126246,7147,4667,121538,38,19238,156,1,63771,0.0009990000000000276
324998,8087,153,128022,-4126,-819,127832,44,19232,180,1,63772,0.0010000000000000009
325998,6039,-6173,126581,-3499,-7061,130858,51,19237,209,1,63773,0.0010000000000000009
326999,3885,5163,129912,1311,4284,127106,53,19235,217,0,63774,0.0010009999999999741
327999,10220,1607,128242,-8737,991,126916,39,19235,217,0,63775,0.0010000000000000009
328998,10020,1288,127536,6095,400,123665,40,19241,160,0,63776,0.0009990000000000276
329998,9505,-6602,125427,3665,-7518,130204,40,19233,164,0,63777,0.0009999999999999454
330998,10342,1517,127894,-6893,861,124088,41,19236,168,0,63778,0.0010000000000000009
331998,8564,892,127427,3811,-98,128829,43,19236,176,0,63779,0.0010000000000000009
332998,5811,4670,128520,2961,3307,127091,41,19241,168,0,63780,0.0010000000000000009
333998,5513,2817,128044,-12000,2341,124711,38,19241,168,0,63781,0.0010000000000000009
334998,10083,-2190,127584,1676,-2996,129398,40,19235,156,0,63782,0.0010000000000000009
335999,9384,476,126670,9817,-847,125435,40,19233,164,1,63783,0.0010010000000000296
336998,9613,1391,128321,-6403,1063,125102,50,19237,205,1,63784,0.0009989999999999721
337998,11090,294,127820,-3907,608,126015,43,19235,176,1,63785,0.0010000000000000009
338999,7104,-3270,128372,7322,-3990,131509,46,19238,188,1,63786,0.0010010000000000296
339998,5871,1999,128384,-4678,161,127182,44,19238,188,1,63787,0.0009989999999999721
340998,5580,636,127967,-5406,531,126445,39,19238,180,1,63788,0.0010000000000000009
341998,10894,3502,127618,-653,1370,126376,39,19235,160,1,63789,0.0010000000000000009
342998,11215,3307,127132,5680,4236,123855,35,19238,143,1,63790,0.0010000000000000009
343998,9261,-1887,126165,-857,-2802,127586,42,19236,172,1,63791,0.0010000000000000009
344998,7582,-1767,128279,-1804,-1719,129829,50,19237,205,1,63792,0.0010000000000000009
345998,7098,-2860,128176,-64,-5194,129720,54,19237,205,0,63793,0.0010000000000000009
346998,6468,6349,129729,-3933,4834,124530,40,19232,221,0,63794,0.0010000000000000009
347998,7593,818,127493,-1158,1453,127737,40,19236,164,0,63795,0.0010000000000000009
348998,9026,-232,126768,-1715,-1141,124880,40,19236,164,0,63796,0.0010000000000000009
349998,10544,-1728,126330,3013,-2297,127539,41,19236,168,0,63797,0.0010000000000000009
351001,10608,1609,127417,-702,1501,125691,44,19235,180,0,63798,0.0010030000000000316
351998,8685,864,127953,-1325,-195,127790,43,19235,180,0,63799,0.0009969999999999701
352998,6685,1445,128791,-3233,1262,127922,43,19236,176,0,63800,0.0010000000000000009
353998,7581,499,127948,901,-1363,128213,43,19239,176,0,63801,0.0010000000000000009
354998,7072,-1164,127188,-862,-1572,126646,40,19238,164,0,63802,0.0010000000000000009
355998,9560,2092,127199,-1607,1160,124508,46,19235,188,0,63803,0.0010000000000000009
356998,10317,1271,126937,1485,1167,125727,55,19234,225,1,63804,0.0010000000000000009
357998,10573,1849,128170,1556,439,127311,42,19234,172,1,63805,0.0010000000000000009
358998,7833,-2724,127351,-2726,-3910,129528,45,19235,172,1,63806,0.0010000000000000009
359998,5727,894,128038,-2763,687,126389,39,19240,184,1,63807,0.0010000000000000009
360998,8039,2921,128656,540,926,127641,39,19235,160,1,63808,0.0010000000000000009
361998,8854,1337,127685,861,829,126009,37,19240,152,1,63809,0.0010000000000000009
362998,10330,1649,127202,190,435,125237,38,19238,156,1,63810,0.0010000000000000009
363998,10831,176,126955,1406,159,125245,44,19238,180,1,63811,0.0010000000000000009
364998,8963,1495,128103,1100,-28,127868,48,19234,180,1,63812,0.0010000000000000009
365998,6183,-1826,127648,-2739,-2480,129276,55,19238,197,0,63813,0.0010000000000000009
366998,5273,4061,128975,-4780,3003,126066,55,19234,225,0,63814,0.0010000000000000009
367998,8867,1680,128616,408,1116,126597,41,19239,168,0,63815,0.0010000000000000009
368998,10061,-816,126819,1899,-1816,126277,42,19236,172,0,63816,0.0010000000000000009
369998,10557,-4466,126558,2239,-5034,128468,43,19236,176,0,63817,0.0010000000000000009
370998,9578,1882,127670,-2004,1382,124472,43,19234,176,0,63818,0.0010000000000000009
371998,8482,3483,128561,-1453,2521,127204,41,19234,176,0,63819,0.0010000000000000009
372998,5836,545,128496,-1325,-331,129025,41,19239,168,0,63820,0.0010000000000000009
373999,6043,780,127955,-2541,-81,127421,40,19237,164,0,63821,0.0010009999999999741
374998,7940,702,127215,-695,-240,126208,41,19241,168,0,63822,0.0009990000000000276
375999,10796,1346,127220,1413,758,124976,48,19234,197,1,63823,0.0010009999999999741
376998,12870,-1867,127547,2590,-2015,128243,42,19234,197,1,63824,0.0009990000000000276
377998,9183,1646,128237,-300,904,125536,47,19236,172,1,63825,0.0010000000000000009
379000,5460,-482,128551,-3607,-1311,128923,47,19236,192,1,63826,0.0010020000000000029
379998,4572,-146,128192,-3269,-1468,129114,48,19232,197,1,63827,0.0009979999999999989
380998,6492,1579,128256,-1903,460,127600,38,19242,156,1,63828,0.0010000000000000009
381998,9963,3450,127177,255,2663,124867,35,19238,143,1,63829,0.0010000000000000009
382998,11614,782,126247,1379,696,123974,39,19238,143,1,63830,0.0010000000000000009
384001,11153,-2860,126863,2936,-3626,128206,47,19232,160,1,63831,0.0010029999999999761
384998,7650,205,127776,-550,-752,126674,47,19233,192,1,63832,0.0009970000000000256
385998,4776,1687,129120,-5207,779,128144,52,19231,213,0,63833,0.0010000000000000009
386998,3847,2586,128740,-5116,1944,127273,55,19236,225,0,63834,0.0010000000000000009
387998,8852,-980,126785,-197,-1746,128265,39,19234,160,0,63835,0.0010000000000000009
388999,10338,1201,126835,1909,2,125093,39,19234,160,0,63836,0.0010009999999999741
389998,12637,-2083,126078,1942,-1739,125077,43,19236,160,0,63837,0.0009989999999999721
390998,10578,616,127652,1090,-1402,127067,43,19236,176,0,63838,0.0010000000000000009
391998,7466,2990,128831,-706,2292,128346,42,19239,172,0,63839,0.0010000000000000009
392999,4850,1502,128304,-3386,441,127439,39,19235,160,0,63840,0.0010010000000000296
393998,4860,2681,127874,-3137,777,127267,36,19239,147,0,63841,0.0009989999999999721
395003,9900,-2123,126328,625,-3357,126928,38,19239,147,0,63842,0.0010050000000000336
396001,10479,3438,126958,2704,3326,123060,40,19231,156,1,63843,0.0009979999999999989
396998,12551,-2053,126817,1914,-2444,127921,40,19236,164,1,63844,0.0009969999999999701
397998,9265,-333,128211,-2019,-121,127390,45,19232,184,1,63845,0.0010000000000000009
398998,4155,-142,128682,-635,-1523,129701,47,19235,192,1,63846,0.0010000000000000009
399998,4492,1264,128471,-3798,1177,127440,41,19237,168,1,63847,0.0010000000000000009
400998,7144,2137,127793,-2003,979,125445,35,19237,143,1,63848,0.0010000000000000009
401998,11569,962,126424,3020,287,125620,37,19236,143,1,63849,0.0010000000000000009
402998,11955,599,126423,4601,-170,125178,42,19235,152,1,63850,0.0010000000000000009
403998,8492,-1482,127222,-2129,-2545,127572,42,19235,172,1,63851,0.0010000000000000009
404998,6871,215,128380,-5467,-451,128283,49,19235,201,1,63852,0.0010000000000000009
405998,4611,2328,129238,-1080,1829,128423,54,19238,221,0,63853,0.0010000000000000009
406998,7016,2767,128247,-1616,989,126809,40,19238,164,0,63854,0.0010000000000000009
407998,8098,-543,126613,-2613,-1372,126075,41,19236,164,0,63855,0.0010000000000000009
409001,11383,-973,126236,4079,-1354,125338,40,19238,168,0,63856,0.0010030000000000316
409998,10656,204,126966,3286,-559,126641,40,19239,164,0,63857,0.0009969999999999701
410998,8836,2335,128447,-5698,1840,126528,44,19236,180,0,63858,0.0010000000000000009
411998,5856,-521,128713,-1770,-1960,129867,41,19237,168,0,63859,0.0010000000000000009
412998,5395,1309,128606,-644,695,127283,40,19237,164,0,63860,0.0010000000000000009
413998,7616,2377,127785,-1839,1148,126418,38,19242,164,0,63861,0.0010000000000000009
414998,9042,-2538,125919,-489,-3117,126744,45,19235,156,0,63862,0.0010000000000000009
415998,11436,3611,127494,-192,3226,123195,45,19235,184,1,63863,0.0010000000000000009
416998,10331,442,127410,4749,-561,128067,36,19239,147,1,63864,0.0010000000000000009
417998,6248,-626,127881,-6247,-1511,127178,45,19235,184,1,63865,0.0010000000000000009
418998,5897,-1669,128372,-4843,-2774,130302,42,19234,172,1,63866,0.0010000000000000009
419998,6165,1779,128245,3561,897,127339,34,19234,172,1,63867,0.0010000000000000009
420998,7981,4012,127660,-900,3374,124252,34,19242,139,1,63868,0.0010000000000000009
421998,9993,-1393,126126,-2112,-2332,126235,34,19236,139,1,63869,0.0010000000000000009
422998,11375,1678,127014,2200,917,124388,38,19236,156,1,63870,0.0010000000000000009
423998,9809,344,127736,3905,-403,128834,46,19233,188,1,63871,0.0010000000000000009
424998,6051,416,128187,-6384,-716,127058,49,19233,201,0,63872,0.0010000000000000009
425998,4761,1062,128755,-4978,-186,128713,39,19233,201,0,63873,0.0010000000000000009
426998,7937,2750,128144,2771,1834,127043,41,19237,160,0,63874,0.0010000000000000009
428002,10277,114,126731,322,-58,123868,41,19238,168,0,63875,0.0010040000000000049
429001,10386,-3912,126278,-1083,-4429,127422,42,19236,172,0,63876,0.0009989999999999721
429998,9604,-901,126819,3743,-1793,125071,41,19237,168,0,63877,0.0009970000000000256
430998,9024,3594,128756,-76,2638,129137,42,19235,172,0,63878,0.0010000000000000009
431998,5736,1912,128296,-8501,1030,128158,40,19235,172,0,63879,0.0010000000000000009
433000,5978,3737,128470,-813,3041,124788,39,19239,164,0,63880,0.0010020000000000029
433998,7158,500,127386,2685,-55,128594,39,19238,160,0,63881,0.0009979999999999989
434998,7996,-3582,126537,-3149,-3885,125641,43,19234,176,1,63882,0.0010000000000000009
436000,8558,-2012,127732,-1439,-3855,128443,54,19234,221,1,63883,0.0010020000000000029
437000,11621,4330,126791,1810,2143,125207,44,19233,180,1,63884,0.0010000000000000009
438000,9383,5998,129105,4970,5901,124065,46,19233,180,1,63885,0.0010000000000000009
438999,5415,-5365,127295,-9596,-3773,130633,40,19237,188,1,63886,0.0009989999999999721
439998,9223,1832,128932,-2149,-2173,124739,40,19236,164,1,63887,0.0009990000000000276
440998,8220,2453,128418,8642,4048,126849,36,19235,147,1,63888,0.0010000000000000009
441998,11125,-3219,126409,-3927,-3669,125531,35,19232,143,1,63889,0.0010000000000000009
442998,6392,-4600,126144,-3428,-5536,130633,42,19236,172,1,63890,0.0010000000000000009
443998,7378,7610,127595,3516,10276,122784,48,19236,197,1,63891,0.0010000000000000009
444998,8001,11339,128021,-3501,8312,123077,55,19237,197,0,63892,0.0010000000000000009
445998,5635,-2399,128087,-3936,-5722,131011,38,19234,225,0,63893,0.0010000000000000009
446998,11732,-7173,126910,-2797,-6459,128003,38,19236,156,0,63894,0.0010000000000000009
447998,11905,-2211,129223,9139,-3368,128495,38,19235,156,0,63895,0.0010000000000000009
448998,8504,-3667,126549,-6301,-3709,126106,40,19243,164,0,63896,0.0009999999999999454
449998,6900,3436,127628,-4586,3813,125706,42,19243,172,0,63897,0.0010000000000000009
450998,5971,8732,128269,1429,8214,126667,40,19237,172,0,63898,0.0010000000000000009
451998,7836,4531,126836,-2534,2011,124429,40,19236,164,0,63899,0.0010000000000000009
452998,7524,-2746,127094,-2132,-3516,127287,40,19239,164,0,63900,0.0010000000000000009
453998,11492,-846,127945,7881,-1806,126778,39,19240,160,0,63901,0.0010000000000000009
454998,10866,-2939,127793,-176,-3930,129317,50,19235,205,1,63902,0.0010000000000000009
455998,9523,-1033,128296,-3579,-1969,127785,41,19235,168,1,63903,0.0010000000000000009
456998,7818,920,126804,1240,211,127004,46,19234,168,1,63904,0.0010000000000000009
457998,5498,5909,128666,-4778,5178,124577,45,19237,188,1,63905,0.0010000000000000009
458998,6013,338,127421,-2564,-1668,128918,45,19238,184,1,63906,0.0010000000000000009
459998,8347,-2258,126753,-1110,-2150,127101,38,19238,156,1,63907,0.0010000000000000009
460998,12039,7961,128908,6855,7032,120968,36,19236,147,1,63908,0.0010000000000000009
461998,9911,-3292,126540,-212,-4706,129945,41,19236,168,1,63909,0.0010000000000000009
462998,10153,-4287,127448,-2993,-4770,128757,48,19233,168,1,63910,0.0010000000000000009
463998,6685,-480,128308,371,-1392,129359,55,19236,197,1,63911,0.0010000000000000009
464998,7302,7904,129210,-4902,7166,123629,55,19233,225,0,63912,0.0010000000000000009
465998,5523,3081,129056,-2901,2283,125206,44,19236,180,0,63913,0.0010000000000000009
466998,8048,-7153,126106,845,-8313,132928,40,19235,164,0,63914,0.0010000000000000009
467998,9607,2762,126912,3769,2052,122526,42,19235,172,0,63915,0.0010000000000000009
468998,9550,168,126909,-1030,-173,126708,45,19235,172,0,63916,0.0010000000000000009
470000,11420,1519,127229,596,740,125863,45,19234,184,0,63917,0.0010020000000000029
470998,8539,-114,128383,-1618,-972,129059,45,19238,184,0,63918,0.0009979999999999989
471998,7299,3474,128831,-4347,2571,126295,42,19239,172,0,63919,0.0010000000000000009
472998,6049,-2032,127445,1420,-2770,127884,39,19238,160,0,63920,0.0010000000000000009
474000,7165,-1488,127596,-1418,-2970,128339,46,19231,188,0,63921,0.0010020000000000029
474998,9622,3442,127412,38,2930,124002,54,19231,188,1,63922,0.0009979999999999989
475998,9832,305,127002,556,-215,127073,42,19235,221,1,63923,0.0010000000000000009
476998,11688,734,126971,950,91,125993,42,19235,172,1,63924,0.0010000000000000009
477998,8199,-633,127690,-3158,-1863,128272,47,19235,192,1,63925,0.0010000000000000009
478998,7096,3979,129154,-1193,2964,125647,41,19233,168,1,63926,0.0010000000000000009
479998,6691,-2292,127888,24,-2296,129561,34,19235,139,1,63927,0.0010000000000000009
480998,8323,-169,127476,-991,-2331,127420,36,19235,139,1,63928,0.0010000000000000009
481999,10585,2060,127242,3000,1695,124302,42,19236,147,1,63929,0.0010009999999999741
482998,10208,145,126734,847,-835,126767,42,19234,172,1,63930,0.0009990000000000276
484002,8386,919,127348,-1175,83,126649,47,19234,192,1,63931,0.0010040000000000049
484998,6675,2461,128053,-2409,653,126319,55,19237,225,0,63932,0.0009959999999999969
485998,6296,5193,128819,-1848,4792,125948,42,19235,172,0,63933,0.0010000000000000009
486998,7863,-4200,127407,248,-3389,130291,41,19235,172,0,63934,0.0010000000000000009
487999,9353,-3756,126992,1402,-5700,126336,43,19234,168,0,63935,0.0010009999999999741
488998,10844,160,127611,2150,-1374,126468,43,19240,176,0,63936,0.0009990000000000276
489998,9452,3643,128087,-1481,3375,124942,44,19233,180,0,63937,0.0010000000000000009
490998,8781,2330,128031,-2449,646,128549,43,19236,176,0,63938,0.0010000000000000009
491998,5450,1593,128030,-1972,1453,127341,42,19234,172,0,63939,0.0010000000000000009
492998,6736,2019,127919,-1383,115,126395,40,19234,164,0,63940,0.0010000000000000009
493998,7812,-3088,127219,994,-3798,128539,47,19237,164,1,63941,0.0010000000000000009
494998,10555,-431,127332,1100,-87,125230,41,19236,192,1,63942,0.0010000000000000009
495998,12920,1337,127757,1962,1054,127143,41,19233,168,1,63943,0.0010000000000000009
496998,8814,734,127883,-4246,-1698,126203,47,19235,192,1,63944,0.0010000000000000009
497998,5608,-3211,127685,-2697,-3389,131188,46,19240,188,1,63945,0.0010000000000000009
498998,4196,5687,129279,-3635,5493,123899,38,19240,156,1,63946,0.0010000000000000009
499998,7551,2118,127459,930,-43,127075,33,19238,156,1,63947,0.0010000000000000009
500999,9603,-2227,126457,2428,-2585,127394,39,19242,135,1,63948,0.0010009999999999741
501998,11720,-1791,126276,1551,-2344,125429,39,19234,160,1,63949,0.0009989999999999721
502998,10912,2453,127618,443,2609,125269,48,19233,197,1,63950,0.0010000000000000009
503998,7858,4260,128841,-4508,2590,126869,51,19236,209,1,63951,0.0010000000000000009
505000,5501,-2375,128168,-4193,-3450,130619,54,19240,221,0,63952,0.0010020000000000584
506001,3341,1970,128634,-2648,1210,126340,39,19240,221,0,63953,0.0010009999999999186
506998,8763,-398,126859,2928,-1363,125974,38,19239,160,0,63954,0.0009970000000000256
507998,9998,-490,126445,1694,-1361,125451,38,19236,156,0,63955,0.0010000000000000009
508998,12616,-2342,126394,386,-2828,128205,41,19235,168,0,63956,0.0010000000000000009
509998,10188,4569,128146,136,3911,124545,44,19236,180,0,63957,0.0010000000000000009
510998,7686,4013,128621,-3027,2948,127089,42,19234,172,0,63958,0.0010000000000000009
511998,5340,-1039,127818,-2784,-2192,128869,36,19234,172,0,63959,0.0010000000000000009
512998,5701,-164,127698,-1044,-1076,127330,40,19237,147,0,63960,0.0010000000000000009
513998,9125,-280,126882,2031,-1092,126619,40,19236,164,1,63961,0.0010000000000000009
514998,9783,2677,126924,1590,1500,123809,40,19240,164,1,63962,0.0010000000000000009
515998,12319,-1761,127099,162,-2496,128237,43,19238,176,1,63963,0.0010000000000000009
517000,7750,2455,128393,-2287,1451,126310,49,19232,201,1,63964,0.0010020000000000584
517998,5716,471,128547,-2822,-459,129093,42,19232,201,1,63965,0.0009979999999999434
518998,5034,1203,128177,-2956,11,127182,35,19236,172,1,63966,0.0010000000000000009
519998,7893,2021,127759,-650,1589,125724,35,19240,143,1,63967,0.0010000000000000009
520998,10153,-877,126396,2923,-1677,126113,35,19236,143,1,63968,0.0010000000000000009
521998,10686,23,127203,846,-284,125463,42,19233,172,1,63969,0.0010000000000000009
522998,9396,-1516,127755,-1858,-2939,129239,48,19234,197,1,63970,0.0010000000000000009
523998,6231,4222,129531,-3642,3134,125497,52,19234,197,0,63971,0.0010000000000000009
524998,5494,1143,128931,-2389,1201,129234,39,19236,213,0,63972,0.0010000000000000009
525999,6998,-711,127553,-570,-1845,127750,39,19237,160,0,63973,0.0010010000000000296
526998,8963,-1424,126556,41,-1731,126020,39,19236,160,0,63974,0.0009989999999999721
527998,10735,1400,126821,3551,743,124963,40,19237,164,0,63975,0.0010000000000000009
528998,9818,137,127647,-1111,234,126094,42,19234,172,0,63976,0.0010000000000000009
529998,8723,601,128880,-3419,-322,129828,41,19234,172,0,63977,0.0010000000000000009
530998,5963,2005,128084,-1558,783,126715,37,19238,168,0,63978,0.0010000000000000009
531998,5703,2837,128804,-1378,1480,127688,37,19238,152,0,63979,0.0010000000000000009
532998,7864,-231,126787,-1696,793,127205,38,19239,156,0,63980,0.0010000000000000009
533998,9428,-1621,126604,736,-3833,126266,44,19238,180,1,63981,0.0010000000000000009
534998,10577,4392,127521,1162,3625,123512,41,19238,168,1,63982,0.0010000000000000009
535998,9443,-687,127397,2251,-269,128440,45,19238,168,1,63983,0.0010000000000000009
536998,6438,382,128966,-9903,-200,128245,41,19239,184,1,63984,0.0010000000000000009
537998,6238,-1736,128077,2143,-2720,130277,41,19236,168,1,63985,0.0010000000000000009
538998,6849,3422,127923,2162,3350,123737,34,19240,139,1,63986,0.0010000000000000009
539998,9437,926,126935,-4505,-1127,124845,31,19237,127,1,63987,0.0010000000000000009
541000,10413,-944,126360,1885,-700,126632,38,19233,156,1,63988,0.0010019999999999474
541998,12449,2442,127560,4226,959,126041,44,19233,180,1,63989,0.0009980000000000544
543000,6511,492,127700,-6086,-111,127686,49,19233,180,1,63990,0.0010019999999999474
543998,4876,1897,128600,-6218,792,127413,38,19237,201,0,63991,0.0009980000000000544
544998,6368,592,128695,3666,143,128817,38,19239,156,0,63992,0.0010000000000000009
545999,9183,954,127558,-581,-1,125418,39,19237,160,0,63993,0.0010010000000000296
546998,9991,-2377,126519,-1061,-3499,125438,38,19236,156,0,63994,0.0009989999999999721
547998,10179,19,127652,1353,-560,127164,43,19236,176,0,63995,0.0010000000000000009
548998,9370,969,128250,873,398,128439,42,19232,176,0,63996,0.0010000000000000009
549998,5939,3470,128758,-7278,2339,127363,40,19237,172,0,63997,0.0010000000000000009
550998,5043,1418,127970,-1078,75,127986,40,19235,164,0,63998,0.0010000000000000009
551998,6510,-1723,126330,2257,-1875,125244,39,19236,160,0,63999,0.0010000000000000009
552998,9997,6861,128326,519,6159,123100,43,19237,176,0,64000,0.0010000000000000009
553998,11443,-4778,125821,-2516,-5941,129660,53,19238,217,1,64001,0.0010000000000000009
554998,9588,3149,128934,953,3021,123405,43,19238,217,1,64002,0.0010000000000000009
555998,8842,-916,128530,1718,-2395,131081,45,19234,176,1,64003,0.0010000000000000009
556999,5105,-3018,126965,-5052,-4317,129758,45,19232,184,1,64004,0.0010010000000000296
557998,4949,-221,128646,-1619,-988,128433,39,19239,160,1,64005,0.0009989999999999721
558998,9644,3870,126512,-1765,3108,124582,36,19237,147,1,64006,0.0010000000000000009
559998,12605,9895,127641,1646,9565,119212,36,19240,147,1,64007,0.0010000000000000009
560998,11312,-8692,126392,6218,-9414,132562,41,19240,147,1,64008,0.0010000000000000009
561999,6450,-2924,126070,-4260,-4388,128492,49,19234,168,1,64009,0.0010010000000000296
562999,5920,5053,130197,-4015,3672,126619,49,19234,201,1,64010,0.0010000000000000009
563998,5046,4754,127996,22,4016,125773,53,19233,217,0,64011,0.0009989999999999721
564998,7417,49,127658,-5187,-538,127156,39,19234,160,0,64012,0.0010000000000000009
566000,11263,437,127464,3424,-326,125618,38,19237,156,0,64013,0.0010019999999999474
567000,10483,-4848,125685,4276,-5242,127776,41,19237,156,0,64014,0.0010000000000000009
567998,10879,-725,128613,-4479,-2234,126045,42,19236,168,0,64015,0.0009980000000000544
568998,7640,1847,128175,2316,1344,128789,42,19236,172,0,64016,0.0010000000000000009
569998,6358,4729,127809,-1258,2773,127463,41,19236,168,0,64017,0.0010000000000000009
570998,4594,2848,127614,-9575,3055,124222,40,19238,164,0,64018,0.0010000000000000009
572001,10020,304,126257,5919,-1137,127548,43,19235,176,0,64019,0.0010029999999999761
572998,10359,2953,127848,5993,2716,123312,48,19235,176,1,64020,0.0009970000000000256
573998,11943,-6379,127398,-7750,-6065,129403,40,19234,197,1,64021,0.0010000000000000009
575001,10754,-2182,128244,3158,-3448,128391,40,19237,164,1,64022,0.0010029999999999761
575998,7532,186,128358,3427,-1044,129183,46,19236,188,1,64023,0.0009970000000000256
576998,3806,5456,128032,-8122,3677,124800,45,19238,184,1,64024,0.0010000000000000009
577998,5013,24,127026,-6507,723,127353,40,19236,164,1,64025,0.0010000000000000009
578998,11393,6124,127513,7271,2816,125910,37,19236,164,1,64026,0.0010000000000000009
579998,10900,2303,127008,2709,5336,127501,40,19237,152,1,64027,0.0010000000000000009
580998,11901,-8336,127076,-4884,-8631,129315,40,19236,164,1,64028,0.0010000000000000009
581999,8066,-3860,128089,5021,-5328,132437,46,19232,188,1,64029,0.0010009999999999186
582998,6689,2077,128540,-1212,-2198,125417,52,19235,213,0,64030,0.0009990000000000832
583998,3967,11048,129425,-10124,8219,121939,44,19237,180,0,64031,0.0010000000000000009
584998,7277,-2569,126779,-901,-4960,131295,40,19237,164,0,64032,0.0010000000000000009
585998,11001,-503,126196,4138,110,122911,45,19236,164,0,64033,0.0010000000000000009
586998,10866,-1173,127378,2050,-2857,127946,43,19236,184,0,64034,0.0010000000000000009
587998,10899,-1065,127497,-1094,-817,126531,43,19233,176,0,64035,0.0010000000000000009
588998,8445,520,128655,1,-846,130323,44,19235,180,0,64036,0.0010000000000000009
589998,6363,2141,128345,-4263,2573,127029,43,19238,176,0,64037,0.0010000000000000009
590998,4989,5014,128043,-3950,2970,123505,40,19238,164,0,64038,0.0010000000000000009
591999,7974,-3326,126692,2845,-4361,129589,42,19238,164,0,64039,0.0010009999999999186
592998,10365,1364,127177,3127,1153,124062,51,19234,172,0,64040,0.0009990000000000832
593998,10978,358,127876,-3234,26,126995,51,19235,209,1,64041,0.0010000000000000009
594998,9436,765,127728,914,-151,126867,38,19239,156,1,64042,0.0010000000000000009
595998,8919,-2489,127569,-1108,-4027,130834,46,19235,188,1,64043,0.0010000000000000009
596998,6425,-212,127353,-4018,-989,126305,43,19235,176,1,64044,0.0009999999999998899
597998,5310,4975,128802,-722,4004,124877,35,19239,176,1,64045,0.0010000000000000009
598998,8145,-550,126789,1023,-1413,127863,35,19240,143,1,64046,0.0010000000000000009
599998,12226,1768,126722,2184,1170,123641,35,19234,143,1,64047,0.0010000000000000009
600998,11526,-104,127218,2409,-1112,127997,42,19236,172,1,64048,0.0010000000000000009
601998,9147,202,127465,-1631,-678,125933,45,19234,184,1,64049,0.0010000000000000009
602999,7981,-1120,128201,-2465,-2264,130491,54,19236,221,0,64050,0.0010010000000000296
603998,5360,2648,128182,-941,1012,127091,42,19236,221,0,64051,0.0009989999999999721
604998,7627,5022,127814,-2899,4222,122966,41,19235,172,0,64052,0.0010000000000000009
606000,8038,-3420,126825,831,-4177,129031,41,19236,168,0,64053,0.0010020000000000584
606998,9700,-1559,127061,357,-2544,126370,42,19235,172,0,64054,0.0009979999999999434
607998,11154,-8,127761,2801,-771,128035,43,19230,176,0,64055,0.0010000000000000009
608998,7837,4663,128332,-1833,3622,125125,43,19236,176,0,64056,0.0010000000000000009
610001,7828,-24,127978,-4827,-516,128278,42,19236,176,0,64057,0.0010030000000000872
610998,7115,424,128085,2019,-781,128312,41,19239,172,0,64058,0.0009969999999999146
611998,7449,1811,127889,-2284,1305,125324,41,19234,168,0,64059,0.0010000000000000009
612998,9500,-1704,127090,-7,-2688,126931,48,19235,197,1,64060,0.0010000000000000009
613998,8976,448,128121,4144,-83,126802,39,19236,160,1,64061,0.0010000000000000009
614998,10527,-145,127583,-3161,-1241,128137,46,19235,188,1,64062,0.0010000000000000009
615998,6848,3113,128505,-3051,2211,125404,47,19235,188,1,64063,0.0010000000000000009
616998,5944,-1024,127807,-593,-1262,129522,40,19235,192,1,64064,0.0010000000000000009
617998,6855,2308,127779,-2895,542,126257,40,19234,164,1,64065,0.0010000000000000009
618998,9461,1172,127538,440,1478,125408,35,19233,143,1,64066,0.0010000000000000009
619998,10436,-1587,126570,3563,-2529,127567,37,19236,152,1,64067,0.0010000000000000009
620998,10336,-344,127431,-179,-1087,125443,44,19233,180,1,64068,0.0010000000000000009
621999,8860,-1147,127742,-1540,-2364,128916,51,19233,180,1,64069,0.0010010000000000296
622998,5825,5098,128638,-2802,3481,125690,54,19234,209,0,64070,0.0009989999999999721
623998,4824,1087,127980,-5268,1188,127654,54,19238,221,0,64071,0.0010000000000000009
624998,8442,1087,127214,-505,65,126570,40,19237,164,0,64072,0.0010000000000000009
625998,9989,-1114,126973,3649,-881,127544,38,19234,156,0,64073,0.0010000000000000009
626999,11167,-3197,126807,1423,-4315,126345,40,19236,164,0,64074,0.0010010000000000296
627998,10720,912,127700,-607,-1168,127549,42,19236,164,0,64075,0.0009989999999999721
628998,7844,2508,128499,-1240,-1584,127459,39,19236,172,0,64076,0.0010000000000000009
629998,6102,5030,127821,-2841,4277,125044,39,19236,160,0,64077,0.0010000000000000009
630999,5109,-641,127583,-3486,-865,128044,40,19240,164,0,64078,0.0010010000000000296
631999,8096,1075,127174,655,253,125927,40,19236,164,1,64079,0.0010000000000000009
632998,10676,-1991,126392,2234,-2607,126200,41,19235,168,1,64080,0.0009989999999999721
633998,13054,1696,128501,2181,1174,126041,44,19235,180,1,64081,0.0010000000000000009
634998,8826,-2301,128358,-3402,-3368,129525,48,19237,180,1,64082,0.0010000000000000009
636000,5793,588,128760,-3710,553,127513,41,19237,197,1,64083,0.0010020000000000584
637000,4688,2775,128576,-2213,1089,128458,41,19239,168,1,64084,0.0010000000000000009
638003,6290,2141,127210,-1689,1954,124319,36,19236,147,1,64085,0.0010029999999999761
638998,10160,2421,126808,2574,786,125182,37,19236,152,1,64086,0.0009949999999999681
640001,11127,-2722,126456,2242,-3401,127870,40,19236,164,1,64087,0.0010029999999999761
640998,10480,-383,127657,-353,-1170,126463,48,19236,164,1,64088,0.0009970000000000256
641998,6816,340,128861,-4618,-304,129040,52,19235,197,0,64089,0.0010000000000000009
642998,5475,4472,129246,-4116,3737,126157,52,19233,213,0,64090,0.0010000000000000009
643999,6655,868,127957,-229,-643,128142,39,19239,160,0,64091,0.0010010000000000296
644998,8255,-906,126658,-1288,-1829,126343,38,19238,156,0,64092,0.0009989999999999721
645999,10412,-152,126670,4059,-688,124770,41,19238,168,0,64093,0.0010010000000000296
646998,10208,-598,127269,-135,-1270,127244,44,19235,168,0,64094,0.0009989999999999721
647998,9270,1687,128545,-3453,1063,127176,42,19237,180,0,64095,0.0010000000000000009
648999,6304,816,128278,-1535,30,128853,42,19237,172,0,64096,0.0010010000000000296
649998,5612,3514,128243,-2249,2561,125682,38,19235,156,0,64097,0.0009989999999999721
650998,6931,452,127100,-633,-588,126994,38,19234,156,0,64098,0.0010000000000000009
652000,8689,-1615,126720,113,-2370,126527,44,19235,180,1,64099,0.0010020000000000584
652998,10695,2144,127546,-158,1435,124529,40,19235,180,1,64100,0.0009979999999999434
653998,10334,308,127311,3153,-815,128049,44,19234,164,1,64101,0.0010000000000000009
654998,6895,-1306,127977,-6758,-2213,127660,44,19235,180,1,64102,0.0010000000000000009
655998,6139,786,128576,-2568,-66,128425,43,19242,176,1,64103,0.0010000000000000009
656998,7035,2937,127701,2714,1836,126916,36,19237,147,1,64104,0.0010000000000000009
657998,9101,2297,127421,-2431,2001,124187,32,19237,131,1,64105,0.0010000000000000009
659015,10464,-1002,126281,1631,-1624,125811,34,19237,131,1,64106,0.0010170000000000456
659998,10704,-1259,127076,1389,-2159,127419,44,19234,139,1,64107,0.0009829999999999561
660998,8369,-1214,126620,1554,-3153,128592,44,19235,180,1,64108,0.0010000000000000009
661998,5282,5042,128522,-5500,3399,125782,49,19233,201,0,64109,0.0010000000000000009
662999,6472,4728,127869,-5616,3042,127330,45,19237,184,0,64110,0.0010010000000000296
664000,8160,164,127718,3881,-701,126495,39,19237,160,0,64111,0.0010009999999999186
665000,10406,-1765,126976,2063,-1842,126144,38,19237,160,0,64112,0.0010000000000000009
665998,9618,-4285,126486,-1183,-5571,127212,41,19234,156,0,64113,0.0009980000000000544
666998,9116,-432,128080,876,-1763,127945,41,19237,168,0,64114,0.0010000000000000009
667998,7467,4049,129136,-2316,2450,128250,44,19237,180,0,64115,0.0010000000000000009
668999,5690,7198,128866,-7562,6923,124128,39,19236,160,0,64116,0.0010010000000000296
669999,6034,-1606,127791,1808,-561,128453,37,19238,152,0,64117,0.0010000000000000009
670999,7416,-1744,126975,-1094,-3262,127517,40,19238,152,0,64118,0.0010000000000000009
671998,9648,-2862,126631,-1395,-2830,126492,50,19239,164,1,64119,0.0009989999999999721
672998,11739,4588,127908,6104,1604,122113,50,19235,205,1,64120,0.0010000000000000009
673998,10251,1351,127725,759,4413,132219,42,19235,172,1,64121,0.0010000000000000009
674998,8223,-2960,127928,-11798,-7002,126205,46,19238,188,1,64122,0.0010000000000000009
675998,5915,5907,129189,4224,5977,127996,41,19236,168,1,64123,0.0010000000000000009
676998,7305,-2713,127676,4647,-3466,127076,36,19236,147,1,64124,0.0010000000000000009
677998,6450,-1186,127613,-10595,-2966,125709,35,19240,147,1,64125,0.0010000000000000009
678998,12311,-1782,126983,3143,-343,128815,39,19238,143,1,64126,0.0010000000000000009
679998,10101,7862,126784,8238,7199,120714,39,19232,160,1,64127,0.0010000000000000009
681000,7625,2877,128122,-8859,425,127608,48,19234,197,1,64128,0.0010019999999999474
681998,6275,-1693,127533,2753,-2854,130063,52,19236,213,0,64129,0.0009980000000000544
682998,5156,-688,129225,-4573,-959,128470,41,19236,168,0,64130,0.0010000000000000009
683998,11460,800,128553,521,-109,124161,39,19233,168,0,64131,0.0010000000000000009
684998,8415,-1875,126837,8957,-3806,127688,42,19238,160,0,64132,0.0010000000000000009
685998,9674,-2988,126392,-10259,-2383,127228,42,19235,172,0,64133,0.0010000000000000009
686998,9013,5024,128141,1578,4345,125537,41,19235,168,0,64134,0.0010000000000000009
687998,8979,4296,127599,5053,3626,127290,40,19235,164,0,64135,0.0010000000000000009
688999,6940,4214,128110,-8559,2793,123845,40,19235,164,0,64136,0.0010009999999999186
689998,7330,-3523,128124,-2174,-4403,129500,39,19237,164,0,64137,0.0009990000000000832
691000,11032,-1251,127508,12716,-2041,128216,46,19236,160,0,64138,0.0010019999999999474
691998,7883,-460,127392,-6630,-1185,125672,46,19231,188,1,64139,0.0009980000000000544
692998,8781,3455,127969,-6020,3004,124310,38,19237,156,1,64140,0.0010000000000000009
693998,9628,-956,127492,6598,-1950,130193,46,19234,188,1,64141,0.0010000000000000009
694998,7218,-55,128450,-2444,-730,127239,44,19236,180,1,64142,0.0010000000000000009
695998,6333,1,127669,-6072,-1053,127008,40,19236,180,1,64143,0.0010000000000000009
696998,6157,1665,127722,802,1029,125491,35,19238,164,1,64144,0.0010000000000000009
697998,12462,3468,127912,6382,2790,125858,35,19238,143,1,64145,0.0010000000000000009
698998,10093,-2735,125989,-1496,-3692,128653,41,19235,168,1,64146,0.0010000000000000009
699998,8228,376,126948,-2745,-509,124548,47,19234,192,1,64147,0.0010000000000000009
701000,7035,-326,128487,-516,-1177,129597,53,19235,217,1,64148,0.0010019999999999474
701998,7501,3804,129083,-3759,2823,126783,46,19235,217,0,64149,0.0009980000000000544
702998,8019,308,128062,-199,-749,128677,39,19236,188,0,64150,0.0010000000000000009
703998,7282,567,126958,-1515,-387,125663,39,19237,160,0,64151,0.0010000000000000009
704998,9852,-465,126530,1821,-950,125121,43,19236,176,0,64152,0.0010000000000000009
705999,10415,-846,127076,2222,-1859,128145,45,19237,184,0,64153,0.0010009999999999186
706998,9940,1973,128030,-948,1393,126057,43,19236,176,0,64154,0.0009990000000000832
707998,7978,2611,128427,-4744,1271,126877,42,19236,176,0,64155,0.0010000000000000009
708998,6446,2155,128749,-1051,1940,127221,40,19236,172,0,64156,0.0010000000000000009
710000,7091,-4228,127224,2221,-4753,129901,40,19234,164,0,64157,0.0010019999999999474
710998,7544,1063,127466,-2090,-159,125516,42,19233,172,0,64158,0.0009980000000000544
711998,10211,1806,126945,-125,1065,124727,54,19229,221,1,64159,0.0010000000000000009
712998,9902,2366,127606,1341,1958,125303,41,19240,168,1,64160,0.0010000000000000009
713998,11101,-1074,127656,264,-1123,128312,45,19240,168,1,64161,0.0010000000000000009
714999,6518,-28,128068,-3544,-1713,127986,39,19237,184,1,64162,0.0010009999999999186
715998,6175,1566,128452,-1198,634,126794,39,19239,160,1,64163,0.0009989999999999721
716998,7952,-141,128012,924,-1294,128376,36,19236,147,1,64164,0.0010000000000000009
717998,9978,1452,127284,812,863,125241,36,19240,147,1,64165,0.0010000000000000009
718998,11131,45,126495,1198,-940,125827,41,19236,168,1,64166,0.0010000000000000009
719999,9951,1866,127435,428,1207,126384,46,19236,188,1,64167,0.0010010000000000296
720998,8895,-183,127842,-805,-910,129002,52,19236,188,0,64168,0.0009989999999999721
721998,5459,2993,128879,-3337,784,126856,39,19234,213,0,64169,0.0010000000000000009
722999,7002,828,128936,-2836,1615,127650,39,19232,160,0,64170,0.0010010000000000296
723998,8794,-2283,127044,1555,-2969,127438,39,19237,160,0,64171,0.0009989999999999721
724998,10131,-1950,126831,2801,-2230,126291,41,19236,168,0,64172,0.0010000000000000009
725998,10962,499,127353,-115,414,125518,43,19236,176,0,64173,0.0010000000000000009
727000,8758,3538,128321,-2366,2673,127057,45,19239,176,0,64174,0.0010020000000000584
727998,8390,2781,128703,-1545,673,128194,42,19236,184,0,64175,0.0009979999999999434
729001,5759,1600,128004,-2096,432,127628,42,19236,172,0,64176,0.0010030000000000872
730000,6577,947,128357,-1532,-691,127152,40,19235,164,0,64177,0.0009989999999999721
730998,8325,-2335,126365,1731,-2367,126818,45,19233,184,1,64178,0.0009979999999999434
731998,12308,1421,128196,2690,1835,125822,38,19233,156,1,64179,0.0010000000000000009
732998,12268,2482,127958,684,1672,125225,45,19240,156,1,64180,0.0010000000000000009
734001,6641,-1036,128245,-6265,-2303,129348,48,19234,184,1,64181,0.0010030000000000872
734998,4804,-806,128653,-2246,-1664,129063,48,19234,197,1,64182,0.0009969999999999146
735998,4450,1746,128306,-1305,1122,127693,42,19237,172,1,64183,0.0010000000000000009
736998,9247,2860,127224,917,2157,124409,38,19237,156,1,64184,0.0010000000000000009
737998,9427,290,126290,907,-608,125329,38,19235,156,1,64185,0.0010000000000000009
738998,12508,-2369,126531,1833,-2677,127239,46,19235,156,1,64186,0.0010000000000000009
739998,10184,1865,127933,1408,1040,126006,50,19230,188,1,64187,0.0010000000000000009
740998,6184,1822,128791,-6646,797,128156,50,19230,205,1,64188,0.0010000000000000009
742000,4303,1901,128798,-4699,790,127567,52,19234,213,0,64189,0.0010020000000000584
742998,4479,106,127574,-117,-1210,128362,40,19235,164,0,64190,0.0009979999999999434
743998,10196,-1280,126266,2611,-1957,126113,40,19236,164,0,64191,0.0010000000000000009
744998,10591,-237,126279,1685,-820,124232,42,19236,164,0,64192,0.0010000000000000009
746001,12759,258,127208,-140,-330,126943,44,19236,172,0,64193,0.0010029999999999761
746999,9065,3468,128615,317,2555,126157,44,19234,180,0,64194,0.0009980000000000544
747998,6781,1327,128598,-3777,301,128888,39,19236,160,0,64195,0.0009989999999999721
748999,4759,1060,127866,-2568,-106,127310,36,19235,147,0,64196,0.0010010000000000296
749999,5709,-908,127244,-1167,-1567,127444,38,19232,156,0,64197,0.0010000000000000009
750998,10629,610,126623,3439,-386,125641,46,19232,156,1,64198,0.0009989999999999721
751999,10452,1917,126929,1229,1269,124814,42,19236,188,1,64199,0.0010010000000000296
752998,12015,-359,127572,-1501,-1042,126840,42,19235,172,1,64200,0.0009989999999999721
753998,6426,1355,128497,-1795,269,127566,46,19233,188,1,64201,0.0010000000000000009
754998,5015,-734,128708,-3368,-1609,129841,42,19238,172,1,64202,0.0010000000000000009
755998,5159,1951,127881,-2782,479,126680,35,19238,143,1,64203,0.0010000000000000009
756998,8360,2255,127089,-122,1937,125246,34,19238,143,1,64204,0.0010000000000000009
757998,11109,-447,126403,3144,-1301,125453,42,19237,139,1,64205,0.0010000000000000009
758998,10334,-126,127358,1514,-288,126143,42,19237,172,1,64206,0.0010000000000000009
759998,8962,-385,128093,-3035,-1792,128269,49,19234,201,1,64207,0.0010000000000000009
760998,5735,3180,129419,-3879,1674,127092,53,19239,217,0,64208,0.0010000000000000009
761999,5233,53,128258,-962,411,128447,39,19238,160,0,64209,0.0010010000000000296
762998,7551,634,127276,-777,-643,127047,39,19238,160,0,64210,0.0009989999999999721
763998,8340,-3151,125797,-186,-2000,125112,40,19240,160,0,64211,0.0010000000000000009
764998,11424,158,126755,4602,-1649,126917,40,19237,164,0,64212,0.0010000000000000009
765998,9707,4173,128347,-2164,3809,124543,43,19235,176,0,64213,0.0010000000000000009
766998,7975,-1654,128398,-3741,-1341,129832,40,19236,164,0,64214,0.0010000000000000009
767998,5275,1597,128678,-1799,45,127427,38,19236,156,0,64215,0.0010000000000000009
768999,6590,902,127690,-1232,88,127199,38,19236,156,0,64216,0.0010010000000000296
769998,7942,581,126719,410,-284,124775,42,19239,156,0,64217,0.0009989999999999721
770998,9556,1493,126968,-1526,804,125572,43,19236,172,1,64218,0.0010000000000000009
771999,10567,860,127322,1282,549,126570,43,19234,176,1,64219,0.0010010000000000296
773018,8840,-365,127601,2945,-1643,127799,43,19230,176,1,64220,0.0010189999999999921
773998,6256,-280,128793,-8894,-1321,129029,44,19240,180,1,64221,0.0009799999999999809
774998,5905,-503,128179,911,-775,128557,36,19240,147,1,64222,0.0010000000000000009
775998,7782,3198,127869,-1661,2296,125028,33,19237,147,1,64223,0.0010000000000000009
776998,10134,582,126524,-1011,-579,124928,36,19238,135,1,64224,0.0010000000000000009
777998,10661,-129,126423,2151,-117,125351,36,19234,147,1,64225,0.0010000000000000009
778998,10692,1685,127596,3047,457,127577,42,19238,172,1,64226,0.0010000000000000009
779998,6527,424,128155,-6535,-667,127578,49,19237,201,0,64227,0.0010000000000000009
780998,5296,1575,128693,-4594,526,128279,49,19237,201,0,64228,0.0010000000000000009
781998,6668,1311,128824,3584,813,127613,41,19236,201,0,64229,0.0010000000000000009
782998,9905,586,127062,-1991,-339,124952,39,19238,168,0,64230,0.0010000000000000009
783998,9808,-2576,126776,388,-3275,126605,39,19238,160,0,64231,0.0010000000000000009
784998,9948,465,127752,852,-342,127171,41,19237,168,0,64232,0.0010000000000000009
785998,8050,1629,128692,-2046,799,128073,43,19238,176,0,64233,0.0010000000000000009
786998,5763,-920,126965,-3899,-1921,128083,40,19232,164,0,64234,0.0010000000000000009
787998,6182,6876,128328,1591,6320,123259,39,19232,164,0,64235,0.0010000000000000009
788998,8404,21,126698,-2428,-893,128962,43,19234,160,0,64236,0.0010000000000000009
789998,10391,-263,127544,-312,-633,124042,43,19232,176,0,64237,0.0010000000000000009
790998,10587,944,128124,2237,-90,126594,51,19233,209,1,64238,0.0010000000000000009
791998,8239,-2497,127767,-2525,-3911,129242,40,19234,164,1,64239,0.0010000000000000009
792998,7933,-6192,127065,-2887,-7207,130952,44,19234,180,1,64240,0.0010000000000000009
793998,6142,7072,128425,5519,5427,126657,43,19234,180,1,64241,0.0010000000000000009
794998,6661,8564,127700,-12021,8303,120498,38,19236,176,1,64242,0.0010000000000000009
795998,11881,-245,128036,2320,-359,127203,38,19233,156,1,64243,0.0010000000000000009
796998,10172,-6781,125787,10355,-7153,129549,34,19236,139,1,64244,0.0010000000000000009
797999,10818,-3799,127542,-4157,-5163,126946,39,19237,160,1,64245,0.0010010000000000296
798998,4255,1304,127396,-5354,39,127949,46,19235,188,1,64246,0.0009989999999999721
799998,7137,7543,128688,2151,6121,124389,54,19235,188,1,64247,0.0010000000000000009
800998,5701,7114,128003,-5803,7252,126696,39,19234,221,0,64248,0.0010000000000000009
801998,9888,-3326,126388,-3386,-3688,127061,39,19240,160,0,64249,0.0010000000000000009
802998,11315,-3155,126928,7401,-4375,126616,40,19237,164,0,64250,0.0010000000000000009
804000,11901,-3156,128174,2621,-4181,128447,42,19232,172,0,64251,0.0010019999999999474
804998,10068,-568,127864,-4821,-1642,126761,41,19233,168,0,64252,0.0009980000000000544
806000,5608,145,127982,613,-1839,131236,43,19233,168,0,64253,0.0010019999999999474
806998,6282,9684,127242,32,7722,123460,40,19236,176,0,64254,0.0009980000000000544
807998,4405,4268,127720,-8123,5114,123351,40,19240,164,0,64255,0.0010000000000000009
809000,12160,-339,127366,-1165,-191,126247,39,19235,160,0,64256,0.0010019999999999474
809998,11377,-4842,127740,15229,-4255,129211,43,19232,176,1,64257,0.0009980000000000544
810998,10722,-2285,128084,-8177,-5086,128198,44,19233,180,1,64258,0.0010000000000000009
811998,9710,-820,128428,-2127,-200,126624,46,19233,180,1,64259,0.0010000000000000009
812998,5834,755,127953,3959,-2560,131295,46,19235,188,1,64260,0.0010000000000000009
813998,5970,8367,128387,-6092,7617,124126,46,19238,188,1,64261,0.0010000000000000009
814999,5397,-891,126705,-7029,-748,127168,40,19238,164,1,64262,0.0010009999999999186
815998,11830,4877,128021,5209,3580,122893,37,19238,152,1,64263,0.0009990000000000832
816998,10995,-4279,126833,6424,-2195,131077,38,19240,156,1,64264,0.0010000000000000009
817998,10477,-2024,127637,-4444,-1208,126066,45,19240,184,1,64265,0.0010000000000000009
818999,7413,-2261,127702,2349,-3742,131432,53,19235,184,1,64266,0.0010009999999999186
820000,6191,4536,128620,-3880,6429,123466,54,19236,217,0,64267,0.0010010000000000296
820998,6767,5777,129008,-5695,3016,125606,54,19236,221,0,64268,0.0009980000000000544
821999,7045,-3325,126998,1191,-3938,128914,42,19236,172,0,64269,0.0010009999999999186
822998,9921,51,126799,1375,-871,124896,42,19237,172,0,64270,0.0009990000000000832
823998,9878,-1696,126992,2336,-1986,127812,44,19237,180,0,64271,0.0010000000000000009
824998,10110,3159,127999,-270,2028,125634,46,19234,180,0,64272,0.0010000000000000009
825999,8446,-2456,127695,-3538,-3021,129819,44,19235,188,0,64273,0.0010009999999999186
826998,7151,4761,128520,-2805,4650,124283,44,19232,180,0,64274,0.0009990000000000832
827998,8100,3112,128409,2353,1734,127281,42,19234,172,0,64275,0.0010000000000000009
828998,6937,-2282,126841,-2543,-2510,126890,42,19235,172,0,64276,0.0010000000000000009
829998,8866,-124,127915,376,-985,128184,50,19231,205,0,64277,0.0010000000000000009
830998,8678,-1703,126151,1120,-2093,126289,49,19231,205,1,64278,0.0010000000000000009
831998,9712,4484,128305,-517,3685,125277,46,19236,201,1,64279,0.0010000000000000009
832998,9420,-90,127180,-2863,-1285,127673,46,19239,188,1,64280,0.0010000000000000009
833998,7277,46,127618,-228,-835,127429,43,19242,176,1,64281,0.0010000000000000009
834998,7714,1433,128547,-468,517,127765,37,19233,152,1,64282,0.0009999999999998899
835999,7690,212,127189,232,-648,125636,36,19235,147,1,64283,0.0010010000000000296
836998,10513,754,127485,978,-208,126130,39,19235,147,1,64284,0.0009989999999999721
838001,9751,-463,127204,949,-1197,127190,46,19233,160,1,64285,0.0010030000000000872
838998,9245,222,127223,-363,-670,127255,46,19232,188,1,64286,0.0009969999999999146
839999,7547,1286,127754,-2839,220,127667,52,19238,213,0,64287,0.0010010000000000296
840998,5992,5801,128154,-2294,4483,124434,41,19242,168,0,64288,0.0009989999999999721
842001,9123,599,128042,-417,7,127389,41,19237,168,0,64289,0.0010030000000000872
842998,8313,-4410,127090,2739,-5165,128661,40,19237,168,0,64290,0.0009969999999999146
843998,9893,-2709,127088,541,-3874,127569,43,19236,164,0,64291,0.0010000000000000009
845000,9410,2383,127850,-1544,813,125613,43,19237,176,0,64292,0.0010020000000000584
845998,8725,4145,128537,-1951,3587,126398,44,19240,180,0,64293,0.0009979999999999434
846998,7338,1516,127772,-1904,526,128105,40,19236,164,0,64294,0.0010000000000000009
847998,6074,2492,127913,-1634,1533,126024,39,19236,160,0,64295,0.0010000000000000009
848998,7804,-112,127627,-238,-347,126641,44,19236,160,0,64296,0.0010000000000000009
849998,9448,-1775,127418,1746,-2774,127065,43,19233,180,1,64297,0.0010000000000000009
850998,11780,-448,127707,1334,-1571,127471,43,19240,176,1,64298,0.0010000000000000009
851999,10044,1169,128102,-916,-53,126833,47,19238,192,1,64299,0.0010010000000000296
852998,6006,1423,128092,-4181,626,126873,48,19238,197,1,64300,0.0009989999999999721
853998,4800,84,128008,-3702,-910,129247,40,19236,164,1,64301,0.0010000000000000009
854998,6259,3040,127889,-800,1902,126191,34,19236,164,1,64302,0.0010000000000000009
855998,9958,1447,126673,1504,1449,125289,37,19236,139,1,64303,0.0010000000000000009
856998,10686,-1521,126635,1932,-2014,125864,37,19238,152,1,64304,0.0010000000000000009
857998,11106,-1944,127167,1240,-2855,127551,42,19231,172,1,64305,0.0010000000000000009
858998,8032,1378,128089,-1187,-919,127807,50,19232,205,1,64306,0.0010000000000000009
859998,5315,4286,128889,-5477,3417,126198,53,19234,217,0,64307,0.0010000000000000009
860998,4159,567,128031,-4755,803,127506,38,19234,156,0,64308,0.0010000000000000009
861998,8915,-1128,127347,1192,357,126033,39,19241,156,0,64309,0.0010000000000000009
862998,10726,-2282,126691,3277,-2483,127091,41,19236,160,0,64310,0.0010000000000000009
863998,11779,-1513,126557,2752,-2158,125490,41,19239,168,0,64311,0.0010000000000000009
864998,10345,741,128010,-528,549,127794,42,19234,172,0,64312,0.0010000000000000009
865998,7619,5619,128883,-2215,5069,125857,43,19235,176,0,64313,0.0010000000000000009
866999,6732,2488,127812,-3622,27,127672,36,19235,147,0,64314,0.0010010000000000296
867998,5542,-831,127237,213,-1882,127961,38,19236,147,0,64315,0.0009989999999999721
868998,7981,-86,126896,-841,-1056,125600,44,19234,156,1,64316,0.0010000000000000009
869998,10828,-587,127077,3132,-1149,126301,44,19237,180,1,64317,0.0010000000000000009
870998,12267,2322,128227,972,1096,126029,42,19235,172,1,64318,0.0010000000000000009
871998,8278,-1652,127663,-3535,-2824,129084,48,19237,197,1,64319,0.0010000000000000009
872998,4760,1275,128557,-3716,812,127536,43,19237,176,1,64320,0.0010000000000000009
873998,5410,2204,128071,-1030,1071,127471,34,19236,176,1,64321,0.0010000000000000009
874998,8278,2589,127373,-886,2217,124525,34,19236,139,1,64322,0.0010000000000000009
876002,10881,428,127195,2742,-782,125789,34,19239,139,1,64323,0.0010040000000000049
877000,10654,-2481,126780,2050,-3199,127695,38,19236,156,1,64324,0.0009980000000000544
878000,9220,-607,128000,-2675,-1344,127290,48,19236,197,1,64325,0.0010000000000000009
878998,5677,682,129182,-3737,-219,129334,52,19235,213,0,64326,0.0009979999999999434
879998,4777,4316,129116,-3495,3785,126043,38,19235,213,0,64327,0.0010000000000000009
880998,7591,887,127780,-204,58,127528,37,19235,156,0,64328,0.0010000000000000009
881999,9465,-514,126435,1421,-1135,125386,37,19238,152,0,64329,0.0010010000000000296
882999,10930,-1356,126639,2820,-2147,126243,39,19236,160,0,64330,0.0010000000000000009
883998,9845,-981,127719,-1526,-1719,127435,44,19235,180,0,64331,0.0009989999999999721
884998,8561,1205,128234,-1506,227,127603,41,19236,168,0,64332,0.0010000000000000009
886001,5467,2025,128482,-2303,1011,128279,38,19236,168,0,64333,0.0010029999999999761
886999,5588,3790,128336,-5069,3144,125120,36,19234,156,0,64334,0.0009980000000000544
888033,8404,156,126782,1809,-419,127223,36,19236,147,0,64335,0.0010339999999999794
888998,9369,347,127405,1083,-595,125609,42,19236,172,1,64336,0.0009649999999999936
890000,10568,-542,127430,-1469,-1051,126165,47,19236,192,1,64337,0.0010020000000000584
890998,9815,-2918,126521,4157,-4301,128615,45,19236,184,1,64338,0.0009979999999999434
891998,6382,2845,128975,-7143,1685,126541,42,19236,184,1,64339,0.0010000000000000009
892998,5987,1210,127973,-3692,513,128606,36,19236,172,1,64340,0.0010000000000000009
893998,7318,4410,128028,3033,3415,125239,36,19243,147,1,64341,0.0010000000000000009
894998,9111,953,127008,-902,1298,125808,31,19240,127,1,64342,0.0010000000000000009
895998,10182,-2428,126152,1389,-3258,126017,34,19234,139,1,64343,0.0010000000000000009
896998,11517,404,127879,3603,-393,127446,41,19236,168,1,64344,0.0010000000000000009
897998,7634,-384,127512,-525,-2807,128557,48,19236,168,1,64345,0.0010000000000000009
898998,5237,7320,129439,-7536,6436,124344,50,19235,197,0,64346,0.0010000000000000009
899998,5833,1111,127575,-1372,1386,128242,50,19239,205,0,64347,0.0010000000000000009
900998,8179,-645,127301,2652,-1838,127064,40,19243,164,0,64348,0.0010000000000000009
901999,9751,-2864,127165,-143,-2680,126401,39,19239,160,0,64349,0.0010010000000000296
903000,11026,482,127118,827,-1440,125051,42,19241,172,0,64350,0.0010009999999999186
903998,9202,104,128233,1312,-83,128025,44,19241,180,0,64351,0.0009980000000000544
904998,6470,1517,128254,-4489,-381,129234,39,19234,180,0,64352,0.0010000000000000009
905998,4957,4844,128323,-5306,3844,126070,37,19235,160,0,64353,0.0010000000000000009
906998,5275,1739,128117,-143,1163,126910,37,19241,152,0,64354,0.0010000000000000009
907998,8963,-2035,126767,-699,-640,127920,40,19235,164,0,64355,0.0010000000000000009
908998,11164,-3472,126635,2770,-7316,124020,51,19238,209,1,64356,0.0010000000000000009
909998,9766,8096,128592,3746,7465,125507,42,19238,172,1,64357,0.0010000000000000009
911001,11171,-4990,126921,-4749,-5270,130497,45,19236,172,1,64358,0.0010029999999999761
911998,6103,5214,129701,-4234,5093,125619,40,19236,184,1,64359,0.0009970000000000256
912998,5878,-212,128596,4387,-2859,130353,40,19236,164,1,64360,0.0010000000000000009
913998,5786,-2355,126754,-2029,-3252,125812,35,19237,143,1,64361,0.0010000000000000009
914999,8810,-1433,127924,-8813,-524,126814,35,19236,143,1,64362,0.0010010000000000296
915999,14288,5016,126447,10067,4905,123285,39,19236,160,1,64363,0.0010000000000000009
916998,9311,4830,127709,-7053,2834,124968,46,19236,160,1,64364,0.0009989999999999721
917998,7918,-5455,127199,-3011,-6837,131320,50,19235,188,1,64365,0.0010000000000000009
918998,3896,2436,128357,2629,2742,127007,50,19234,205,0,64366,0.0010000000000000009
919998,6384,3453,129275,-9886,2077,126323,40,19242,164,0,64367,0.0010000000000000009
921000,11053,-401,127089,6597,-1273,124914,39,19236,160,0,64368,0.0010019999999999474
921998,9134,-4428,126377,4505,-5774,129721,41,19236,168,0,64369,0.0009980000000000544
922998,10598,672,127408,-8387,943,124082,42,19236,168,0,64370,0.0010000000000000009
923998,8679,2015,127567,3214,736,128339,42,19236,172,0,64371,0.0010000000000000009
924998,9283,3512,128439,4874,2837,127529,42,19233,172,0,64372,0.0010000000000000009
925998,5175,3166,128047,-13165,2152,124570,38,19234,156,0,64373,0.0010000000000000009
927002,8330,-1790,127463,2624,-2637,129357,40,19238,164,0,64374,0.0010040000000000049
928001,9568,-156,125986,11466,-1145,126003,46,19232,188,1,64375,0.0009989999999999721
928999,8898,1286,127922,-9155,1050,125297,43,19232,188,1,64376,0.0009979999999999434
929998,10795,3758,128251,-2388,2425,125497,47,19236,176,1,64377,0.0009990000000000832
930998,9202,-1251,127972,6634,-5755,132217,47,19238,192,1,64378,0.0010000000000000009
931998,7384,-1258,128772,-5197,1752,126140,46,19237,188,1,64379,0.0010000000000000009
932998,4470,3206,127615,-5772,-1150,127256,39,19237,160,1,64380,0.0010000000000000009
933998,8607,-662,127528,1889,1673,126194,36,19237,147,1,64381,0.0010000000000000009
934998,10670,4529,127687,5437,2888,124575,40,19237,147,1,64382,0.0010000000000000009
935998,10213,-665,126191,-3365,-1426,126335,46,19234,164,1,64383,0.0010000000000000009
936998,8689,-580,127641,115,-2008,127496,46,19236,188,1,64384,0.0010000000000000009
937998,6553,-3784,128314,-1892,-4060,131199,51,19235,209,0,64385,0.0010000000000000009
938998,8616,6073,129263,-2532,4953,125316,51,19237,209,0,64386,0.0010000000000000009
939998,6711,1647,128265,-1461,1135,127040,42,19236,172,0,64387,0.0010000000000000009
940998,8200,-762,126707,-2088,-2597,126770,42,19236,172,0,64388,0.0010000000000000009
941998,9717,-2950,126264,3920,-3182,126993,42,19232,172,0,64389,0.0010000000000000009
942998,10424,1265,127868,1121,3009,125214,42,19236,172,0,64390,0.0010000000000000009
943999,9679,3358,127288,-2496,392,126831,45,19234,184,0,64391,0.0010009999999999186
944999,6922,-644,128851,-3873,-370,128309,43,19236,176,0,64392,0.0010000000000000009
945998,7369,1101,128387,1041,729,128304,39,19240,160,0,64393,0.0009990000000000832
946998,7009,-964,126946,679,-2130,127057,41,19240,160,0,64394,0.0010000000000000009
948000,8253,756,127386,-3034,-88,125421,51,19238,168,0,64395,0.0010019999999999474
948999,9994,-483,126845,909,-673,126551,51,19232,209,1,64396,0.0009989999999999721
949998,9718,4027,128247,1040,3677,124278,48,19236,197,1,64397,0.0009990000000000832
950999,9950,-2701,127388,255,-2306,129363,43,19239,176,1,64398,0.0010009999999999186
951998,5892,-2968,127618,-3867,-2631,128097,42,19240,172,1,64399,0.0009990000000000832
952999,7533,1032,128420,-427,1077,126902,37,19240,152,1,64400,0.0010009999999999186
953998,8236,2224,127803,1172,1353,126502,38,19241,152,1,64401,0.0009989999999999721
954998,10766,844,126792,376,-584,126643,38,19238,156,1,64402,0.0010000000000000009
955998,10020,-1644,126871,862,-1677,124739,38,19236,156,1,64403,0.0010000000000000009
956998,9887,3049,127859,307,2483,126738,45,19234,184,1,64404,0.0010000000000000009
957998,8440,-107,127817,-592,-1879,129496,51,19235,209,0,64405,0.0010000000000000009
958998,5183,202,128692,-3912,713,127128,43,19235,176,0,64406,0.0010000000000000009
959999,8115,2166,128171,-2266,1244,125740,41,19237,176,0,64407,0.0010010000000000296
960998,8579,1873,127392,1254,-1604,126386,43,19239,168,0,64408,0.0009989999999999721
961998,10671,-2177,126902,2378,-6030,128158,43,19233,176,0,64409,0.0010000000000000009
962998,10215,-3151,127720,-431,1617,125181,43,19239,176,0,64410,0.0010000000000000009
963998,8773,3979,128443,-1926,3044,126761,42,19238,172,0,64411,0.0010000000000000009
964998,7303,1154,128495,-1281,754,128124,44,19238,180,0,64412,0.0010000000000000009
965998,5858,1382,128142,-2018,-2135,129491,42,19236,180,0,64413,0.0010000000000000009
966998,6949,-2130,126984,-150,213,124936,46,19233,172,0,64414,0.0010000000000000009
967998,8829,2753,127621,1002,1128,125525,46,19236,188,1,64415,0.0010000000000000009
968998,11440,-16,127661,2578,-1025,126551,44,19235,180,1,64416,0.0010000000000000009
969998,11896,951,128162,-434,313,126965,46,19238,188,1,64417,0.0010000000000000009
971001,6659,-530,128227,-3955,-3088,129660,45,19234,184,1,64418,0.0010030000000000872
971998,4431,-622,128564,-3298,974,126722,42,19234,184,1,64419,0.0009969999999999146
972998,5333,1819,128071,-1116,-514,129251,37,19237,172,1,64420,0.0010000000000000009
973998,9207,850,127570,471,2806,123637,37,19236,152,1,64421,0.0010000000000000009
974998,10987,3015,126352,1980,-563,125864,36,19235,147,1,64422,0.0010000000000000009
976001,12085,-2488,126809,2249,-2279,126601,43,19236,176,1,64423,0.0010030000000000872
976999,9624,1184,128224,-808,846,126386,50,19236,205,1,64424,0.0009979999999999434
977998,5870,21,128637,-5588,-690,129506,53,19236,205,0,64425,0.0009989999999999721
978998,3725,2695,128990,-4575,2100,126257,40,19230,217,0,64426,0.0010000000000000009
979998,6461,683,127061,945,-2016,129299,40,19234,164,0,64427,0.0010000000000000009
980998,9774,-1011,126819,1628,581,123805,39,19240,160,0,64428,0.0010000000000000009
981998,11450,412,126483,1974,-2811,126390,41,19236,168,0,64429,0.0010000000000000009
982998,12053,-2198,127240,813,-206,126331,41,19238,168,0,64430,0.0010000000000000009
983998,8699,3412,128801,-1411,2305,126756,41,19238,168,0,64431,0.0010000000000000009
984998,5992,1309,128434,-2978,591,128779,39,19234,168,0,64432,0.0010000000000000009
985998,4800,2329,127563,-3170,588,126440,39,19238,160,0,64433,0.0010000000000000009
986998,7036,-1653,127029,569,-2949,128505,38,19233,156,0,64434,0.0010000000000000009
987998,10465,539,126796,2244,1571,123736,45,19239,184,1,64435,0.0010000000000000009
988998,12232,1674,127457,1224,65,126051,43,19235,176,1,64436,0.0010000000000000009
989998,10515,174,128274,-2159,-497,126907,47,19235,176,1,64437,0.0010000000000000009
990999,6409,136,128372,-1723,-2575,129442,46,19237,192,1,64438,0.0010010000000000296
991998,4689,-1039,128825,-3276,2,129063,46,19239,188,1,64439,0.0009989999999999721
992998,5292,3576,127640,-2729,1716,125377,37,19237,152,1,64440,0.0010000000000000009
993998,9198,1259,126655,1014,49,126113,33,19239,135,1,64441,0.0010000000000000009
994998,11212,942,126457,2005,1241,124797,38,19238,156,1,64442,0.0010000000000000009
995998,10759,-2332,127155,1165,-3203,127470,46,19238,156,1,64443,0.0010000000000000009
996998,8137,455,128971,-2674,1194,126948,54,19234,188,1,64444,0.0010000000000000009
997998,4547,638,129175,-4021,-1814,129116,37,19235,221,0,64445,0.0010000000000000009
998998,7025,2264,128797,-1605,2228,127174,37,19238,152,0,64446,0.0010000000000000009
999998,7346,911,126433,-297,-1690,127938,38,19236,156,0,64447,0.0010000000000000009
1000998,9577,-1954,126423,514,-1757,124471,39,19235,160,0,64448,0.001000000000000112
1001998,10492,2162,127303,1983,861,126795,41,19235,168,0,64449,0.0009999999999998899
1002998,9466,48,128289,-2350,181,127646,42,19237,168,0,64450,0.001000000000000112
1003998,8065,1431,128342,-1364,-75,129711,39,19236,172,0,64451,0.0009999999999998899
1004998,4477,-374,128545,-2193,-663,125750,39,19237,160,0,64452,0.001000000000000112
1005998,7020,3251,127540,-3052,447,126994,38,19239,156,0,64453,0.0009999999999998899
1006998,7572,-1390,126275,1464,-2383,126807,41,19235,168,0,64454,0.001000000000000112
1007998,10957,1129,127138,-1750,3383,123258,50,19235,205,1,64455,0.0009999999999998899
1008998,10283,2787,127055,3228,-200,127413,41,19238,205,1,64456,0.001000000000000112
1009998,7596,150,128109,-7308,-932,127247,43,19234,168,1,64457,0.0009999999999998899
1011000,6634,-773,128217,-1062,-4402,131237,43,19236,176,1,64458,0.0010019999999999474
1012000,6055,-2393,128169,2282,2515,126043,39,19240,160,1,64459,0.001000000000000112
1012998,8171,5711,127839,-2629,3122,124257,32,19235,131,1,64460,0.0009980000000000544
1013998,9992,594,125710,-215,-2381,126231,36,19236,147,1,64461,0.0009999999999998899
1014998,11456,-719,127240,3262,852,125401,40,19236,147,1,64462,0.0009999999999998899
1015998,9115,1395,127635,382,-1162,128206,49,19234,164,1,64463,0.001000000000000112
1016998,6420,124,128366,-6070,308,126999,49,19235,201,0,64464,0.0009999999999998899
1017999,5097,1050,128527,-2048,45,129189,52,19239,213,0,64465,0.0010010000000000296
1018998,7859,1682,128177,1229,2105,125947,39,19238,160,0,64466,0.0009989999999999721
1020001,10191,1869,126989,-350,-685,125057,39,19237,160,0,64467,0.0010030000000000872
1020998,9527,-2085,127292,109,-2412,126761,39,19237,160,0,64468,0.0009969999999999146
1021998,9952,-931,127231,1084,-3331,128432,45,19238,160,0,64469,0.001000000000000112
1022998,8231,-4122,128214,-264,348,126951,45,19236,184,0,64470,0.0009999999999998899
1023998,6077,7806,128814,-4209,7279,125690,40,19238,164,0,64471,0.001000000000000112
1024998,6842,1929,126771,-2611,-2858,129240,39,19236,160,0,64472,0.0009999999999998899
1025998,8266,1909,128388,404,4775,122869,41,19237,168,0,64473,0.001000000000000112
1026998,9134,1745,127332,2337,-4683,129176,48,19237,168,1,64474,0.0009999999999998899
1027998,8835,-5344,127642,-4065,-3772,127081,40,19233,197,1,64475,0.001000000000000112
1028998,8754,-3275,128135,349,-3988,129467,40,19239,164,1,64476,0.0009999999999998899
1029998,8542,154,127245,-2281,3597,126095,46,19235,188,1,64477,0.001000000000000112
1030998,6232,12582,128792,5779,10126,121486,42,19239,172,1,64478,0.0009999999999998899
1031998,8480,738,126662,-11378,-7542,133000,38,19234,156,1,64479,0.001000000000000112
1032999,13228,-4242,128515,4969,2558,121958,35,19234,156,1,64480,0.0010010000000000296
1033999,10427,2964,127373,11679,-5602,131312,38,19238,143,1,64481,0.0009999999999998899
1034998,7543,-8830,126875,-12095,-5283,126167,38,19235,156,1,64482,0.0009989999999999721
1035998,4663,46,127033,-4149,-1015,128189,46,19234,188,1,64483,0.001000000000000112
1036998,6013,4383,128546,7206,9811,125941,52,19231,213,0,64484,0.0009999999999998899
1037998,5970,18181,127845,-14407,13354,118074,43,19237,176,0,64485,0.001000000000000112
1038998,13034,-3668,126848,6426,-9729,132934,39,19237,176,0,64486,0.0009999999999998899
1039999,10282,-7970,127086,7205,-6734,126999,40,19237,160,0,64487,0.0010010000000000296
1040998,14359,-5941,129122,-3902,-6349,129337,40,19235,164,0,64488,0.0009989999999999721
1041998,6699,-2602,127354,4447,-2314,128647,44,19236,180,0,64489,0.001000000000000112
1042998,5884,1965,127865,-2185,3279,127312,42,19237,172,0,64490,0.0009999999999998899
1043998,2281,11060,127488,-11853,11493,121403,41,19236,168,0,64491,0.001000000000000112
1044999,8592,7427,126744,-2037,3188,124771,38,19236,156,0,64492,0.0010010000000000296
1045998,13329,-2783,126204,14603,-4394,128475,44,19231,156,0,64493,0.0009989999999999721
1046998,8829,-2963,128034,-1514,-4316,126710,43,19235,180,1,64494,0.0009999999999998899
1047998,12507,-2828,128276,-8211,-2969,127660,43,19237,176,1,64495,0.001000000000000112
1048998,8139,-2705,127790,11780,-4303,131079,43,19232,176,1,64496,0.0009999999999998899
1049999,6350,13,127927,-5369,1852,121488,48,19234,197,1,64497,0.0010010000000000296
1050998,2393,8661,127734,-9990,6881,127188,41,19234,168,1,64498,0.0009989999999999721
1051998,7955,-383,126896,-3926,-2333,126913,36,19235,168,1,64499,0.001000000000000112
1052998,13251,2385,127621,10913,2440,124900,37,19238,147,1,64500,0.0009999999999998899
1053998,10075,1351,126616,1453,-1813,126300,37,19236,152,1,64501,0.001000000000000112
1054998,10057,-1127,127182,-4902,-4507,128600,45,19232,184,1,64502,0.0009999999999998899
1055998,6580,-5722,127965,2372,-4320,132501,53,19232,217,1,64503,0.001000000000000112
1056998,9313,2129,129441,-2826,9830,120723,56,19232,229,0,64504,0.0009999999999998899
1057999,3982,9478,128201,-5868,-443,127585,41,19237,229,0,64505,0.0010010000000000296
1058999,7880,-3305,126840,-1054,-5250,128691,42,19233,168,0,64506,0.001000000000000112
1059999,10140,-3678,126449,8192,-3432,128194,42,19240,172,0,64507,0.0009999999999998899
1060998,9520,-79,127825,-1809,4619,123793,45,19236,184,0,64508,0.0009989999999999721
1061998,9514,7051,126782,-1604,-1103,126014,44,19236,180,0,64509,0.001000000000000112
1062998,7935,-2609,127666,-2185,-2142,130219,42,19236,172,0,64510,0.0009999999999998899
1063998,9209,4825,129277,832,5335,123222,40,19236,172,0,64511,0.001000000000000112
1064998,6895,2330,127662,-1328,-3805,129029,43,19237,164,0,64512,0.0009999999999998899
1065998,7314,-3518,127905,-2847,-2645,127040,43,19235,176,0,64513,0.001000000000000112
1066998,7935,-2060,127227,2495,-3439,129009,50,19233,205,1,64514,0.0009999999999998899
1067998,9795,287,128082,-1388,5665,124056,54,19233,221,1,64515,0.001000000000000112
1068998,11145,6742,126786,1172,-378,126476,44,19240,180,1,64516,0.0009999999999998899
1069998,7991,-4818,126838,-4035,-3429,128690,42,19240,180,1,64517,0.001000000000000112
1070998,8800,3742,128971,1715,5771,123662,38,19235,172,1,64518,0.0009999999999998899
1071998,7121,2988,127730,-469,-1676,128972,38,19242,156,1,64519,0.001000000000000112
1072998,9278,-1538,127543,-1421,-2058,126638,36,19241,147,1,64520,0.0009999999999998899
1073998,8833,-2735,127283,2486,-4208,129016,39,19235,160,1,64521,0.001000000000000112
1074998,10125,370,128027,-162,4271,123537,47,19232,192,1,64522,0.0009999999999998899
1076003,8991,4280,127403,-167,-1153,128861,49,19232,192,1,64523,0.0010050000000001447
1077000,6387,-2824,127716,-4610,-630,127744,47,19231,201,0,64524,0.0009969999999999146
1077998,7922,6332,128914,-790,6468,123655,47,19237,192,0,64525,0.0009980000000000544
1078998,8010,2765,127590,1603,-870,127981,39,19236,160,0,64526,0.0009999999999998899
1080001,10039,-5142,126590,854,-5597,127965,41,19237,168,0,64527,0.0010030000000000872
1081000,9057,-6634,127364,371,-6081,129511,42,19234,172,0,64528,0.0009989999999999721
1082000,9398,2320,129169,-2021,6071,122774,44,19234,172,0,64529,0.0009999999999998899
1082998,8886,6159,127780,-167,1222,128233,42,19232,180,0,64530,0.0009980000000000544
1083999,5407,-1398,127816,-3667,-872,128598,42,19232,172,0,64531,0.0010010000000000296
1084999,6970,2622,127769,-1288,1511,125686,40,19235,164,0,64532,0.001000000000000112
1085998,7519,871,127160,1699,-33,126328,45,19231,184,1,64533,0.0009989999999999721
1087000,11378,253,127284,1074,-1768,126907,46,19235,188,1,64534,0.0010019999999999474
1087998,11997,-3740,127341,1705,-3623,128603,47,19235,188,1,64535,0.0009980000000000544
1088998,8840,2763,128833,-4071,3463,124322,49,19233,192,1,64536,0.0009999999999998899
1089998,5606,1082,128047,-1671,-2036,129177,49,19233,201,1,64537,0.001000000000000112
1090999,4471,-636,128109,-3411,-717,128607,44,19240,180,1,64538,0.0010010000000000296
1092000,7439,2290,127809,-1682,1609,126417,37,19237,152,1,64539,0.0010009999999998076
1092998,9054,2187,126944,2158,1624,124068,34,19238,139,1,64540,0.0009980000000000544
1093998,12304,-609,126128,2221,-2923,126943,42,19238,172,1,64541,0.001000000000000112
1094998,10441,-3978,127608,2171,-3012,128041,49,19232,172,1,64542,0.0009999999999998899
1095998,7875,3558,128308,-3662,2560,127077,55,19237,201,1,64543,0.001000000000000112
1096998,5132,3309,129267,-5055,1806,127628,55,19231,225,0,64544,0.0009999999999998899
1097999,3670,2360,127042,-2845,-615,128917,41,19239,168,0,64545,0.0010010000000000296
1098998,10085,-4126,127209,2201,-4397,125910,38,19240,156,0,64546,0.0009989999999999721
1099998,9150,3072,126833,2732,-278,123676,40,19240,164,0,64547,0.001000000000000112
1100998,12203,-5722,126135,-386,-5535,130498,42,19231,164,0,64548,0.0009999999999998899
1101998,9666,-852,128687,957,5218,124349,40,19234,172,0,64549,0.001000000000000112
1102998,7856,6392,128111,-2021,2105,127923,40,19234,164,0,64550,0.0009999999999998899
1103998,5777,2358,128113,-3050,2781,125000,37,19236,152,0,64551,0.001000000000000112
1104998,5617,2790,127388,-104,-5101,130214,39,19235,160,0,64552,0.0009999999999998899
1105998,10269,-5860,126702,2520,-1504,125805,46,19237,188,1,64553,0.001000000000000112
1107000,9753,2937,127618,2089,2179,124478,40,19237,188,1,64554,0.0010019999999999474
1107998,11396,-585,126880,-2389,-3410,128704,47,19231,164,1,64555,0.0009980000000000544
1108998,7128,-297,128431,-3067,1778,126552,47,19235,192,1,64556,0.0009999999999998899
1109998,5517,1835,128650,-2046,-800,130248,44,19239,180,1,64557,0.001000000000000112
1110998,5929,1859,127687,-2042,2992,123902,36,19236,147,1,64558,0.0009999999999998899
1111999,8155,2902,127180,110,-1508,127522,34,19240,139,1,64559,0.0010010000000000296
1112998,10877,-2250,126624,2538,-871,125403,38,19240,139,1,64560,0.0009989999999999721
1113998,11021,1442,127117,2471,-984,126534,46,19234,156,1,64561,0.001000000000000112
1114998,8283,-1801,128192,-4115,-1748,128667,46,19234,188,1,64562,0.0009999999999998899
1115998,5795,1814,128925,-5166,1827,126280,52,19231,213,0,64563,0.001000000000000112
1116998,5116,2546,128923,-367,1309,128912,39,19238,160,0,64564,0.0009999999999998899
1117998,8233,1929,127225,-342,185,125797,40,19236,164,0,64565,0.001000000000000112
1118998,9014,-917,126396,812,-3609,126820,40,19236,164,0,64566,0.0009999999999998899
1119998,10912,-1892,126677,2706,-331,125283,41,19236,164,0,64567,0.001000000000000112
1120998,9780,1639,128018,-1280,1026,126444,41,19238,168,0,64568,0.0009999999999998899
1121998,8288,1741,128591,-4481,-487,128806,42,19236,172,0,64569,0.001000000000000112
1122998,5523,157,128522,-1404,695,127338,39,19240,160,0,64570,0.0009999999999998899
1123998,6097,2806,128278,-1764,1270,126734,37,19235,152,0,64571,0.001000000000000112
1125000,8228,516,126700,677,-2458,127200,42,19235,152,0,64572,0.0010019999999999474
1125998,9277,-2423,126761,-1471,-690,125826,51,19232,172,1,64573,0.0009980000000000544
1126998,11022,1924,127486,2411,1944,124838,51,19236,209,1,64574,0.0009999999999998899
1127998,9303,2003,128101,2096,1148,126713,42,19232,172,1,64575,0.001000000000000112
1128998,5806,717,128138,-9455,-1902,128132,43,19236,176,1,64576,0.0009999999999998899
1129998,5605,-2745,127999,951,-3153,130105,36,19241,147,1,64577,0.001000000000000112
1130998,7370,4544,127713,1306,3483,123770,33,19241,147,1,64578,0.0009999999999998899
1131998,9939,1431,126576,-863,-1807,126838,34,19240,135,1,64579,0.001000000000000112
1132998,10480,-1393,126694,-622,-29,124582,34,19236,139,1,64580,0.0009999999999998899
1133998,11611,2083,127510,4272,-83,126633,41,19234,168,1,64581,0.0009999999999998899
1134998,6671,-1130,127750,-1195,-746,128567,48,19236,197,1,64582,0.001000000000000112
1135998,4869,3237,128550,-8685,1510,126289,51,19236,209,0,64583,0.0009999999999998899
1136998,6259,772,128797,605,363,128896,40,19236,164,0,64584,0.001000000000000112
1137998,9898,4030,127535,1933,2682,124210,38,19239,164,0,64585,0.0009999999999998899
1138998,9755,-2438,126542,435,-5321,127628,42,19235,156,0,64586,0.001000000000000112
1139999,10373,-867,127341,-1627,-2476,126634,42,19232,172,0,64587,0.0010010000000000296
1141002,8347,-108,128649,2194,-307,127906,43,19236,176,0,64588,0.0010029999999998651
1141998,6310,4472,129066,-5838,4961,126819,41,19239,168,0,64589,0.0009959999999999969
1142998,5042,2606,127737,-2674,313,128647,39,19239,160,0,64590,0.001000000000000112
1143998,5360,-219,127643,-1993,-350,126232,38,19237,160,0,64591,0.0009999999999998899
1145001,10895,-1668,126198,1591,-3400,123134,49,19235,156,0,64592,0.0010030000000000872
1146004,10614,2663,127760,5763,3541,126369,49,19232,201,1,64593,0.0010030000000000872
1146998,10211,413,127139,-6587,-3979,128046,39,19236,160,1,64594,0.0009939999999999394
1147998,9449,-232,129157,-439,2454,128102,46,19232,188,1,64595,0.0009999999999998899
1148998,5353,1686,128846,3375,-2370,130106,41,19232,168,1,64596,0.001000000000000112
1149998,5057,-1271,127068,-2971,-2975,126437,38,19239,168,1,64597,0.0009999999999998899
1151000,6491,-2203,127550,-1380,-115,127816,35,19240,156,1,64598,0.0010020000000001694
1151999,14639,3960,126776,9204,5576,121814,35,19237,143,1,64599,0.0009989999999999721
1152998,10482,5635,126811,-2772,1400,125352,38,19235,156,1,64600,0.0009989999999999721
1153998,8230,-922,126851,-4670,-5746,129913,45,19238,184,1,64601,0.0009999999999998899
1154998,6062,-4834,127748,2091,-222,128478,50,19234,205,1,64602,0.001000000000000112
1155998,5303,4642,129374,-6222,4496,127428,48,19234,205,0,64603,0.0009999999999998899
1156998,8460,2629,127293,-1642,-865,124718,39,19237,197,0,64604,0.001000000000000112
1157999,10070,-314,127160,4932,-1443,126836,39,19240,160,0,64605,0.0010010000000000296
1158998,9857,-2583,126458,-337,-4506,128225,39,19234,160,0,64606,0.0009989999999999721
1159998,10160,-1872,127201,-3368,66,125022,41,19234,168,0,64607,0.0009999999999998899
1160998,8393,1937,128143,5973,2061,129349,42,19241,172,0,64608,0.001000000000000112
1161998,6379,5486,128307,-6152,4376,124342,39,19241,172,0,64609,0.0009999999999998899
1162998,6301,2211,127767,-6140,-1141,128583,40,19238,160,0,64610,0.001000000000000112
1163998,10136,-2371,127139,7260,-1615,127187,40,19236,164,0,64611,0.0009999999999998899
1164998,9069,-401,126917,4774,628,124859,44,19236,180,1,64612,0.001000000000000112
1165998,10264,786,128013,-10832,837,125862,50,19234,205,1,64613,0.0009999999999998899
1166998,11106,2043,128157,4388,-1265,127758,43,19236,176,1,64614,0.001000000000000112
1167998,8265,-4234,127739,4488,-4797,132605,48,19236,176,1,64615,0.0009999999999998899
1168999,4841,1191,128609,-7963,4341,122686,43,19236,197,1,64616,0.0010010000000000296
1169998,5670,2836,127198,-4238,-1685,129341,43,19236,176,1,64617,0.0009989999999999721
1170998,10442,24,127624,5491,3812,124266,37,19237,152,1,64618,0.001000000000000112
1171998,10815,7735,127374,649,3331,124267,38,19236,156,1,64619,0.0009999999999998899
1172998,10451,-3475,126414,-570,-6095,128523,45,19238,184,1,64620,0.001000000000000112
1173998,7200,-3031,128111,1583,-3461,128895,52,19238,184,1,64621,0.0009999999999998899
1174998,7399,-3386,128727,-4631,-1872,130620,56,19237,213,0,64622,0.001000000000000112
1175998,6454,7312,129865,-4013,8775,121878,56,19239,229,0,64623,0.0009999999999998899
1176998,7845,4153,127270,1128,-1800,129662,41,19238,168,0,64624,0.001000000000000112
1177998,9112,-3733,125759,1302,-3550,125724,40,19234,164,0,64625,0.0009999999999998899
1178998,9280,-60,127125,727,-310,125590,45,19233,184,0,64626,0.001000000000000112
1179998,11386,1365,127940,748,1332,126441,43,19233,176,0,64627,0.0009999999999998899
1180998,9011,686,128033,-127,-1086,127900,42,19239,176,0,64628,0.001000000000000112
1181998,6773,-286,128903,-4293,-152,129189,42,19238,172,0,64629,0.0009999999999998899
1183001,6661,3406,127844,-523,1984,125259,42,19234,172,0,64630,0.0010030000000000872
1183998,7234,-720,126996,513,-2312,128283,42,19233,172,0,64631,0.0009969999999999146
1184998,9476,-104,127005,-891,46,125105,47,19233,192,0,64632,0.001000000000000112
1185998,10416,1837,127336,929,1440,125271,55,19233,225,1,64633,0.0009999999999998899
1186998,9621,2360,127817,1007,1554,126356,44,19236,225,1,64634,0.001000000000000112
1187998,8939,-2253,127206,-1169,-4479,129637,45,19236,180,1,64635,0.0009999999999998899
1188998,6846,-2254,128133,-2123,-1217,128040,45,19241,184,1,64636,0.001000000000000112
1189998,6682,4491,128576,-584,3734,126424,38,19234,156,1,64637,0.0009999999999998899
1190999,8731,965,127081,-744,-577,126582,36,19239,147,1,64638,0.0010010000000000296
1191999,11263,-245,126556,2360,-1003,126028,40,19239,164,1,64639,0.001000000000000112
1192998,9967,115,127141,1541,-335,125477,45,19236,164,1,64640,0.0009989999999999721
1193998,9462,1843,127710,-606,-808,127884,50,19239,184,1,64641,0.0009999999999998899
1194998,6654,-1004,128083,-1824,-257,129628,50,19231,205,0,64642,0.001000000000000112
1195998,6130,1718,128044,-4020,3184,125087,52,19236,213,0,64643,0.0009999999999998899
1196998,8119,3642,127889,164,764,126488,42,19239,172,0,64644,0.001000000000000112
1197998,9049,-556,126347,-73,-5614,127512,40,19234,164,0,64645,0.0009999999999998899
1198998,10718,-4621,127173,2023,-2500,127591,43,19234,164,0,64646,0.001000000000000112
1199998,9844,1177,128124,-2365,3292,124771,44,19236,176,0,64647,0.0009999999999998899
1200999,9627,4420,128477,-592,1066,127623,44,19236,180,0,64648,0.0010010000000000296
1201998,5547,107,128232,-2671,-1617,129883,45,19236,184,0,64649,0.0009989999999999721
1202998,6531,248,127886,-1704,1004,125923,39,19237,160,0,64650,0.001000000000000112
1203998,7312,2337,127634,829,1081,125482,43,19233,176,0,64651,0.0009999999999998899
1204998,10066,638,127155,-235,-1486,126341,46,19233,176,1,64652,0.001000000000000112
1205998,12237,-1555,127414,3726,-1884,127287,45,19239,188,1,64653,0.0009999999999998899
1206998,9691,-61,128378,-3267,71,127085,45,19236,184,1,64654,0.001000000000000112
1207998,6563,595,128086,-3612,-1163,127936,48,19232,197,1,64655,0.0009999999999998899
1208998,3659,-145,128210,-3324,-1388,129322,43,19238,176,1,64656,0.001000000000000112
1209998,6898,1101,127894,-1058,2028,126298,37,19235,152,1,64657,0.0009999999999998899
1211001,9314,4199,126791,1974,3034,123252,35,19235,152,1,64658,0.0010030000000000872
1211998,11103,1293,126264,989,-2587,126657,42,19233,143,1,64659,0.0009969999999999146
1212998,11411,-3863,126913,2231,-2928,127445,42,19240,172,1,64660,0.001000000000000112
1213998,8207,508,128700,-2495,835,127396,46,19234,188,1,64661,0.0009999999999998899
1214998,6026,1799,128800,-4763,1760,127583,53,19236,217,0,64662,0.001000000000000112
1215998,2969,2818,128320,-4487,220,127575,43,19236,176,0,64663,0.0009999999999998899
1216998,8486,-7,126923,1260,-2192,127351,38,19236,176,0,64664,0.001000000000000112
1217998,9987,417,126712,2874,972,123838,41,19235,156,0,64665,0.0009999999999998899
1218999,11992,-585,126359,1009,-2985,127076,41,19236,168,0,64666,0.0010010000000000296
1219998,10994,-1184,127861,609,233,125937,43,19240,176,0,64667,0.0009989999999999721
1220998,7680,3133,129147,-2746,2257,128199,42,19240,172,0,64668,0.001000000000000112
1221998,5880,2062,127909,-2608,232,127489,39,19234,160,0,64669,0.0009999999999998899
1222998,4829,1197,127568,-2562,-350,127484,36,19234,160,0,64670,0.001000000000000112
1223998,8869,-1245,126757,1037,-1613,126983,43,19237,147,1,64671,0.0009999999999998899
1224998,10391,1863,127074,2427,1649,123085,43,19238,176,1,64672,0.001000000000000112
1225998,12951,1041,127699,297,-1052,128021,40,19239,164,1,64673,0.0009999999999998899
1226998,8576,-2513,127922,-2044,-2838,127622,47,19234,192,1,64674,0.001000000000000112
1227998,5329,1313,129302,-2751,266,128582,44,19237,180,1,64675,0.0009999999999998899
1228998,5108,1743,128483,-2442,2947,127620,36,19237,147,1,64676,0.001000000000000112
1230000,6640,1333,127539,-2017,795,125929,34,19238,147,1,64677,0.0010019999999999474
1230998,10951,902,126706,2429,183,126377,37,19239,139,1,64678,0.0009980000000000544
1231999,10236,-1045,127236,2812,252,124212,37,19238,152,1,64679,0.0010009999999998076
1232998,9979,645,127664,-620,-1393,128280,45,19235,184,1,64680,0.0009990000000001942
1234000,7033,-1304,128553,-4159,-1182,128146,51,19236,209,0,64681,0.0010019999999999474
1234998,5030,2334,129409,-2926,1699,128325,43,19236,176,0,64682,0.0009980000000000544
1235998,6731,2093,127656,-433,468,124742,37,19234,176,0,64683,0.0009999999999998899
1236998,8073,1460,126582,-3221,142,127003,39,19237,152,0,64684,0.001000000000000112
1237998,11030,-2850,126563,2968,-3913,125908,39,19238,160,0,64685,0.0009999999999998899
1238998,10316,1347,127534,4143,1389,125108,42,19236,172,0,64686,0.001000000000000112
1239998,8964,1393,128432,-5558,247,129673,41,19237,168,0,64687,0.0009999999999998899
1240998,6025,-1096,128691,-2408,-348,128194,41,19237,168,0,64688,0.001000000000000112
1241998,5922,1345,128469,228,922,127448,36,19236,168,0,64689,0.0009999999999998899
1242998,7648,2431,127284,-2388,1446,124853,38,19236,147,0,64690,0.001000000000000112
1243998,8280,542,126419,-125,-2242,126293,38,19235,156,1,64691,0.0009999999999998899
1244998,11237,-441,127308,1580,1823,125018,50,19237,205,1,64692,0.001000000000000112
1245998,10576,2640,127572,2489,-286,127423,42,19235,172,1,64693,0.0009999999999998899
1247000,6899,-1061,128323,-8006,-2783,128808,44,19235,180,1,64694,0.0010019999999999474
1247998,5580,-821,128589,-455,-1205,129250,38,19235,180,1,64695,0.0009980000000000544
1248998,6964,-161,128101,1914,2286,126692,32,19236,156,1,64696,0.001000000000000112
1249998,9171,4492,126687,-879,1942,123491,32,19237,131,1,64697,0.0009999999999998899
1250998,9777,38,126060,-688,-1852,126188,34,19241,139,1,64698,0.001000000000000112
1251998,11913,-323,127515,2418,1213,125819,42,19234,172,1,64699,0.0009999999999998899
1252998,8091,1492,127724,1526,-1634,129088,47,19234,192,1,64700,0.0009999999999998899
1253998,5410,-615,128612,-8201,-301,127686,51,19234,192,0,64701,0.001000000000000112
1254998,5492,688,127655,429,-41,127373,40,19234,209,0,64702,0.0009999999999998899
1255998,8691,1663,127679,2570,2564,125446,40,19235,164,0,64703,0.001000000000000112
1256999,10720,3180,127008,-1819,-774,124878,39,19240,160,0,64704,0.0010010000000000296
1258001,10765,-2627,126756,-580,-2414,126763,41,19236,168,0,64705,0.0010019999999999474
1259000,9600,-262,128282,5586,-1148,128094,42,19236,172,0,64706,0.0009989999999999721
1259998,5776,-60,128836,-6320,-910,129428,40,19236,172,0,64707,0.0009980000000000544
1260999,5216,507,128251,-6985,287,128222,39,19234,164,0,64708,0.0010010000000000296
1261999,6301,2850,128253,4014,4150,124852,39,19242,160,0,64709,0.0009999999999998899
1262998,8994,5345,127764,-2590,4355,123789,38,19237,156,0,64710,0.0009989999999999721
1263998,9421,-510,126530,-1468,-3953,127250,47,19234,192,1,64711,0.001000000000000112
1264999,8315,-7501,126474,2471,-7092,130061,40,19237,164,1,64712,0.0010010000000000296
1265998,11681,2162,129501,7403,7382,122584,43,19237,164,1,64713,0.0009989999999999721
1267000,5418,6384,126935,-11744,-1684,131030,44,19232,176,1,64714,0.0010019999999999474
1267998,8981,-4680,129711,-4452,977,125580,44,19239,180,1,64715,0.0009980000000000544
1268998,7940,7052,128209,13166,2685,127827,36,19241,147,1,64716,0.0009999999999998899
1269998,8365,-3244,126850,-7159,-3033,125603,35,19236,143,1,64717,0.001000000000000112
1271001,8992,-1749,126740,-6115,-4951,126238,39,19233,160,1,64718,0.0010030000000000872
1271998,9070,-5037,127286,13194,-1366,131187,45,19233,160,1,64719,0.0009969999999999146
1272998,8131,10221,127586,-9253,11223,118659,48,19231,184,1,64720,0.0009999999999998899
1273998,5627,7593,128753,-4764,2249,128204,46,19231,197,0,64721,0.001000000000000112
1274998,5868,-5601,125788,2799,-8081,132041,46,19238,188,0,64722,0.0009999999999998899
1275998,12021,-1627,129631,-803,1569,123793,41,19236,168,0,64723,0.001000000000000112
1277001,9463,3327,127019,2252,90,126275,39,19235,160,0,64724,0.0010030000000000872
1277998,10213,-6317,126344,2884,-6726,128734,43,19235,176,0,64725,0.0009969999999999146
1278998,6274,-1684,128382,-7125,321,127554,41,19239,176,0,64726,0.0009999999999998899
1279998,8272,7646,128279,1894,7761,125150,39,19239,168,0,64727,0.001000000000000112
1280998,6586,4620,126763,-1337,1920,125592,39,19236,160,0,64728,0.0009999999999998899
1281998,8385,553,128501,-4656,-138,126304,38,19235,156,0,64729,0.001000000000000112
1282998,11900,-477,127056,5880,-1396,127571,42,19234,172,0,64730,0.0009999999999998899
1283998,9133,-1103,128011,3641,-2526,128438,52,19234,213,1,64731,0.001000000000000112
1284998,8984,-3738,127287,-6832,-4675,126639,45,19236,213,1,64732,0.0009999999999998899
1285998,8139,1461,128376,2659,1725,127357,46,19236,184,1,64733,0.001000000000000112
1287003,7058,4896,128492,-1431,2654,126286,46,19236,188,1,64734,0.0010049999999999226
1288000,5450,1211,127113,-4503,-4599,129051,40,19238,164,1,64735,0.0009970000000001367
1289000,8958,-3052,127531,-3253,4079,123616,36,19241,147,1,64736,0.0009999999999998899
1289998,11479,8149,128046,8287,3793,125003,37,19237,152,1,64737,0.0009980000000000544
1290999,10047,-1693,125846,-323,-8017,129878,45,19237,152,1,64738,0.0010010000000000296
1291998,9266,-5108,128060,96,-1313,127298,50,19230,184,1,64739,0.0009989999999999721
1292998,6171,723,128477,-42,2090,128188,50,19235,205,0,64740,0.0009999999999998899
1293998,7368,5334,129374,-6990,4558,123864,54,19232,221,0,64741,0.001000000000000112
1294998,7183,1406,127127,-544,-4323,131518,40,19234,164,0,64742,0.0009999999999998899
1295998,9672,-3922,126588,2180,173,124635,43,19235,176,0,64743,0.001000000000000112
1296998,9730,4470,127056,2386,1996,124234,44,19235,176,0,64744,0.0009999999999998899
1297998,9305,-526,126896,-1330,-5452,129439,44,19236,180,0,64745,0.001000000000000112
1298998,10181,-2037,128005,1077,-9,127790,44,19236,180,0,64746,0.0009999999999998899
1299998,7596,2823,128824,-4138,4252,126494,43,19237,176,0,64747,0.001000000000000112
1300998,7262,5886,128046,-1418,1978,125055,40,19236,164,0,64748,0.0009999999999998899
1301998,6326,-2091,127437,1418,-6939,131461,41,19236,168,0,64749,0.001000000000000112
1302998,8458,-3849,127521,-1572,818,124698,47,19236,168,0,64750,0.0009999999999998899
1303998,10704,3874,127547,1342,1434,125240,59,19231,192,1,64751,0.001000000000000112
1304998,8928,740,127513,1266,383,126580,59,19241,242,1,64752,0.0009999999999998899
1306000,10819,850,127370,-1215,-1472,127483,46,19231,188,1,64753,0.0010020000000001694
1306998,6689,-466,128382,-2251,964,127266,45,19236,184,1,64754,0.0009979999999998324
1307998,7322,3215,128075,-80,1018,126666,38,19237,156,1,64755,0.001000000000000112
1308998,7635,-2265,127088,-462,-4440,129194,36,19237,156,1,64756,0.0009999999999998899
1309998,10134,714,127984,648,3136,123613,37,19240,147,1,64757,0.001000000000000112
1310998,10881,2915,126600,3124,-501,126598,37,19236,152,1,64758,0.0009999999999998899
1311998,9516,-1109,127058,-904,-1533,126740,44,19229,180,1,64759,0.001000000000000112
1312998,8421,-268,127638,-2181,-770,128395,48,19234,197,0,64760,0.0009999999999998899
1313999,5764,2922,128778,-2593,4496,125438,48,19238,197,0,64761,0.0010010000000000296
1314998,8632,5732,128556,-1416,2026,126511,40,19238,197,0,64762,0.0009989999999999721
1316000,8362,-4333,126761,785,-6873,130379,42,19235,164,0,64763,0.0010019999999999474
1316999,10152,-3104,127250,2228,-1739,125001,43,19234,172,0,64764,0.0009990000000001942
1317998,10351,1309,127610,385,933,125966,43,19234,176,0,64765,0.0009989999999999721
1318998,8790,1944,127831,-2541,899,126600,44,19236,180,0,64766,0.0009999999999998899
1319998,7853,1187,128073,-1833,409,128639,42,19236,172,0,64767,0.001000000000000112
1320998,5156,2756,128205,-1850,3007,125993,40,19236,164,0,64768,0.0009999999999998899
1321999,7452,2752,127405,-857,-248,126477,45,19233,164,0,64769,0.0010010000000000296
1323000,8439,-3437,127006,1098,-4367,128591,53,19237,184,1,64770,0.0010010000000000296
1323998,11091,-158,128252,302,577,125553,53,19237,217,1,64771,0.0009980000000000544
1324998,12060,2379,127954,2639,1459,125479,44,19236,180,1,64772,0.0009999999999998899
1325998,6824,1225,128075,-3575,-632,127525,49,19236,201,1,64773,0.001000000000000112
1327000,4893,-2494,128053,-3972,-3169,129786,42,19236,172,1,64774,0.0010019999999999474
1327998,4696,1803,128680,-2316,2222,126988,35,19234,172,1,64775,0.0009980000000000544
1328998,8260,5515,127175,-500,3126,125134,36,19236,143,1,64776,0.0009999999999998899
1329998,10423,-1024,126363,1460,-1728,125876,36,19238,147,1,64777,0.001000000000000112
1330999,11893,-361,126709,1567,-640,126653,41,19235,168,1,64778,0.0010010000000000296
1331998,10362,-1557,128224,1530,-947,126204,46,19236,188,1,64779,0.0009989999999999721
1332999,7451,2967,128795,-4342,2087,128684,52,19236,213,1,64780,0.0010010000000000296
1333998,3156,806,128456,-4523,-718,127723,44,19234,213,0,64781,0.0009989999999999721
1334999,5770,1916,127682,-3387,779,126419,37,19239,180,0,64782,0.0010010000000000296
1335998,9046,-247,126382,2399,-2674,126618,37,19234,152,0,64783,0.0009989999999999721
1336998,11540,-2016,126274,2440,-2533,125958,40,19234,164,0,64784,0.0009999999999998899
1337998,12808,-1314,127343,1350,892,126186,40,19240,164,0,64785,0.001000000000000112
1338998,8004,3442,128713,-3742,3715,125967,42,19235,172,0,64786,0.0009999999999998899
1339998,7506,3267,128185,-2287,-993,128912,40,19235,172,0,64787,0.001000000000000112
1340998,4229,-218,128033,-1847,135,127651,37,19239,164,0,64788,0.0009999999999998899
1341998,6841,923,127327,-507,-1090,126480,37,19236,152,0,64789,0.001000000000000112
1342998,9469,-697,126812,2071,-567,125231,45,19237,184,1,64790,0.0009999999999998899
1343998,11731,1260,127599,742,-16,126963,37,19236,152,1,64791,0.001000000000000112
1344998,11647,-1211,127491,-566,-1478,127076,46,19233,188,1,64792,0.0009999999999998899
1345998,6208,2173,129049,-3254,1692,127119,46,19233,188,1,64793,0.001000000000000112
1346998,5174,571,128325,-3301,-1889,129976,41,19238,188,1,64794,0.0009999999999998899
1347998,4793,428,128102,-2211,1610,125766,41,19238,168,1,64795,0.001000000000000112
1348998,9328,2727,127056,1725,226,126491,33,19238,135,1,64796,0.0009999999999998899
1350000,10168,67,126252,2310,-202,124279,37,19236,152,1,64797,0.0010019999999999474
1351000,10634,302,127471,-436,-2883,128134,44,19235,180,1,64798,0.001000000000000112
1351999,8228,-2835,128213,-1807,-1029,128144,52,19235,180,1,64799,0.0009989999999999721
1352998,5857,3630,129347,-4678,3384,126390,45,19233,213,0,64800,0.0009989999999999721
1353998,6125,2172,127967,-1526,-395,128444,45,19236,184,0,64801,0.001000000000000112
1354998,7276,134,127284,-2036,-613,126458,41,19238,168,0,64802,0.0009999999999998899
1356000,10199,-1498,126243,3302,-3286,126725,40,19235,164,0,64803,0.0010019999999999474
1356998,10336,286,127195,1620,1271,124690,42,19240,172,0,64804,0.0009980000000000544
1357998,9321,1121,128173,-3293,-276,127874,41,19240,172,0,64805,0.001000000000000112
1358998,7721,-101,128499,-2267,-358,128334,40,19234,168,0,64806,0.0009999999999998899
1359998,5600,2622,128728,-992,1595,127700,40,19239,164,0,64807,0.001000000000000112
1361000,6455,811,127460,-2005,-186,126720,39,19235,160,0,64808,0.0010019999999999474
1361999,7558,189,126755,-701,-583,126774,41,19236,168,0,64809,0.0009989999999999721
1362998,10897,-2086,127407,-1100,668,125494,46,19237,188,1,64810,0.0009989999999999721
1363998,10392,4087,128041,3358,3648,124462,40,19237,164,1,64811,0.001000000000000112
1364998,8229,-1584,127095,-1823,-4483,128663,42,19235,164,1,64812,0.0009999999999998899
1365998,7236,-1233,129143,-7706,-660,128645,42,19238,172,1,64813,0.001000000000000112
1366998,5557,814,128113,4697,-374,128513,42,19242,172,1,64814,0.0009999999999998899
1367998,7656,3037,127877,-2499,2975,125006,35,19239,143,1,64815,0.001000000000000112
1368998,9866,1295,126264,-2387,-1377,125215,34,19238,139,1,64816,0.0009999999999998899
1369998,11293,-1561,126505,3269,-1231,126231,39,19238,160,1,64817,0.0009999999999998899
1370998,10255,2443,127293,4670,1198,125984,45,19232,160,1,64818,0.001000000000000112
1371998,5376,847,127912,-6577,-597,127828,50,19235,184,0,64819,0.0009999999999998899
1372998,5615,1169,128616,-6161,404,128072,50,19235,205,0,64820,0.001000000000000112
1373998,7578,1763,128502,4384,1207,127844,39,19236,160,0,64821,0.0009999999999998899
1374998,10150,1700,126869,-1881,588,125171,41,19236,168,0,64822,0.001000000000000112
1375998,9273,-2679,126789,-467,-4273,125810,38,19236,156,0,64823,0.0009999999999998899
1376998,10255,-686,128118,934,-624,128095,42,19240,156,0,64824,0.001000000000000112
1377998,8363,1156,128534,928,546,127984,39,19238,172,0,64825,0.0009999999999998899
1378998,5237,1813,127256,-5903,262,127804,39,19239,160,0,64826,0.001000000000000112
1379999,6350,256,128025,276,1076,123130,40,19239,164,0,64827,0.0010010000000000296
1380998,8543,7077,127101,490,5783,128336,39,19235,160,0,64828,0.0009989999999999721
1381998,11001,-3295,127092,-2169,-2484,125529,46,19232,188,1,64829,0.0009999999999998899
1382998,10400,1267,128138,715,1052,125626,43,19232,188,1,64830,0.001000000000000112
1383998,8811,-651,128515,2587,-3477,130153,44,19240,176,1,64831,0.0009999999999998899
1384998,6952,-3890,126866,-5790,-7274,130616,44,19234,180,1,64832,0.001000000000000112
1386000,5458,-1688,129115,4865,6664,126412,45,19240,184,1,64833,0.0010019999999999474
1387000,7507,10263,127498,-11487,7561,121695,40,19236,164,1,64834,0.001000000000000112
1387998,12109,5592,128230,4539,1177,124826,35,19240,143,1,64835,0.0009979999999998324
1388998,10081,-3199,126054,7699,-11104,132415,38,19240,143,1,64836,0.001000000000000112
1389998,11230,-8730,127693,-2887,-2225,125949,44,19237,156,1,64837,0.0009999999999998899
1390998,3220,2081,127645,-5597,-274,128502,44,19239,180,1,64838,0.001000000000000112
1391998,6163,1701,128758,-908,6937,124189,52,19233,213,0,64839,0.0009999999999998899
1392998,6458,11621,128166,-4877,7053,125334,52,19237,213,0,64840,0.001000000000000112
1393998,11272,-67,127183,2610,-5322,128450,38,19236,156,0,64841,0.0009999999999998899
1394998,11283,-4890,126194,3815,-3756,126351,39,19236,156,0,64842,0.001000000000000112
1396008,11574,-5721,128221,126,-4866,129778,40,19238,160,0,64843,0.0010099999999999554
1396998,9724,-950,128339,-1391,2049,125793,40,19236,164,0,64844,0.0009900000000000464
1397998,5167,1756,128189,-768,-776,129413,42,19235,172,0,64845,0.0009999999999998899
1398998,6272,3953,127911,-2958,6208,124466,42,19234,172,0,64846,0.001000000000000112
1399998,4957,7917,126995,-3453,4137,122896,39,19238,160,0,64847,0.0009999999999998899
1400998,11766,1482,127433,313,-375,126643,42,19238,160,0,64848,0.001000000000000112
1401998,11834,-1183,127180,10113,-4921,129296,50,19236,172,1,64849,0.0009999999999998899
1402998,10123,-6995,127551,-5411,-5772,128931,50,19238,205,1,64850,0.001000000000000112
1403998,9212,-233,128938,-260,216,127101,44,19237,180,1,64851,0.0009999999999998899
1404998,5030,-452,127792,1510,-624,128979,47,19240,192,1,64852,0.001000000000000112
1405998,5726,5427,128159,-6622,5947,124170,43,19237,176,1,64853,0.0009999999999998899
1407002,6891,1986,126764,-5338,-747,126337,38,19237,156,1,64854,0.0010040000000000049
1407998,11842,4280,128034,7744,6134,122223,37,19235,156,1,64855,0.0009959999999999969
1408998,10888,1329,127466,3131,-5344,129474,37,19235,152,1,64856,0.001000000000000112
1409998,9852,-7200,126527,-4536,-5294,128260,43,19240,176,1,64857,0.0009999999999998899
1410998,7321,-976,128375,3132,-2114,130118,51,19238,209,1,64858,0.001000000000000112
