t_us,ax,ay,az,ax1,ay1,az1,shunt_raw,bus_raw,curr_raw,pg_rpm,seq,dt
0,8766,11966,131912,14917,10830,125705,157,19224,643,0,43560,
998,5517,-11836,125872,-12642,-11219,133115,153,19222,627,0,43561,0.000998
1998,12131,-8523,129474,-21634,-7802,129738,193,19214,790,1,43562,0.0009999999999999998
2998,5910,1722,128397,18760,-223,130355,158,19214,790,1,43563,0.001
3998,-823,2097,133019,4669,264,129268,175,19223,647,1,43564,0.001
4998,-3124,-5860,128664,-38695,-8034,134157,175,19216,717,0,43565,0.001
5998,996,5061,130587,-2719,6719,118656,226,19227,926,0,43566,0.001
6998,8897,25399,128973,4846,10400,121401,170,19221,696,0,43567,0.001
7998,7905,-4961,127205,-8329,-15004,132416,170,19216,696,0,43568,0.001
8998,-1533,-16612,126821,-10862,-14285,136719,245,19216,696,1,43569,0.0009999999999999992
9998,3308,-6875,131204,-4772,3849,124394,158,19233,1003,1,43570,0.0010000000000000009
11000,3570,15450,130558,-3557,15156,121441,158,19221,647,1,43571,0.0010019999999999994
11998,3844,1416,129275,-12008,-4115,132757,175,19217,717,0,43572,0.0009980000000000006
12998,-1637,-485,123532,-14279,6337,120093,179,19223,733,0,43573,0.0009999999999999992
13998,7745,11976,129734,2544,7283,125275,164,19225,672,0,43574,0.0010000000000000009
14998,10191,1218,123399,11320,-2496,123718,190,19225,672,1,43575,0.0009999999999999992
15998,2437,-626,126660,-13257,-3974,129417,143,19215,778,1,43576,0.0009999999999999992
17006,7404,-5624,124472,-5273,-1808,128146,171,19223,586,1,43577,0.001008000000000002
17998,5748,8102,128291,9351,7643,123909,171,19219,700,1,43578,0.0009919999999999998
18998,7862,1244,125894,-7307,-1391,127087,209,19216,856,0,43579,0.0009999999999999974
19998,5982,4415,125728,-7114,8360,117051,162,19227,664,0,43580,0.0010000000000000009
20998,14537,5894,126252,8644,-1002,129756,157,19227,643,0,43581,0.0010000000000000009
21998,16225,-3324,124495,10433,-3542,124232,204,19215,643,1,43582,0.0010000000000000009
22998,9432,1682,124787,6155,-9182,125676,163,19228,836,1,43583,0.0009999999999999974
23998,10853,-1730,127454,2803,339,125210,163,19221,668,1,43584,0.0010000000000000009
25001,10463,8483,127780,3947,6012,124100,177,19215,725,0,43585,0.0010030000000000004
25999,12899,-154,127946,228,-314,130720,186,19226,762,0,43586,0.0009979999999999989
27000,12877,3569,125009,6970,3903,119578,161,19226,659,0,43587,0.0010010000000000019
27998,15821,-2345,125267,12897,-4143,127667,175,19224,659,0,43588,0.0009979999999999989
28998,14450,-5209,125990,5878,-6173,127371,149,19212,717,1,43589,0.0010000000000000009
29998,13689,-4820,128479,1136,-4044,129765,149,19225,610,1,43590,0.0010000000000000009
30998,15300,971,129169,5028,2741,127162,162,19220,664,1,43591,0.0009999999999999974
31998,12536,6485,127952,6728,2977,123390,187,19218,766,0,43592,0.0010000000000000009
32999,9690,-1593,126814,1176,-3703,129932,156,19218,639,0,43593,0.0010010000000000019
33998,11485,-1056,130025,1421,-3349,128925,157,19224,639,0,43594,0.0009989999999999999
34998,13760,-1636,128152,5010,-661,128245,213,19219,643,1,43595,0.0010000000000000009
35998,7217,4552,131226,957,4502,122824,213,19216,872,1,43596,0.000999999999999994
36998,7591,-5283,129648,-1828,-10884,135521,153,19224,627,1,43597,0.0010000000000000009
37998,5923,-19639,126164,-3280,-18395,136627,168,19212,688,1,43598,0.0010000000000000009
38998,8232,11221,130696,-1643,18799,115598,231,19224,946,0,43599,0.0010000000000000009
39998,15315,12721,129064,11332,5332,130671,157,19224,946,0,43600,0.0010000000000000009
40998,2519,-2065,129187,-13480,444,123138,165,19224,643,0,43601,0.0010000000000000009
41999,17212,-4923,131210,-21378,-10143,133150,165,19215,676,1,43602,0.001000999999999995
42999,126,-10323,129083,34845,-11483,134285,180,19229,737,1,43603,0.0010000000000000009
43998,-4797,-4131,131632,-20794,-6158,127909,170,19222,696,1,43604,0.0009989999999999999
44998,3523,552,129984,-27480,2942,127871,191,19207,782,0,43605,0.0010000000000000009
45998,-1276,17786,128827,4082,20597,118800,153,19207,782,0,43606,0.0010000000000000009
46998,15447,11465,129283,-6352,6082,124954,161,19222,627,0,43607,0.0010000000000000009
47998,701,-11650,124270,-1690,-14187,129196,161,19226,659,0,43608,0.0010000000000000009
48998,2466,-11084,129627,-8700,-11186,134880,202,19205,827,1,43609,0.0010000000000000009
49998,-424,650,130393,-6915,-68,123582,136,19227,557,1,43610,0.0010000000000000009
50998,1128,5538,130222,-8314,6344,127432,165,19220,676,1,43611,0.000999999999999994
51998,8018,7087,128126,-12267,5366,122831,216,19220,676,0,43612,0.0010000000000000009
52998,-3014,5269,122635,7343,1247,126678,166,19219,885,0,43613,0.0010000000000000009
53998,7169,2449,127001,-18159,5991,122375,166,19223,680,0,43614,0.0010000000000000009
54998,10697,7331,127456,-3243,3200,123419,165,19216,676,1,43615,0.0010000000000000009
55998,6731,1905,127310,14992,447,131232,187,19228,766,1,43616,0.0010000000000000009
56998,4186,-6008,123870,-6706,-9999,129118,164,19226,672,1,43617,0.0010000000000000009
57998,2858,-9008,125900,-15834,-23,127771,183,19226,672,1,43618,0.000999999999999994
59006,9506,10353,126338,1983,14448,118615,192,19217,750,0,43619,0.001008000000000002
59998,8245,13769,127657,-1398,10146,120962,192,19223,786,0,43620,0.0009919999999999998
60998,16145,1925,125097,443,-6166,128240,158,19224,647,0,43621,0.0010000000000000009
61998,10699,-9262,123053,9308,-8431,127317,176,19215,721,1,43622,0.0010000000000000009
62998,12382,1784,124529,6359,2523,123701,147,19219,602,1,43623,0.0010000000000000009
63998,13297,254,126101,6694,-428,126624,173,19219,709,1,43624,0.0010000000000000009
64998,8671,3253,126113,-4945,3644,125663,208,19221,709,0,43625,0.0010000000000000009
65998,13896,4383,126858,2509,3819,125344,168,19220,852,0,43626,0.0010000000000000009
66998,13550,3085,125974,16276,2824,122877,168,19225,688,0,43627,0.0010000000000000009
67999,16282,873,127262,5861,-12562,128279,158,19220,647,0,43628,0.001000999999999988
68998,12880,-9899,125619,-2702,-7080,127926,222,19227,909,1,43629,0.0009990000000000138
69999,16355,1375,130137,10245,1839,128017,147,19227,602,1,43630,0.001000999999999988
70998,14837,894,128840,10858,-680,127166,164,19222,602,1,43631,0.0009989999999999999
71998,11200,2698,127284,-3764,2045,124771,192,19216,672,0,43632,0.0010000000000000009
72998,10435,-1839,127744,-749,-4486,130018,192,19226,786,0,43633,0.0010000000000000009
73999,14658,494,128608,11911,2009,126240,163,19223,668,0,43634,0.0010010000000000019
74998,14484,-404,128603,8310,-3199,127373,172,19214,704,1,43635,0.0009989999999999999
75998,5357,-4821,128905,-11565,-5303,127716,157,19214,643,1,43636,0.0010000000000000009
76998,10128,-5560,128465,6334,-7313,133646,158,19225,643,1,43637,0.0010000000000000009
78004,5385,-3531,130199,-734,876,131004,192,19222,647,1,43638,0.001005999999999993
79000,8847,-886,126068,-8579,4719,119633,192,19215,786,0,43639,0.0009960000000000108
80000,7977,19007,131816,13762,14847,126291,158,19229,647,0,43640,0.0010000000000000009
81000,8171,-12758,125908,-8989,-16430,135479,156,19223,639,0,43641,0.0010000000000000009
82000,12956,-1984,130454,-21390,3134,121140,206,19220,844,1,43642,0.000999999999999987
82998,5328,292,131892,24818,-6860,135610,148,19220,844,1,43643,0.0009980000000000128
83998,-2186,-5135,129352,-3776,-5971,127404,171,19223,606,1,43644,0.000999999999999987
84999,-2497,-5091,129378,-39213,-7105,135448,171,19218,700,0,43645,0.0010010000000000019
85998,2610,7349,130553,4094,15817,120333,218,19228,893,0,43646,0.0009989999999999999
86998,6700,26755,128684,7187,18947,118118,169,19225,692,0,43647,0.0010000000000000009
88001,7036,-10024,127429,-19092,-14606,132723,173,19213,709,0,43648,0.0010030000000000039
88999,505,-13641,126717,-6240,-13835,131256,209,19213,709,1,43649,0.0009979999999999989
90000,4114,-7362,131163,1793,-6152,134662,157,19228,856,1,43650,0.0010010000000000019
91000,2469,8268,130583,-11813,12963,117887,157,19221,643,1,43651,0.0010000000000000009
91999,1007,58,125988,-8540,-6874,134849,183,19213,750,0,43652,0.0009989999999999999
92998,-1544,3356,121846,-13645,5587,120790,161,19224,659,0,43653,0.0009989999999999999
93998,8301,14763,128658,-3975,10607,120756,167,19226,684,0,43654,0.0010000000000000009
94999,9842,-3664,123481,10881,-4173,128564,198,19226,684,1,43655,0.0010010000000000019
95998,1887,4764,127615,-7868,3727,121087,149,19220,811,1,43656,0.0009989999999999999
96998,7572,-8114,124655,-10578,-8608,125477,149,19225,610,1,43657,0.0010000000000000009
97998,6708,10526,128151,9130,9961,126973,171,19218,700,1,43658,0.0010000000000000009
98999,6004,-5350,125595,892,-6661,127592,219,19216,897,0,43659,0.001000999999999988
99999,6759,9829,127002,-13925,11708,113666,165,19228,676,0,43660,0.0010000000000000009
100998,14332,7512,126329,6934,-6267,135298,159,19228,676,0,43661,0.0009989999999999999
101998,16018,-5799,125945,13334,2374,119764,169,19217,651,1,43662,0.0010000000000000009
102998,10874,754,123727,3887,-9354,131319,169,19224,692,1,43663,0.0010000000000000009
103998,10199,-5834,125861,2956,6751,122504,174,19224,713,1,43664,0.0010000000000000009
104998,11583,11713,125925,4885,4981,125460,188,19216,770,0,43665,0.0010000000000000009
105999,13865,-1780,127461,2409,-906,129848,166,19224,680,0,43666,0.0010010000000000019
106998,13872,4916,124190,10150,5316,116494,158,19224,647,0,43667,0.0009989999999999999
107998,13436,-1033,127192,6576,-8467,133191,183,19223,647,1,43668,0.0010000000000000009
108998,16554,-10692,124872,3325,-6955,126673,129,19212,750,1,43669,0.0010000000000000009
109998,13683,-1938,128308,12367,-1961,130872,129,19224,528,1,43670,0.0010000000000000009
110998,12520,2088,128110,-2322,6122,121887,158,19223,647,1,43671,0.0010000000000000009
111998,12402,7310,127877,5610,-235,125524,192,19212,786,0,43672,0.0010000000000000009
112998,10680,-197,126472,7096,-12195,135496,158,19212,647,0,43673,0.0010000000000000009
113998,15054,1954,129013,2838,2877,120701,154,19222,647,0,43674,0.000999999999999987
114998,11769,4192,130067,3208,-771,128002,229,19220,631,1,43675,0.0010000000000000009
115998,7795,-6053,131801,2274,-7633,131636,229,19233,938,1,43676,0.0010000000000000009
116998,6994,-10035,127292,-64,-9778,135223,158,19225,647,1,43677,0.0010000000000000009
117998,4349,-7895,128067,-7980,1082,124991,172,19210,704,1,43678,0.0010000000000000009
118998,11773,15079,129627,984,18648,117278,199,19210,815,0,43679,0.0010000000000000009
120000,12644,3594,128662,17314,-7656,136523,156,19221,815,0,43680,0.0010020000000000029
121000,4070,-3965,128746,-29541,-761,122395,172,19221,639,0,43681,0.0010000000000000009
121998,15165,-2235,130337,-9177,-6808,129900,172,19213,704,1,43682,0.0009979999999999989
122998,1764,-5400,129710,35628,-7510,134928,152,19229,623,1,43683,0.0010000000000000009
123998,-3526,-7117,130161,-34654,-6961,130391,166,19217,680,1,43684,0.0010000000000000009
124999,2181,4506,128406,-24112,9024,125177,197,19212,807,0,43685,0.0010010000000000019
125998,-112,17228,129595,9248,17490,122758,164,19212,807,0,43686,0.0009989999999999999
126998,12876,10244,128687,-8124,4322,121368,162,19227,672,0,43687,0.0010000000000000009
127998,2814,-10467,126731,-4219,-13389,133085,162,19219,664,0,43688,0.0010000000000000009
128998,1599,-10818,129362,-5668,-9786,133493,216,19213,885,1,43689,0.0010000000000000009
129999,2367,-520,128904,-4423,404,127988,157,19224,643,1,43690,0.0010010000000000019
131008,221,5033,128913,-14222,7323,124618,171,19220,700,1,43691,0.0010089999999999821
131998,7712,12320,128004,-15081,9883,120395,233,19220,700,0,43692,0.0009900000000000186
132998,224,-310,123741,13704,-5831,132852,167,19228,954,0,43693,0.0010000000000000009
133998,4082,-115,125853,-15718,1557,122697,167,19226,684,0,43694,0.0010000000000000009
134998,9259,8062,125767,-5367,7444,119458,168,19215,688,1,43695,0.0010000000000000009
135998,4941,5126,125992,10173,9116,125781,176,19229,721,1,43696,0.0009999999999999731
136998,11319,-4438,126912,-12776,-9371,130442,177,19220,725,1,43697,0.0010000000000000009
137998,3243,-12501,123636,4373,-10294,131381,194,19220,725,1,43698,0.0010000000000000009
138998,6097,10008,127653,1866,11351,120290,184,19209,795,0,43699,0.0010000000000000009
139998,10490,9889,126543,-12052,9016,119371,184,19225,754,0,43700,0.0010000000000000009
140998,12976,5939,126967,7536,4572,127937,158,19228,647,0,43701,0.0010000000000000009
141998,15817,-8000,123738,11155,-9040,129517,191,19224,782,1,43702,0.0010000000000000009
142998,10322,3376,122766,1915,2628,117944,148,19221,606,1,43703,0.0010000000000000009
143999,12372,-1559,126714,4065,-3979,136089,172,19221,606,1,43704,0.0010010000000000019
145001,13810,-3248,125346,10007,-2007,119988,215,19222,704,0,43705,0.0010020000000000029
145998,12535,12884,129556,-4781,13035,125707,215,19226,881,0,43706,0.0009969999999999979
146998,12503,980,125316,10130,-1508,124089,160,19222,655,0,43707,0.0010000000000000009
147998,14009,-5164,126351,10478,-9875,131083,157,19219,643,1,43708,0.0010000000000000009
148998,14879,-11030,126241,2901,-7135,129958,206,19226,844,1,43709,0.0010000000000000009
149998,14213,1192,127739,8679,7790,121126,164,19226,844,1,43710,0.0010000000000000009
150998,14051,5148,127751,6181,-1075,131152,177,19223,672,1,43711,0.0010000000000000009
151998,11811,-2186,127492,-346,-701,125254,177,19216,725,0,43712,0.0010000000000000009
152998,12304,2558,127048,7600,-1472,129953,167,19226,684,0,43713,0.0010000000000000009
153999,13894,-1419,127497,4893,-2374,124955,157,19226,643,0,43714,0.0010010000000000019
154998,13551,955,128060,2724,59,123608,180,19209,737,1,43715,0.0009989999999999999
155998,7804,-3987,130588,925,-7381,135510,129,19209,528,1,43716,0.0010000000000000009
156998,8255,-5905,128508,-1381,-4188,128484,162,19224,528,1,43717,0.0010000000000000009
157998,4029,3950,132253,-4076,-6993,129480,202,19221,664,0,43718,0.0010000000000000009
158998,7712,-4651,126400,2268,8240,117885,202,19218,827,0,43719,0.0010000000000000009
159998,12040,19537,132228,4759,8520,130297,159,19224,651,0,43720,0.0010000000000000009
160999,9224,-15479,125458,-15258,-17607,132348,156,19220,639,0,43721,0.0010010000000000019
161998,10046,5635,131531,-7773,10619,117835,224,19220,917,1,43722,0.0009989999999999999
162999,7496,-5442,129293,24202,-13613,142769,158,19228,917,1,43723,0.0010010000000000019
163998,-7469,-5936,129187,-27397,-1584,123941,177,19220,647,1,43724,0.0009989999999999999
164998,506,-6916,127516,-25162,-7095,137405,177,19217,725,0,43725,0.0010000000000000009
165998,413,13559,130440,8895,29362,112257,197,19226,807,0,43726,0.0009999999999999731
166998,9255,26008,127732,491,8076,124214,164,19224,672,0,43727,0.0010000000000000009
167998,4933,-17113,126537,-16886,-16179,133397,177,19224,725,0,43728,0.0010000000000000009
168998,2512,-8575,126603,-4987,-9150,131453,194,19208,725,1,43729,0.0010000000000000009
170004,4532,-6451,129765,873,1964,131202,159,19226,795,1,43730,0.0010060000000000069
170998,2674,17176,130176,-12240,14799,117917,159,19220,651,1,43731,0.0009939999999999949
171998,1884,-7066,126342,-9348,-11531,137735,192,19215,786,0,43732,0.0010000000000000009
173001,-305,9829,123887,-12987,16117,113810,165,19225,676,0,43733,0.0010030000000000039
173998,10785,11304,127194,1941,526,128138,161,19216,659,0,43734,0.0009969999999999979
174998,9045,-3033,123472,11516,1321,122543,213,19216,659,1,43735,0.0010000000000000009
175998,4053,4493,128480,-15359,-741,127787,153,19223,872,1,43736,0.0010000000000000009
176998,7729,-9362,124701,-479,-4835,130173,153,19221,627,1,43737,0.0010000000000000009
177998,5068,10589,128836,8954,7397,123360,172,19216,704,1,43738,0.0010000000000000009
178999,7362,-9428,124458,-6863,-10035,132574,234,19219,958,0,43739,0.0010010000000000019
179998,6019,15148,126941,-11280,18808,109756,163,19229,668,0,43740,0.0009989999999999999
180998,16043,-1367,124602,10393,-4391,135111,164,19229,668,0,43741,0.0010000000000000009
181999,12872,-2950,123781,9183,-767,119914,147,19213,672,1,43742,0.0010010000000000019
182998,12908,-1584,123134,3009,-7936,130285,147,19228,602,1,43743,0.0009989999999999999
183998,8834,-4533,124625,3487,-449,125280,164,19220,672,1,43744,0.0010000000000000009
184998,12813,11804,127896,2188,8235,123392,184,19214,754,0,43745,0.0010000000000000009
185998,12958,-7820,125789,3165,-5048,134272,145,19225,594,0,43746,0.0010000000000000009
186999,12548,13594,125854,9433,13172,111189,157,19225,594,0,43747,0.0010010000000000019
187998,14124,-4745,125852,5617,-8044,134194,191,19220,643,1,43748,0.0009989999999999999
188998,15377,-7671,125931,2976,-6126,124720,191,19215,782,1,43749,0.0010000000000000009
189998,13944,-5096,128662,15069,-6765,132894,140,19219,573,1,43750,0.0010000000000000009
190998,12591,6829,128411,-1756,7601,118537,159,19219,651,1,43751,0.0010000000000000009
191998,11752,3753,129170,1104,-301,136250,206,19224,844,0,43752,0.0010000000000000009
192998,12811,-5142,127899,9069,-7392,124532,161,19224,844,0,43753,0.0010000000000000009
193999,15607,5824,128439,1730,5114,124124,159,19225,659,0,43754,0.0010010000000000019
194999,10807,85,128391,3546,-4402,128280,159,19220,651,1,43755,0.0009999999999999731
195998,7766,-3553,129793,960,-7767,131664,215,19227,881,1,43756,0.0009989999999999999
196998,6704,-10994,128732,1726,-11517,137616,156,19229,639,1,43757,0.0010000000000000009
198000,4340,-4025,128998,-9286,7756,117655,174,19216,713,0,43758,0.0010020000000000029
198998,12089,14692,130642,14,9420,128615,194,19216,795,0,43759,0.0009979999999999989
199998,10650,388,126796,5159,-4988,129474,154,19224,795,0,43760,0.0010000000000000009
200998,6159,1252,129528,-38006,1489,122451,181,19224,631,0,43761,0.0010000000000000009
201998,13803,-4229,130011,19525,-8550,133342,181,19217,741,1,43762,0.0010000000000000009
202998,-871,-1093,127689,15069,-16752,133799,137,19224,561,1,43763,0.0010000000000000009
203998,-1278,-7752,130082,-44849,-4991,132587,171,19220,700,1,43764,0.0010000000000000009
205000,381,5638,129178,-2144,12873,121351,208,19220,852,0,43765,0.0010020000000000029
205999,4217,19906,131436,2066,18611,122308,165,19216,852,0,43766,0.0009989999999999999
206999,10203,7996,128443,-10757,-2184,123764,164,19225,676,0,43767,0.0010000000000000009
207998,2704,-12546,126271,1,-14360,133376,164,19219,672,1,43768,0.0009989999999999999
208998,4018,-9813,128773,-6803,-6771,134449,233,19219,954,1,43769,0.0010000000000000009
209998,124,-565,129268,-8965,2431,124270,158,19227,647,1,43770,0.0010000000000000009
210998,3276,9584,129570,-19286,11087,123408,169,19227,692,1,43771,0.0010000000000000009
211998,6412,8446,127943,-1822,2897,125790,193,19216,692,0,43772,0.0010000000000000009
212998,2599,-3490,122105,2826,-3979,129443,165,19224,790,0,43773,0.0010000000000000009
213998,4769,2850,125107,-16208,9476,120445,165,19224,676,0,43774,0.0010000000000000009
215001,8631,11784,124423,1030,11846,117755,175,19206,717,1,43775,0.0010030000000000039
215998,9274,3967,127046,13548,1584,130616,133,19224,545,1,43776,0.0009969999999999979
216998,7484,-8174,126312,-15266,-13747,131555,166,19221,680,1,43777,0.0010000000000000009
217998,6862,-8768,127395,-6318,-3333,126469,193,19221,680,0,43778,0.0010000000000000009
218998,6092,8754,127955,20298,8860,123988,154,19208,790,0,43779,0.0010000000000000009
219998,4815,8876,125479,-15665,7789,121326,154,19224,631,0,43780,0.0010000000000000009
220998,12772,4560,123229,-11696,2755,124600,154,19223,631,0,43781,0.0010000000000000009
221998,14679,1148,124852,27712,1192,125398,203,19227,831,1,43782,0.0010000000000000009
223000,19594,1962,122856,7593,-2106,123373,154,19224,631,1,43783,0.0010020000000000029
223998,8992,-8994,125578,-4539,-9740,129622,175,19224,631,1,43784,0.0009979999999999989
224998,11771,-3189,126946,4591,-3520,130764,201,19215,717,0,43785,0.0010000000000000009
225998,15568,823,128629,5052,9940,123791,201,19225,823,0,43786,0.0009999999999999731
227003,11680,14469,127730,9400,9322,120048,160,19220,655,0,43787,0.0010050000000000059
227998,12975,-10448,121669,4377,-14710,130807,161,19215,659,1,43788,0.0009949999999999959
229000,14115,-9749,123573,-543,-6239,127025,177,19225,725,1,43789,0.0010020000000000029
229998,17990,4076,129352,15967,4057,126364,156,19225,725,1,43790,0.0009979999999999989
230998,15553,4865,127863,6504,3129,126013,177,19221,639,1,43791,0.0010000000000000009
231999,7939,-760,128973,-4865,-3249,128000,177,19209,725,0,43792,0.0010010000000000019
232998,11178,-3770,126030,2051,-6467,132630,149,19221,610,0,43793,0.0009989999999999999
233998,14260,-2622,126473,12513,-1563,125654,155,19223,635,0,43794,0.0010000000000000009
234998,12059,7610,129386,1793,6922,121189,192,19213,786,1,43795,0.0010000000000000009
235998,7558,-1423,129206,-10504,-3674,128921,141,19213,786,1,43796,0.0010000000000000009
237000,10320,-7683,130344,12793,-9745,132024,166,19225,577,1,43797,0.0010020000000000029
237998,3602,-4938,131805,-574,-7643,130458,166,19224,680,0,43798,0.0009979999999999989
238998,6326,-2413,127573,-8845,1486,112424,216,19217,885,0,43799,0.0010000000000000009
239998,11454,22823,132219,6740,19108,140113,164,19220,672,0,43800,0.0010000000000000009
240998,9693,-18099,123531,-4846,-19464,120097,155,19217,635,0,43801,0.0010000000000000009
241998,8952,10598,131180,-20625,-608,129006,200,19217,635,1,43802,0.0010000000000000009
242998,6250,-13361,128666,23687,-14773,136807,161,19226,819,1,43803,0.0010000000000000009
243998,-6599,-1559,129305,-9672,-2041,127184,161,19218,659,1,43804,0.0010000000000000009
244998,2261,-6714,129637,-31808,312,133561,185,19215,758,0,43805,0.0010000000000000009
245998,-800,21751,129815,1276,31509,107772,194,19224,795,0,43806,0.0010000000000000009
246998,10072,18870,128794,-4658,-8151,133596,164,19222,672,0,43807,0.0010000000000000009
247998,3652,-13993,127069,-12006,-15799,125551,183,19222,750,1,43808,0.0010000000000000009
248998,3416,-7605,128478,-359,-10640,136849,169,19210,750,1,43809,0.0010000000000000009
249998,1826,-3667,131185,-9030,7430,122127,164,19227,692,1,43810,0.0010000000000000009
250998,2425,17434,131810,-9978,2805,129116,164,19219,672,1,43811,0.0010000000000000009
251998,2,-10956,125496,-7707,-5369,131363,205,19216,840,0,43812,0.0010000000000000009
252998,1777,16233,125202,-12566,20345,112190,167,19224,684,0,43813,0.0010000000000000009
253998,12710,5286,124924,3816,-5263,131714,163,19224,668,0,43814,0.0010000000000000009
254998,8137,2527,124312,6576,8630,116356,227,19216,668,1,43815,0.0010000000000000009
255998,6397,-1056,127656,-11568,-10539,136228,160,19230,930,1,43816,0.0010000000000000009
256998,5456,-6566,125467,1076,4870,122004,160,19217,655,1,43817,0.0010000000000000009
257998,4774,6829,128546,3077,-2807,133135,177,19214,725,0,43818,0.0010000000000000009
258998,6562,-8328,124029,-9017,1724,123779,248,19225,1016,0,43819,0.0010000000000000009
259998,9248,19683,126665,-4499,17224,116987,160,19222,655,0,43820,0.0010000000000000009
260998,17288,665,123753,13877,-6021,131957,166,19222,655,1,43821,0.0010000000000000009
261998,12400,337,124139,2696,1192,118981,122,19211,680,1,43822,0.0010000000000000009
262998,14417,-7862,123432,5378,-10517,134739,122,19226,500,1,43823,0.0010000000000000009
264000,8470,2283,126774,2950,7791,118691,166,19218,680,1,43824,0.0010020000000000029
264998,12999,5876,127026,1502,-1574,131589,194,19213,795,0,43825,0.0009979999999999989
265998,11735,-3564,126683,5405,4138,124323,159,19223,651,0,43826,0.0010000000000000009
266998,15604,9918,125670,9956,5232,119845,155,19223,651,0,43827,0.0010000000000000009
267998,14983,-6360,125941,5242,-8219,130816,203,19223,635,1,43828,0.0010000000000000009
268998,14399,-3351,126261,4538,-5411,125894,203,19219,831,1,43829,0.0010000000000000009
269998,13818,-7701,127392,12338,-5931,132572,148,19228,606,1,43830,0.0009999999999999454
270998,10903,4603,126932,-3747,7784,120743,161,19220,659,1,43831,0.0010000000000000009
271999,11507,-3024,128461,5775,-6953,131796,220,19224,901,0,43832,0.0010010000000000296
272998,13376,1293,126388,4816,1850,126068,160,19224,901,0,43833,0.0009989999999999721
273998,14445,4259,128000,582,2601,125069,162,19224,655,0,43834,0.0010000000000000009
274998,11924,-1158,128033,5110,-3181,126682,162,19215,664,1,43835,0.0010000000000000009
276000,5815,-5927,129322,2206,-6340,132007,194,19225,795,1,43836,0.0010020000000000029
277000,7280,-12155,127563,-108,-13681,135467,167,19216,684,1,43837,0.0010000000000000009
277998,5523,6820,130804,-9809,10784,120912,183,19212,750,0,43838,0.0009979999999999989
278998,13936,7054,129042,10252,5166,128267,171,19212,750,0,43839,0.0010000000000000009
279998,4988,5574,128510,4020,4672,124930,153,19229,700,0,43840,0.0010000000000000009
280998,14164,-1188,130470,-31810,-4880,127160,153,19220,627,0,43841,0.0010000000000000009
281998,6333,-5901,130792,17024,-9216,129424,192,19215,786,1,43842,0.0010000000000000009
282998,1438,-8304,129990,6664,-13441,136574,145,19224,594,1,43843,0.0010000000000000009
283998,-421,-70,130587,-29009,1184,125471,168,19220,688,1,43844,0.0010000000000000009
284998,-1723,8112,127684,-6665,6005,127590,212,19220,688,0,43845,0.0010000000000000009
285999,10096,11526,129110,-4690,13533,115929,165,19223,868,0,43846,0.0010010000000000296
286998,5107,8886,128448,-2314,5659,132699,165,19224,676,0,43847,0.0009989999999999721
287998,6051,-14308,126662,-5248,-14879,129440,165,19216,676,1,43848,0.0010000000000000009
288999,1170,-3982,128942,-8122,-5410,135603,250,19230,1024,1,43849,0.0010010000000000296
289998,2070,-6365,127984,-2918,4565,124025,157,19221,643,1,43850,0.0009989999999999721
290998,1867,18906,129710,-15581,14557,119181,173,19221,709,1,43851,0.0010000000000000009
291998,1911,2210,126876,-13189,-8899,133743,190,19210,709,0,43852,0.0010000000000000009
293000,5854,2261,123598,1873,3698,119004,163,19224,778,0,43853,0.0010020000000000029
294000,5377,10527,126660,-8304,1247,127070,163,19226,668,0,43854,0.0010000000000000009
295000,10414,4211,125345,-4554,8666,116796,186,19214,762,1,43855,0.0010000000000000009
295998,10866,5861,129522,12917,-9078,136240,137,19225,561,1,43856,0.0009979999999999989
296998,9323,-16886,126120,-6740,-8320,130019,169,19225,692,1,43857,0.0010000000000000009
297999,4892,6706,128602,-19595,6444,118867,202,19220,692,0,43858,0.0010010000000000296
298998,6439,1985,127649,11171,-913,132031,162,19213,827,0,43859,0.0009989999999999721
299998,5656,8009,125025,11081,10343,118745,162,19224,664,0,43860,0.0010000000000000009
300998,9056,3663,123858,-17766,-1773,127156,156,19222,639,1,43861,0.0010000000000000009
302001,14809,3040,123639,8437,7658,116861,214,19231,876,1,43862,0.0010029999999999761
302998,20814,3339,124879,25301,-5053,131076,160,19231,655,1,43863,0.0009970000000000256
303998,16967,-11423,125691,-5849,-2683,126842,173,19216,655,1,43864,0.0010000000000000009
304999,6931,-147,127013,3643,939,125889,181,19218,709,0,43865,0.0010009999999999741
305998,8732,-4644,127412,7653,80,130464,181,19225,741,0,43866,0.0009990000000000276
306999,13465,11169,125875,-2772,10267,117768,159,19228,651,0,43867,0.0010009999999999741
307998,14662,-384,127514,11890,-5742,130717,170,19213,696,1,43868,0.0009990000000000276
308998,12641,-3706,123290,7759,-4043,122307,162,19226,664,1,43869,0.0010000000000000009
309998,16429,-2456,126859,5601,-4881,129206,159,19226,664,1,43870,0.0010000000000000009
310998,16135,-2543,128379,9687,974,128710,183,19217,651,1,43871,0.0010000000000000009
311999,11858,4801,129079,1148,2858,126590,183,19213,750,0,43872,0.0010009999999999741
312999,10564,807,129682,-3832,-880,129514,153,19230,627,0,43873,0.0010000000000000009
313998,10889,-4770,128142,11116,-8241,128987,155,19222,635,0,43874,0.0009990000000000276
314998,9252,-6553,127603,1171,-7143,128254,209,19215,856,1,43875,0.0010000000000000009
315998,8975,-4617,130955,-5167,2582,125913,159,19215,856,1,43876,0.0010000000000000009
316998,10048,2980,129756,4716,1512,129032,170,19219,651,1,43877,0.0010000000000000009
318000,8779,-1392,127737,-2469,-5787,131360,170,19213,696,0,43878,0.0010020000000000029
319000,5949,4292,129587,3717,8123,120224,229,19225,938,0,43879,0.0010000000000000009
319998,7362,1612,127431,-1331,-8916,139589,161,19224,659,0,43880,0.0009979999999999989
320998,8448,-12245,128204,-15242,-2875,120917,165,19216,676,1,43881,0.0010000000000000009
321998,8349,14828,134217,-1512,8403,124994,177,19216,676,1,43882,0.0010000000000000009
322998,6628,-12136,127797,14661,-13947,137037,163,19224,725,1,43883,0.0010000000000000009
323998,-8268,-344,130695,-28912,-3007,127015,163,19223,668,1,43884,0.0010000000000000009
324998,3665,-6519,128552,-13805,-2886,133976,185,19209,758,0,43885,0.0010000000000000009
325999,3277,32536,131661,4822,35768,107922,151,19224,618,0,43886,0.0010009999999999741
326998,10513,2074,130669,437,-9191,136426,160,19224,655,0,43887,0.0009990000000000276
327998,2833,-15652,125317,-14655,-15216,126013,198,19224,655,1,43888,0.0010000000000000009
328998,999,-6336,130610,-1989,-8186,135161,138,19209,811,1,43889,0.0010000000000000009
329998,1761,3686,129804,-8305,5781,123329,138,19226,565,1,43890,0.0009999999999999454
330998,1634,10819,129531,-10637,5852,126807,165,19219,676,1,43891,0.0010000000000000009
331998,-1552,-7033,125131,-11365,-6498,116758,213,19222,872,0,43892,0.0010000000000000009
332998,4446,21546,126551,-6591,19691,123061,166,19226,680,0,43893,0.0010000000000000009
333998,12108,-5971,124402,2389,-7850,128876,165,19226,680,0,43894,0.0010000000000000009
334998,8542,6977,125694,4479,7342,119276,187,19219,676,1,43895,0.0010000000000000009
335998,7193,-4812,126058,-11560,-5075,132257,187,19228,766,1,43896,0.0010000000000000009
336998,6707,5997,128585,1272,9658,120475,166,19221,680,1,43897,0.0010000000000000009
337998,2886,624,127100,3422,-22442,138630,186,19212,762,0,43898,0.0010000000000000009
338999,5112,-1545,125126,-12290,15806,112120,199,19223,815,0,43899,0.0010010000000000296
339998,9125,18736,127242,-4947,3358,128171,157,19223,643,0,43900,0.0009989999999999721
340998,17524,-4839,125111,10965,-2699,124819,177,19225,643,1,43901,0.0010000000000000009
342000,12118,3600,124340,3320,-2379,123726,140,19215,725,1,43902,0.0010020000000000029
343000,12901,-7859,124663,5414,-2534,127443,140,19222,573,1,43903,0.0010000000000000009
343998,11584,8240,125389,5458,8645,120341,173,19222,709,1,43904,0.0009979999999999989
344998,12009,-1897,128266,676,-7896,136974,203,19215,831,0,43905,0.0010000000000000009
345998,14540,-1180,127228,4578,7059,116282,163,19215,668,0,43906,0.0010000000000000009
347000,13696,7800,127593,8459,-190,128091,157,19221,668,0,43907,0.0010020000000000029
347998,17262,-8990,124591,2015,-6996,128453,220,19220,643,1,43908,0.0009979999999999989
348998,13273,-4093,125307,13136,-4984,128452,220,19233,901,1,43909,0.0010000000000000009
349998,13313,-1412,126447,2684,3825,128089,153,19222,627,1,43910,0.0010000000000000009
350998,12765,9172,127915,2581,3829,121099,170,19222,696,0,43911,0.0010000000000000009
352000,9983,-5525,127387,5627,-8733,136008,188,19224,770,0,43912,0.0010020000000000029
353000,15049,-1165,128123,2830,3527,122459,161,19224,770,0,43913,0.0010000000000000009
353998,12848,4513,128861,1804,521,125632,171,19225,659,0,43914,0.0009979999999999989
354998,12224,-2149,128989,3674,-3637,128371,171,19212,700,1,43915,0.0010000000000000009
355998,5506,-7260,128708,3269,-7961,132249,175,19226,717,1,43916,0.0010000000000000009
356998,9203,-10018,129413,-6183,-10250,134630,161,19226,659,1,43917,0.0010000000000000009
357998,5658,4533,130569,-1410,8402,118751,194,19213,795,0,43918,0.0010000000000000009
358998,14297,8072,129340,11786,872,132407,149,19213,795,0,43919,0.0010000000000000009
359998,4597,2322,127525,-1480,4912,123983,155,19223,610,0,43920,0.0010000000000000009
361000,10542,-2615,127223,-38496,-5389,127321,155,19218,635,1,43921,0.0010020000000000029
362000,10846,-4316,130535,29990,-3376,130218,204,19221,836,1,43922,0.0010000000000000009
362998,-3819,-8524,128769,4589,-16873,137022,151,19224,618,1,43923,0.0009979999999999989
363998,1684,-7522,128999,-46119,1412,126835,173,19215,709,1,43924,0.0010000000000000009
364998,-2964,16064,129961,5657,13154,124521,234,19215,709,0,43925,0.0010000000000000009
365998,12063,10684,129193,2108,13817,122602,170,19225,958,0,43926,0.0010000000000000009
366999,7305,10091,129213,-15002,2154,120947,170,19224,696,0,43927,0.0010009999999999741
367998,3226,-18859,126669,916,-20383,139650,170,19216,696,1,43928,0.0009990000000000276
368998,597,-2542,128182,-4784,-1240,128341,225,19230,922,1,43929,0.0010000000000000009
369998,533,1323,129552,-11538,1355,128369,159,19223,651,1,43930,0.0010000000000000009
370998,2582,14773,129956,-17051,14227,118869,184,19223,651,0,43931,0.0010000000000000009
371998,3602,3292,128122,-2689,-6452,130337,171,19212,754,0,43932,0.0010000000000000009
373000,3503,-7545,123569,76,-5543,129823,171,19224,700,0,43933,0.0010020000000000029
373998,4725,15617,127456,-8575,15041,115867,166,19222,680,0,43934,0.0009979999999999989
374999,10091,3240,125116,-3577,2218,124953,195,19216,799,1,43935,0.0010009999999999741
375998,10849,7531,127687,11448,6799,124635,155,19218,635,1,43936,0.0009990000000000276
376998,9026,-17374,124674,-3686,-19821,139142,174,19218,635,1,43937,0.0010000000000000009
377998,4832,3707,127560,-17355,7696,114839,218,19222,713,0,43938,0.0010000000000000009
378998,7707,7130,128340,5643,3011,137091,218,19215,893,0,43939,0.0010000000000000009
379999,5092,284,123746,13609,810,116399,167,19224,684,0,43940,0.0010009999999999741
380998,8929,9988,124544,-18767,7989,125958,157,19218,643,1,43941,0.0009990000000000276
381998,15116,-1212,123262,4518,-328,118189,181,19228,741,1,43942,0.0010000000000000009
382998,21761,11064,126315,25902,10589,128147,161,19228,659,1,43943,0.0010000000000000009
383998,14340,-13412,125231,1702,-9843,130412,176,19221,659,1,43944,0.0010000000000000009
384998,10355,1815,127486,-4362,4948,123352,174,19215,721,0,43945,0.0010000000000000009
385998,10399,986,128189,9811,1073,129819,174,19226,713,0,43946,0.0010000000000000009
386998,14399,7912,128786,1854,9013,119145,159,19224,651,0,43947,0.0010000000000000009
387998,15222,-2967,125569,12498,-13010,132969,177,19212,725,1,43948,0.0010000000000000009
388998,10828,-7602,124409,4810,840,121183,125,19212,512,1,43949,0.0009999999999999454
389998,19029,2859,127111,11112,-2192,128458,156,19222,512,1,43950,0.0010000000000000009
390998,13501,-2476,128565,8773,1330,128996,190,19214,639,0,43951,0.0010000000000000009
391998,11994,5590,128856,-6999,1839,125468,190,19214,778,0,43952,0.0010000000000000009
392998,9289,-2934,128960,5848,-4502,131621,157,19225,643,0,43953,0.0010000000000000009
394002,12442,-4522,127596,12522,-3835,126007,157,19221,643,0,43954,0.0010040000000000049
394998,8420,-6655,126791,-3711,-2008,127935,219,19221,897,1,43955,0.0009959999999999969
395998,8682,-1029,129499,-5012,2381,124953,153,19221,897,1,43956,0.0010000000000000009
396998,12783,2555,130007,7554,898,130492,167,19220,627,1,43957,0.0010000000000000009
397998,6921,-5749,128009,-4330,-9408,130910,167,19216,684,0,43958,0.0010000000000000009
398998,5855,9546,131407,3133,11496,121537,219,19225,897,0,43959,0.0010000000000000009
399998,6050,-2615,126476,-861,-16904,141036,159,19223,651,0,43960,0.0010000000000000009
400998,10794,-4803,130714,-20143,10459,115866,169,19216,692,1,43961,0.0010000000000000009
401998,9215,9655,133115,9565,-4699,132973,161,19216,692,1,43962,0.0010000000000000009
402998,2774,-11800,128553,6604,-10986,132992,163,19226,659,1,43963,0.0010000000000000009
403998,-4967,-3728,130011,-36654,-9619,133071,163,19216,668,1,43964,0.0010000000000000009
405001,2502,-2988,129455,-1388,7442,126122,192,19213,786,0,43965,0.0010030000000000316
405999,5865,28880,131659,5216,27629,113997,160,19224,655,0,43966,0.0009979999999999989
406998,7375,-816,130183,-12339,-15552,136053,160,19222,655,0,43967,0.0009989999999999721
407998,3313,-15816,123720,-11063,-12582,127186,212,19222,655,1,43968,0.0010000000000000009
408998,1189,-5347,128366,2075,-4730,134673,157,19212,868,1,43969,0.0010000000000000009
409998,1864,7697,129479,-10719,11725,118412,157,19224,643,1,43970,0.0010000000000000009
410998,1410,7013,128670,-10817,-955,133344,170,19217,696,0,43971,0.0010000000000000009
411998,-2730,-4525,126098,-11426,1064,125934,227,19225,930,0,43972,0.0010000000000000009
412998,6888,17474,125956,-5438,13078,116588,166,19224,680,0,43973,0.0010000000000000009
413998,10739,-5721,124157,4830,-7570,132785,170,19224,680,0,43974,0.0010000000000000009
414998,7473,7329,126252,-795,7964,116214,180,19214,696,1,43975,0.0010000000000000009
415998,7872,-3067,126132,-10622,-3384,132060,180,19227,737,1,43976,0.0010000000000000009
416998,6318,9393,128527,2907,7697,120518,174,19224,713,1,43977,0.0010000000000000009
417998,6083,-4586,127063,4244,-11136,135477,190,19207,778,0,43978,0.0010000000000000009
419000,5537,-2289,125401,-13637,3109,121299,190,19225,778,0,43979,0.0010020000000000029
419998,10960,17340,128055,2392,12946,118435,157,19225,778,0,43980,0.0009979999999999989
421000,17202,-3677,123487,13673,-4936,131633,186,19223,643,1,43981,0.0010020000000000029
422000,11666,1067,123984,1676,-93,119659,186,19221,762,1,43982,0.0010000000000000009
422998,11262,-6174,124912,4010,-6048,130818,148,19222,606,1,43983,0.0009979999999999989
423998,11568,7938,126573,2060,8398,119634,170,19220,696,1,43984,0.0010000000000000009
424998,14007,-1442,127794,6306,-3313,132921,207,19219,848,0,43985,0.0010000000000000009
425999,14066,-371,126325,2918,2624,123829,159,19219,651,0,43986,0.0010009999999999741
426998,15054,5128,126561,8866,3559,131144,155,19224,651,0,43987,0.0009990000000000276
428022,16350,-7062,124094,4226,-5474,126309,220,19219,635,1,43988,0.0010239999999999694
428998,13509,-267,124950,7587,-1626,130271,220,19228,901,1,43989,0.0009760000000000324
429998,11817,-3130,127849,8305,-2714,124755,156,19223,639,1,43990,0.0010000000000000009
430998,13343,8762,130345,-2374,-836,125827,169,19212,692,0,43991,0.0010000000000000009
431998,9456,-7470,127594,8969,-7625,134250,175,19212,717,0,43992,0.0010000000000000009
432998,14276,1237,129183,2078,5531,119665,155,19224,717,0,43993,0.0010000000000000009
433998,13212,4314,127215,623,-1799,127989,177,19224,635,0,43994,0.0010000000000000009
434998,11871,-2987,129453,5677,-4068,128762,177,19217,725,1,43995,0.0010000000000000009
435998,8785,-6824,130702,-407,-10356,133822,123,19225,504,1,43996,0.0010000000000000009
436998,7640,-10417,129460,-7655,-5721,129763,163,19220,668,1,43997,0.0010000000000000009
438000,8208,4547,130309,544,11861,120637,200,19220,819,0,43998,0.0010020000000000029
438998,12818,6628,128984,15757,-755,134160,161,19216,819,0,43999,0.0009979999999999989
439998,2904,-903,126149,-22485,7058,120993,156,19225,659,0,44000,0.0010000000000000009
440998,13258,1042,129507,-18920,-4262,127287,156,19218,639,1,44001,0.0010000000000000009
441998,6412,-4011,128606,35816,-6760,133056,216,19229,885,1,44002,0.0010000000000000009
442998,-810,-10247,130742,-17562,-15049,134909,158,19222,647,1,44003,0.0010000000000000009
443998,-186,-5819,129504,-30593,3183,125795,178,19214,729,1,44004,0.0010000000000000009
444999,-3372,15481,131381,3892,15264,124808,205,19214,729,0,44005,0.0010009999999999741
445998,12626,13300,129702,-4789,12051,118648,165,19226,840,0,44006,0.0009990000000000276
446998,5135,1935,128005,-7983,-8733,131021,165,19225,676,0,44007,0.0010000000000000009
447998,3707,-15475,127198,-2976,-15131,134321,176,19210,721,1,44008,0.0010000000000000009
448998,-306,-214,129281,-5425,400,127010,195,19224,799,1,44009,0.0009999999999999454
450000,1847,2549,128809,-10440,1252,127900,162,19222,664,1,44010,0.0010020000000000029
451000,5680,6856,129244,-14696,11240,121080,191,19222,664,0,44011,0.0010000000000000009
452000,1866,353,126029,4111,-7779,134466,155,19211,782,0,44012,0.0010000000000000009
452998,2793,-2731,123084,-10804,5240,119989,155,19223,635,0,44013,0.0009979999999999989
453998,6640,13571,125320,-7283,10693,120773,162,19222,664,0,44014,0.0010000000000000009
455000,11281,5362,125147,9219,5866,123425,205,19227,840,1,44015,0.0010020000000000029
455998,8191,1847,127863,-7949,-5309,129786,161,19219,659,1,44016,0.0009979999999999989
456998,8598,-16876,125784,-7541,-14949,135137,178,19219,659,1,44017,0.0010000000000000009
457998,5153,4779,126345,14849,8335,118837,233,19216,729,0,44018,0.0010000000000000009
458998,2129,8894,125761,-17221,5977,126039,233,19220,954,0,44019,0.0010000000000000009
459998,11669,10171,124877,-5733,10565,118304,164,19225,672,0,44020,0.0010000000000000009
460999,14697,2553,125826,22236,-3799,132044,163,19212,668,1,44021,0.0010010000000000296
461998,12774,-4893,123319,2332,-5887,119885,158,19227,647,1,44022,0.0009989999999999721
462998,10828,-1507,126747,2274,-5270,125247,167,19227,647,1,44023,0.0010000000000000009
463998,11829,-8004,126593,6735,-4973,136175,185,19219,684,1,44024,0.0010000000000000009
464998,14196,9383,128021,3507,11927,118056,185,19210,758,0,44025,0.0010000000000000009
465998,12129,7679,126964,2625,5056,126354,150,19224,614,0,44026,0.0010000000000000009
467000,16160,-3354,124054,7048,-4583,124286,156,19222,639,0,44027,0.0010020000000000029
467998,15022,-9540,125130,8372,-9909,129536,188,19216,770,1,44028,0.0009979999999999989
468998,14556,-624,127802,6475,323,128345,138,19216,770,1,44029,0.0010000000000000009
469998,13410,2609,127516,11549,2007,123015,161,19232,565,1,44030,0.0010000000000000009
470998,9394,287,128800,-1900,-1858,130650,161,19223,659,0,44031,0.0010000000000000009
472001,12074,-3205,127445,1592,-3644,127973,202,19222,827,0,44032,0.0010030000000000316
472998,11719,1428,129254,7188,3461,128373,161,19222,659,0,44033,0.0009969999999999701
473998,15187,2314,127850,2108,1148,121595,156,19217,639,0,44034,0.0010000000000000009
474998,10773,671,129310,2672,636,129265,224,19217,917,1,44035,0.0010000000000000009
476000,10452,-7079,129960,1860,-8143,136339,159,19234,917,1,44036,0.0010020000000000029
476998,6228,-7402,130304,1205,-7079,127786,174,19223,651,1,44037,0.0009979999999999989
477998,6099,510,129975,-9627,-3370,127826,174,19214,713,0,44038,0.0010000000000000009
478998,8353,8998,131090,4434,18405,119613,189,19223,774,0,44039,0.0010000000000000009
479998,8273,8187,128494,7157,-19183,140392,161,19225,659,0,44040,0.0010000000000000009
480998,9584,-16498,127769,-19114,6125,116580,176,19225,721,1,44041,0.0010000000000000009
481998,7688,12811,132522,-4573,-4278,132979,127,19209,721,1,44042,0.0010000000000000009
482998,5668,-13994,129951,3778,-9315,134238,166,19221,520,1,44043,0.0010000000000000009
484004,-7061,-657,131182,-35713,-7137,133146,166,19219,680,1,44044,0.0010060000000000069
484998,438,-9164,128275,-1961,9716,126569,204,19214,836,0,44045,0.0009939999999999949
485998,5916,31232,130940,4033,29924,109495,167,19223,684,0,44046,0.0010000000000000009
486998,10896,4019,129036,-8200,-17225,138501,163,19223,668,0,44047,0.0010000000000000009
487998,2940,-17277,124044,-13067,-8920,125678,224,19215,668,1,44048,0.0010000000000000009
488998,-20,-3185,129822,337,-7257,135887,165,19212,917,1,44049,0.0010000000000000009
489998,1342,2177,128551,-7588,13031,118860,165,19227,676,1,44050,0.0010000000000000009
490998,1173,11875,130985,-6139,-3704,134518,175,19220,717,0,44051,0.0010000000000000009
491998,-1147,-10694,124008,-17225,-1133,124800,223,19223,913,0,44052,0.0010000000000000009
492998,5869,22067,127447,-5496,19347,113705,168,19223,688,0,44053,0.0010000000000000009
493998,12904,-3478,124815,10840,-9713,134327,177,19223,688,0,44054,0.0010000000000000009
494998,6869,6122,125982,-3385,7828,115651,145,19214,725,1,44055,0.0010000000000000009
495998,6301,-8816,126726,-12993,-14546,138416,145,19218,594,1,44056,0.0010000000000000009
496998,6441,1898,128324,2005,10222,118471,165,19220,676,1,44057,0.0010000000000000009
497998,7124,4920,126922,7131,-8488,134958,189,19213,774,0,44058,0.0010000000000000009
498998,4750,-5744,123551,-10926,7207,118729,161,19229,659,0,44059,0.0010000000000000009
499998,10912,21188,125940,-137,12474,118566,157,19229,659,0,44060,0.0010000000000000009
500998,15367,-8735,123297,14428,-7977,133914,199,19222,643,1,44061,0.0009999999999999454
501998,12665,4111,124711,3571,3700,116995,199,19226,815,1,44062,0.0010000000000000009
502998,10136,-9249,125441,5802,-10747,134048,158,19219,647,1,44063,0.0010000000000000009
503998,9570,6586,125937,107,11097,117842,168,19218,688,1,44064,0.0010000000000000009
504998,14371,879,127686,4320,-4016,133667,222,19227,909,0,44065,0.0010000000000000009
505998,15953,316,125664,6838,7281,119550,161,19227,909,0,44066,0.0010000000000000009
506998,15882,12183,126616,7875,2700,120455,163,19222,659,0,44067,0.0010000000000000009
507998,15265,-9392,126167,205,-11767,132855,163,19215,668,1,44068,0.0010000000000000009
509001,14232,-4964,127984,10639,-4714,127698,185,19229,758,1,44069,0.0010029999999999761
509998,11313,-4153,129487,13055,-2505,131532,155,19222,635,1,44070,0.0009970000000000256
510998,12873,10450,128280,-4971,9013,118775,170,19211,696,0,44071,0.0010000000000000009
511999,10286,-5322,127566,4248,-9084,134592,154,19211,696,0,44072,0.0010010000000000296
512998,15349,-2984,128295,5528,233,126444,157,19225,631,0,44073,0.0009989999999999721
513998,13582,6098,128272,3870,3948,122328,157,19214,643,0,44074,0.0010000000000000009
514998,8725,-2969,128994,-632,-4051,128904,187,19210,766,1,44075,0.0010000000000000009
515998,10500,-9064,129593,5332,-9601,132981,141,19226,577,1,44076,0.0010000000000000009
516999,5902,-12786,127944,-2036,-13306,137242,161,19214,659,1,44077,0.0010010000000000296
517998,10074,10372,130052,-12278,15695,116131,208,19214,852,0,44078,0.0009989999999999721
519000,12826,12443,128072,16901,9421,129298,158,19221,852,0,44079,0.0010020000000000584
519999,2467,-3504,127277,5017,-3060,129771,155,19226,647,0,44080,0.0009989999999999721
520998,13123,-2461,130259,-41694,-3497,127948,155,19221,635,1,44081,0.0009989999999999721
521998,3976,-2942,131859,24171,-4110,133937,214,19231,876,1,44082,0.0010000000000000009
522998,-101,-8005,130715,10801,-9863,132039,161,19224,659,1,44083,0.0010000000000000009
523998,-1250,-4646,129798,-41937,-4054,125984,178,19224,729,1,44084,0.0010000000000000009
524999,-1812,12072,130489,-1638,14274,124924,180,19213,729,0,44085,0.0010010000000000296
525998,13630,14816,130301,2346,11175,117838,165,19219,737,0,44086,0.0009989999999999721
526998,6308,2739,128366,-9006,-12221,133334,165,19223,676,0,44087,0.0010000000000000009
528000,2387,-16431,127871,-4371,-8704,131924,187,19207,766,1,44088,0.0010020000000000584
528998,624,-2656,129218,-7383,49,130155,170,19223,696,1,44089,0.0009979999999999434
529998,-1214,-3709,127798,-15961,8159,122541,169,19223,692,1,44090,0.0010000000000000009
530998,5114,14859,129191,-14572,11510,120441,202,19224,692,0,44091,0.0010000000000000009
531998,3431,-179,123667,12543,-8286,133676,166,19211,827,0,44092,0.0010000000000000009
532998,2785,-762,125499,-13302,6018,120107,166,19228,680,0,44093,0.0010000000000000009
534001,6739,7133,125524,-7516,4189,122644,165,19218,676,1,44094,0.0010029999999999761
534998,7152,7992,127356,9995,10069,122516,223,19228,913,1,44095,0.0009970000000000256
535998,10127,1105,127418,-10436,-11862,134064,159,19223,651,1,44096,0.0010000000000000009
536998,8314,-16211,123789,2232,-8578,129817,174,19223,651,1,44097,0.0010000000000000009
537998,1902,6444,126207,4123,10069,120481,233,19219,713,0,44098,0.0010000000000000009
538998,6507,10067,126564,-14244,7563,120943,233,19222,954,0,44099,0.0010000000000000009
539998,12347,12819,126650,8555,5246,124126,157,19228,643,0,44100,0.0010000000000000009
540998,16564,-8643,126146,13745,-10403,133412,163,19212,668,1,44101,0.0010000000000000009
541998,8921,-1998,123007,-1939,1607,116419,144,19226,590,1,44102,0.0010000000000000009
542998,11041,-1048,127266,4460,-4536,131227,173,19226,590,1,44103,0.0010000000000000009
543998,13279,-6474,123192,10223,-715,128249,197,19220,709,0,44104,0.0010000000000000009
544998,11300,10374,127914,-2571,13076,120622,197,19211,807,0,44105,0.0010000000000000009
545999,15724,5600,125836,2935,3151,124278,160,19221,655,0,44106,0.0010010000000000296
546998,15177,-1457,124633,11712,-3934,124556,155,19222,635,0,44107,0.0009989999999999721
547998,16063,-10632,125619,4837,-12803,134231,200,19218,819,1,44108,0.0010000000000000009
548998,13013,-3552,126883,9375,1210,122838,145,19218,819,1,44109,0.0010000000000000009
549998,13578,6607,128476,8919,4573,125965,160,19227,594,1,44110,0.0010000000000000009
550998,11181,349,128542,-1178,-2648,129457,160,19217,655,0,44111,0.0010000000000000009
552000,8872,854,127158,4305,-4677,126689,209,19225,856,0,44112,0.0010019999999999474
552998,12021,722,131401,7031,-1637,128904,160,19224,655,0,44113,0.0009980000000000544
553998,13619,356,127661,7604,1111,121192,162,19213,664,0,44114,0.0010000000000000009
554998,10269,853,131935,-2391,-1564,129053,196,19213,664,1,44115,0.0010000000000000009
555998,11867,-10966,128690,149,-12729,134897,157,19229,803,1,44116,0.0010000000000000009
556998,6830,-4037,129441,110,-411,127995,157,19222,643,1,44117,0.0010000000000000009
557998,7242,583,129631,-6872,-4441,131600,181,19215,741,0,44118,0.0010000000000000009
558998,5934,6855,130098,5384,12644,116362,178,19227,729,0,44119,0.0010000000000000009
559998,10265,6704,128959,3154,-2943,138619,154,19224,631,0,44120,0.0010000000000000009
560998,8449,-12787,127371,-21706,-6777,122694,189,19224,631,1,44121,0.0010000000000000009
561998,9646,11659,132702,672,7510,123179,142,19215,774,1,44122,0.0010000000000000009
562998,2516,-14521,131167,23569,-14287,142407,142,19224,582,1,44123,0.0010000000000000009
563998,-7075,358,131047,-40120,-1002,125461,169,19219,692,0,44124,0.0010000000000000009
564998,1555,-5024,130633,-12658,-1439,133431,221,19222,905,0,44125,0.0010000000000000009
565998,5965,31265,130888,9890,31766,108864,167,19225,684,0,44126,0.0010000000000000009
566998,11307,1969,128950,-6322,-4293,132878,162,19225,664,0,44127,0.0010000000000000009
567998,456,-14703,125919,-16389,-14202,125818,243,19219,664,1,44128,0.0010000000000000009
568998,2107,-6329,129076,-1677,-8101,136304,165,19222,995,1,44129,0.0010000000000000009
569998,2120,2568,129508,-2874,3841,117708,165,19218,676,1,44130,0.0010000000000000009
570998,1232,10833,130132,-9827,7566,136649,182,19215,745,0,44131,0.0010000000000000009
572000,-1153,-7938,124925,-11292,8999,118048,196,19224,803,0,44132,0.0010019999999999474
572998,4661,18824,127713,-12911,11310,121269,167,19224,684,0,44133,0.0009980000000000544
573998,13609,-2829,124665,5760,-5687,129704,184,19224,684,1,44134,0.0010000000000000009
574998,4834,2897,124609,8638,5184,121693,133,19213,754,1,44135,0.0010000000000000009
575998,9573,-5086,126358,-16745,-9301,133941,133,19225,545,1,44136,0.0010000000000000009
576998,6450,2210,126904,8861,8681,121500,165,19220,676,1,44137,0.0010000000000000009
577998,7759,1240,125928,-656,-9067,134992,204,19209,836,0,44138,0.0010000000000000009
578998,3995,-484,125470,-11431,13475,112193,163,19231,668,0,44139,0.0010000000000000009
579998,12868,16854,126804,4116,4956,126713,153,19231,668,0,44140,0.0010000000000000009
580998,15637,-5390,123174,14434,-3812,126698,207,19219,627,1,44141,0.0010000000000000009
581998,10443,1143,124602,2725,-3608,124096,207,19224,848,1,44142,0.0010000000000000009
582998,11495,-9658,125809,3963,-6014,130067,165,19220,676,1,44143,0.0010000000000000009
583998,8141,8088,126492,2216,9522,119742,177,19217,725,0,44144,0.0010000000000000009
584998,15333,2509,127854,1616,-2433,133805,192,19226,786,0,44145,0.0010000000000000009
585998,15044,-2157,123730,9159,7280,117611,161,19226,786,0,44146,0.0010000000000000009
587000,14902,6208,127200,6062,-1771,125961,170,19222,659,0,44147,0.0010019999999999474
587998,15233,-7829,124841,3313,-10662,129561,170,19213,696,1,44148,0.0009980000000000544
588998,13613,-5329,128752,13819,-4108,130827,153,19227,627,1,44149,0.0010000000000000009
589998,13073,-2822,128503,3833,1560,127102,153,19224,627,1,44150,0.0010000000000000009
590998,11175,8657,127678,-3065,6209,121734,179,19218,733,0,44151,0.0010000000000000009
591998,10518,-2054,127361,8428,-7161,134177,153,19218,733,0,44152,0.0010000000000000009
592998,14221,-2692,128406,5777,1275,123732,154,19225,627,0,44153,0.0010000000000000009
593998,13523,5070,128145,1843,2306,123939,154,19219,631,1,44154,0.0010000000000000009
594998,8420,-2203,129931,443,-5665,129232,203,19217,831,1,44155,0.0010000000000000009
595998,9798,-7575,130093,3605,-11789,134374,160,19224,655,1,44156,0.0010000000000000009
596998,5920,-10149,128983,-7842,-9985,131344,170,19217,696,1,44157,0.0009999999999998899
597998,8305,10876,130800,-9630,12700,117761,225,19217,696,0,44158,0.0010000000000000009
598998,13668,8888,129644,21490,2585,130636,163,19224,922,0,44159,0.0010000000000000009
599998,2337,-1073,127833,-9593,-1146,126958,163,19225,668,0,44160,0.0010000000000000009
600998,14744,-4431,129470,-34648,-6511,126808,165,19209,676,1,44161,0.0010000000000000009
601998,4136,-3577,131597,38250,-6460,133323,174,19227,713,1,44162,0.0010000000000000009
602998,-1632,-9792,131187,-7424,-11396,133602,159,19221,651,1,44163,0.0010000000000000009
603998,593,848,130090,-38928,4603,124993,184,19221,651,0,44164,0.0010000000000000009
604998,-2888,11528,130338,7004,11695,126925,155,19214,754,0,44165,0.0010000000000000009
605998,15442,12947,128487,-3555,12080,118134,155,19226,635,0,44166,0.0010000000000000009
606998,4770,50,126883,-10301,-5373,127893,161,19219,659,0,44167,0.0010000000000000009
607998,3246,-14566,128060,-2649,-11994,135509,196,19206,803,1,44168,0.0010000000000000009
608999,694,1340,129070,-1838,1372,130442,130,19227,532,1,44169,0.0010010000000000296
609999,407,-1152,128395,-5623,121,129202,158,19227,647,1,44170,0.0010000000000000009
610998,5287,15969,129376,-25931,16249,114095,213,19218,647,0,44171,0.0009989999999999721
611998,3543,-381,127139,8188,-5544,134614,169,19222,872,0,44172,0.0010000000000000009
612998,2403,-3679,125839,602,-1455,124064,169,19223,692,0,44173,0.0010000000000000009
613998,6335,9704,126575,-19009,7672,120826,168,19217,688,1,44174,0.0010000000000000009
614998,6487,6474,127130,9275,7985,122996,190,19227,778,1,44175,0.0010000000000000009
615999,9814,4501,127837,-2625,-1031,136455,157,19227,643,1,44176,0.0010010000000000296
617000,10915,-19912,124025,-11432,-5866,127474,177,19224,643,1,44177,0.0010010000000000296
617998,3270,6599,126910,17099,6629,121036,194,19221,725,0,44178,0.0009979999999999434
618998,5599,7318,126214,-12780,8793,119422,194,19227,795,0,44179,0.0010000000000000009
619998,11990,7052,127069,-10730,10963,124617,159,19227,651,0,44180,0.0010000000000000009
620998,14705,-2452,123605,20024,-10890,132526,177,19208,725,1,44181,0.0010000000000000009
621998,9839,-3965,120037,3743,5125,112412,133,19208,545,1,44182,0.0010000000000000009
622998,10749,2192,127621,60,-9716,137057,164,19225,545,1,44183,0.0010000000000000009
623998,14487,-10408,125131,10094,-343,125399,202,19224,672,0,44184,0.0010000000000000009
624998,11310,13256,128307,-1303,14091,122151,202,19219,827,0,44185,0.0010000000000000009
625999,13435,6225,127312,4702,97,124467,162,19221,664,0,44186,0.0010010000000000296
626998,14555,-1368,122761,13225,-6678,124448,159,19216,651,0,44187,0.0009989999999999721
627998,12308,-11240,126937,147,-10347,136482,222,19222,909,1,44188,0.0010000000000000009
628998,15296,-3589,128281,8153,1723,119650,158,19222,909,1,44189,0.0010000000000000009
629998,13215,8086,129766,9865,1974,128411,167,19221,647,1,44190,0.0010000000000000009
630998,12029,-2923,130352,-3731,-2014,129641,167,19215,684,0,44191,0.0010000000000000009
631999,10656,-796,127333,3649,-5305,128296,179,19224,733,0,44192,0.0010010000000000296
632998,12923,-3158,129748,10310,-836,130530,163,19226,668,0,44193,0.0009989999999999721
633998,13311,2825,125791,3546,3759,117393,174,19210,713,1,44194,0.0010000000000000009
634998,8662,2089,129932,-6520,-2912,132310,161,19210,713,1,44195,0.0010000000000000009
636001,11578,-10509,128470,6133,-10509,133722,158,19228,659,1,44196,0.0010029999999999761
636998,5708,-3732,129793,-5044,-838,128879,158,19222,647,1,44197,0.0009970000000000256
637999,7084,-3305,126211,-4810,-587,124578,188,19217,770,0,44198,0.0010010000000000296
639000,8000,17942,132105,9638,18362,121137,157,19226,643,0,44199,0.0010010000000000296
639998,10861,-7352,126323,-7126,-19921,140730,159,19220,651,0,44200,0.0009979999999999434
640998,9288,-1038,130404,-19219,10094,114304,206,19220,651,1,44201,0.0010000000000000009
641998,5312,6600,131545,17809,-15255,138323,152,19219,844,1,44202,0.0010000000000000009
642998,-357,-11463,132022,798,-9155,130799,152,19219,623,1,44203,0.0010000000000000009
643999,-4929,-2916,131257,-34938,-10045,135760,169,19213,692,0,44204,0.0010010000000000296
644999,1433,2776,130827,-3317,17500,119125,218,19225,893,0,44205,0.0010000000000000009
645998,8144,32666,128605,3373,22303,115673,167,19226,684,0,44206,0.0009989999999999721
647001,10639,-13062,127015,-9020,-18559,137364,171,19226,684,0,44207,0.0010029999999999761
647998,2156,-10188,125096,-8765,-8362,126277,221,19217,700,1,44208,0.0009970000000000256
648998,2534,-6801,131092,-1000,-5494,135438,221,19229,905,1,44209,0.0010000000000000009
649998,3749,11583,129796,-8109,12684,117884,161,19222,659,1,44210,0.0010000000000000009
650998,1165,-714,127595,-6271,-8737,138053,184,19209,754,0,44211,0.0010000000000000009
651998,-2397,1400,124845,-15812,8085,118769,161,19220,659,0,44212,0.0010000000000000009
652998,5217,19389,128976,-6916,15671,118665,163,19220,659,0,44213,0.0010000000000000009
653998,11496,-982,123378,9519,-1970,130244,192,19221,668,1,44214,0.0010000000000000009
654998,3837,4633,127547,-4357,3947,119756,192,19220,786,1,44215,0.0010000000000000009
655998,8876,-8092,126073,-11070,-9384,133493,154,19225,631,1,44216,0.0010000000000000009
656998,5184,7467,129209,5054,8566,121178,177,19222,725,1,44217,0.0010000000000000009
657999,7734,-7004,126030,2398,-11750,135598,222,19212,909,0,44218,0.0010010000000000296
658998,5147,8405,126018,-9923,14000,113703,163,19212,668,0,44219,0.0009989999999999721
659998,13642,11612,127339,2481,6719,124802,155,19224,668,0,44220,0.0010000000000000009
660998,16029,-5983,123041,11802,-5551,127502,161,19215,635,1,44221,0.0010000000000000009
661998,11123,1538,124808,6123,-2237,132676,161,19227,659,1,44222,0.0010000000000000009
662998,12050,-8012,125849,5304,-6893,120942,167,19222,684,1,44223,0.0010000000000000009
663998,10954,9813,126925,3736,9166,128393,182,19214,745,0,44224,0.0010000000000000009
664998,14847,-7403,125943,1964,-6096,130035,169,19214,692,0,44225,0.0010000000000000009
665998,15144,7989,124718,8459,7919,114747,157,19228,692,0,44226,0.0010000000000000009
666998,13037,3868,125544,6583,-8455,132032,176,19223,643,0,44227,0.0010000000000000009
667998,16402,-10544,124909,-716,-8863,127314,176,19212,721,1,44228,0.0010000000000000009
668999,12787,-6232,129197,16535,-5517,132885,138,19223,565,1,44229,0.0010010000000000296
669998,13934,1308,130195,7596,7762,120645,170,19222,696,1,44230,0.0009989999999999721
670999,11802,7215,127236,2190,-1137,127462,200,19217,819,0,44231,0.0010010000000000296
672000,10195,-5356,126696,6006,-4540,132096,162,19217,819,0,44232,0.0010009999999999186
672999,14841,1931,128258,5020,5856,120630,154,19222,664,0,44233,0.0009990000000000832
673998,11607,4809,129612,1352,-3125,127762,154,19217,631,1,44234,0.0009989999999999721
674998,8706,-5600,128947,1160,-7105,130591,226,19235,926,1,44235,0.0010000000000000009
675998,9431,-12626,127972,1709,-10316,138288,156,19221,639,1,44236,0.0010000000000000009
676998,5501,-6525,128843,-9026,3804,121708,171,19217,700,1,44237,0.0010000000000000009
677998,11962,14689,129703,1063,9938,123785,201,19217,700,0,44238,0.0010000000000000009
678998,9833,1302,129134,17918,-708,131102,158,19221,823,0,44239,0.0010000000000000009
679998,3869,2190,128594,-32073,-1631,124373,158,19226,647,0,44240,0.0010000000000000009
680998,14970,-5761,129280,-2792,-4986,130163,169,19211,692,1,44241,0.0010000000000000009
681998,-166,-4347,131426,28624,-10701,134685,155,19227,635,1,44242,0.0010000000000000009
682998,959,-10547,130179,-27930,-6075,129816,168,19219,688,1,44243,0.0010000000000000009
683998,-3445,5811,130755,-20733,7737,125636,196,19219,688,0,44244,0.0010000000000000009
684998,1934,11003,129153,2951,12458,125009,165,19212,803,0,44245,0.0010000000000000009
685998,11550,16408,128957,-3195,10302,118105,165,19225,676,0,44246,0.0010000000000000009
686998,4953,-5734,127633,-6318,-16767,132241,160,19220,655,0,44247,0.0010000000000000009
687998,2577,-12389,127717,-5625,-10698,132300,212,19215,868,1,44248,0.0010000000000000009
689003,-2055,-2758,130148,-3138,-916,130449,153,19224,627,1,44249,0.0010049999999999226
690000,4988,4171,129383,-13655,9638,121534,168,19224,627,1,44250,0.0009970000000000256
690998,1530,15091,128452,-13754,8961,122519,232,19217,688,0,44251,0.0009980000000000544
691998,2479,-6713,124105,169,-10677,133554,232,19224,950,0,44252,0.0010000000000000009
692998,3773,5660,127314,-1280,10554,118249,168,19224,688,0,44253,0.0010000000000000009
693998,5814,8018,126133,-6680,3056,124895,169,19217,692,1,44254,0.0010000000000000009
694998,9968,6271,126606,1648,8223,120865,165,19228,676,1,44255,0.0010000000000000009
695998,11743,-4918,125172,8802,-13817,137469,164,19228,676,1,44256,0.0010000000000000009
696998,4558,-11197,125048,-15239,-1804,124792,188,19217,672,1,44257,0.0010000000000000009
697998,8303,11375,129849,-6831,10721,121150,188,19210,770,0,44258,0.0010000000000000009
698998,3787,-640,125558,21909,1231,133698,182,19227,745,0,44259,0.0010000000000000009
699998,8107,10358,125226,-13216,10504,117047,156,19219,639,0,44260,0.0010000000000000009
700999,14509,-1068,121682,-7685,-2057,126076,187,19223,766,1,44261,0.0010009999999999186
701998,17780,7850,124030,27148,7131,119204,152,19223,623,1,44262,0.0009990000000000832
702998,17295,-6419,126189,10661,-11955,131158,173,19222,623,1,44263,0.0010000000000000009
703998,9491,-5988,127262,-7391,-3544,126279,216,19218,709,0,44264,0.0010000000000000009
704998,8795,2924,128375,4075,2315,128258,216,19222,885,0,44265,0.0010000000000000009
705998,10225,3638,126773,4517,4249,125250,163,19223,668,0,44266,0.0010000000000000009
706998,15325,9374,127326,3026,6156,119925,159,19217,651,0,44267,0.0010000000000000009
707998,12157,-11955,124089,13674,-14568,132349,209,19217,856,1,44268,0.0010000000000000009
708998,17506,-3419,125910,2267,-1065,122171,159,19229,856,1,44269,0.0010000000000000009
709999,16515,-2832,128742,10952,-1252,132376,169,19223,651,1,44270,0.0010009999999999186
710998,14536,3790,127858,4205,2614,123021,169,19218,692,0,44271,0.0009990000000000832
711998,9246,1537,127932,-3263,-1797,132848,171,19226,700,0,44272,0.0010000000000000009
713000,8499,-7375,127882,7408,-6404,129110,158,19223,647,0,44273,0.0010019999999999474
714000,12489,-3187,126756,8323,-2775,124094,181,19223,741,1,44274,0.0010000000000000009
714998,7144,-589,128439,-7370,3000,127338,126,19208,741,1,44275,0.0009980000000000544
715998,12599,4725,129459,-312,2979,127375,159,19224,516,1,44276,0.0009999999999998899
716999,6722,210,130524,3557,-10060,136605,159,19223,651,1,44277,0.0010010000000000296
717998,7240,-10465,126358,1269,5495,118483,197,19217,807,0,44278,0.0009989999999999721
718998,7554,13224,131835,3232,-1978,136470,160,19226,655,0,44279,0.0010000000000000009
719999,7737,-12443,126889,-18706,-3757,124412,157,19220,643,0,44280,0.0010010000000000296
720999,11054,8728,132064,-1309,8889,123127,227,19220,643,1,44281,0.0010000000000000009
722000,5639,-6792,130677,21440,-15299,140937,159,19230,930,1,44282,0.0010010000000000296
723000,-5809,-5922,129184,-29063,-3652,123826,159,19218,651,1,44283,0.0010000000000000009
723998,-1539,-9518,127711,-19484,-5861,138597,173,19215,709,0,44284,0.0009979999999999434
724998,2627,17157,130617,7621,32358,110064,184,19224,754,0,44285,0.0010000000000000009
725998,9178,24606,127863,684,3836,128414,165,19220,676,0,44286,0.0010000000000000009
727000,6342,-14903,125676,-18600,-15498,129381,179,19220,676,0,44287,0.0010020000000000584
727998,2772,-11199,125297,-712,-11237,132963,186,19208,733,1,44288,0.0009979999999999434
728998,2752,-4855,130700,-5846,4390,127227,186,19226,762,1,44289,0.0010000000000000009
730000,3766,16830,131514,-10821,11192,121613,159,19224,651,1,44290,0.0010020000000000584
730998,-590,-5934,126774,-9973,-9319,136333,188,19215,770,0,44291,0.0009979999999999434
731998,-517,10162,124043,-12589,11248,114988,160,19225,655,0,44292,0.0010000000000000009
732998,10426,9241,127986,3509,-1345,128553,165,19225,655,0,44293,0.0010000000000000009
733998,10290,1956,124089,6396,4076,120175,215,19224,676,1,44294,0.0010000000000000009
734998,4979,4269,129011,-13832,-1608,128490,215,19224,881,1,44295,0.0010000000000000009
735998,7388,-3695,124239,51,489,126377,154,19225,631,1,44296,0.0010000000000000009
736998,5141,5712,128736,7239,-851,129294,170,19214,696,1,44297,0.0010000000000000009
737998,5547,-12401,124698,-8695,-9092,130919,229,19226,938,0,44298,0.0010000000000000009
739000,7935,13041,127912,-9186,17111,112428,162,19226,938,0,44299,0.0010020000000000584
739999,16721,5371,125924,13678,227,131901,164,19228,664,0,44300,0.0009989999999999721
741005,16021,583,122962,5369,1614,118693,164,19213,672,1,44301,0.0010059999999999514
741998,10861,-2870,122500,3864,-7575,130022,154,19223,631,1,44302,0.0009930000000000216
742998,10815,-3237,124928,4346,6481,121909,165,19221,676,1,44303,0.0010000000000000009
743998,13468,9636,126365,5026,5207,127246,185,19213,758,0,44304,0.0010000000000000009
744998,11088,-7770,126808,812,-3268,131280,148,19213,606,0,44305,0.0010000000000000009
745998,13499,8513,125719,8570,7980,115401,156,19224,606,0,44306,0.0010000000000000009
746998,13324,-2371,127446,6675,-4359,131420,192,19222,639,0,44307,0.0010000000000000009
747998,16901,-5058,126091,4201,-6106,124833,192,19215,786,1,44308,0.0010000000000000009
748998,12448,-5681,127810,12973,-6385,132123,142,19225,582,1,44309,0.0010000000000000009
749998,13999,5336,128988,-2296,7167,122069,161,19216,659,1,44310,0.0010000000000000009
750998,12336,1314,128519,5722,-3288,127559,210,19216,860,0,44311,0.0010000000000000009
751998,11526,-4407,126816,6914,-5762,133172,160,19225,860,0,44312,0.0010000000000000009
752998,13389,3364,129035,511,3525,120927,159,19224,655,0,44313,0.0010000000000000009
753998,12703,608,128583,4397,-1147,127168,159,19220,651,1,44314,0.0010000000000000009
754998,9321,-7722,129240,2859,-5197,129945,226,19232,926,1,44315,0.0010000000000000009
755999,8202,-8259,128231,-1055,-11964,136490,158,19225,647,1,44316,0.0010010000000000296
756998,3136,-6951,126231,-7741,-4280,117577,177,19225,725,1,44317,0.0009989999999999721
757998,13601,13886,131124,427,13382,131418,193,19214,725,0,44318,0.0010000000000000009
758998,7619,-1740,128213,20385,-2645,127515,155,19228,790,0,44319,0.0010000000000000009
759998,5053,4756,130738,-28712,4142,123940,155,19228,635,0,44320,0.0010000000000000009
760999,16396,-4162,129485,-13853,-3763,130312,180,19209,737,1,44321,0.0010010000000000296
761998,-3437,-2223,129827,35848,-13456,135960,131,19224,537,1,44322,0.0009989999999999721
762998,144,-15173,129721,-24281,-5974,130902,168,19219,688,1,44323,0.0010000000000000009
763998,-3910,5943,130893,-24107,12016,124105,209,19219,688,0,44324,0.0010000000000000009
764998,5387,15659,128975,2706,17310,121442,166,19216,856,0,44325,0.0010000000000000009
765998,10672,10573,128935,-10142,7333,122152,166,19223,680,0,44326,0.0010000000000000009
767001,3470,-9916,126354,-3287,-19064,136785,163,19217,668,0,44327,0.0010029999999999761
767998,4298,-10881,127056,-5592,-2566,128351,231,19218,946,1,44328,0.0009970000000000256
768998,-2160,1382,129306,-7163,-1909,130234,157,19220,643,1,44329,0.0010000000000000009
769998,5164,4749,128902,-16210,11535,119281,177,19220,643,1,44330,0.0010000000000000009
770998,3000,12165,128025,-7063,877,129707,204,19214,725,0,44331,0.0010000000000000009
771998,2705,-6709,125177,-48,-5610,129432,204,19222,836,0,44332,0.0010000000000000009
772999,4215,7872,125827,-5706,10751,118193,164,19222,672,0,44333,0.0010010000000000296
773998,6457,6941,125763,-5592,4862,123561,176,19211,721,1,44334,0.0009989999999999721
774998,9881,9373,126062,9663,7243,122467,121,19222,496,1,44335,0.0010000000000000009
775998,8137,-7270,126054,-917,-17038,139666,171,19222,496,1,44336,0.0010000000000000009
776998,3732,-8415,126571,-16555,-3310,119097,200,19216,700,1,44337,0.0010000000000000009
777998,8495,9659,130097,14574,5769,126460,200,19202,819,0,44338,0.0010000000000000009
778999,3087,3053,126904,4589,5878,124645,154,19226,631,0,44339,0.0010010000000000296
779998,11176,8958,125449,-24318,4464,120745,154,19227,631,0,44340,0.0009989999999999721
780998,15818,-2149,123331,19421,-822,126833,201,19230,823,1,44341,0.0010000000000000009
781998,17993,8157,123628,18950,4702,119592,154,19230,823,1,44342,0.0010000000000000009
782998,14032,-8483,124426,-3108,-12649,132256,176,19225,631,1,44343,0.0010000000000000009
783998,9231,-5233,128029,251,-1055,128220,176,19218,721,0,44344,0.0010000000000000009
785001,11458,3814,128441,4740,3164,128865,206,19227,844,0,44345,0.0010029999999999761
785998,11955,9056,126733,7318,11566,117823,162,19225,664,0,44346,0.0009970000000000256
786999,15184,3353,126330,9470,-4413,128795,162,19212,664,1,44347,0.0010010000000000296
787998,10805,-15596,123934,-141,-12304,129751,177,19212,664,1,44348,0.0009989999999999721
788998,19116,2339,128457,9336,6449,124387,158,19230,725,1,44349,0.0010000000000000009
789998,15813,1720,129288,12709,443,130267,158,19224,647,1,44350,0.0010000000000000009
790998,11457,2480,127988,-6247,895,124325,180,19208,737,0,44351,0.0010000000000000009
791999,8809,-2845,129317,3303,-6097,133770,151,19223,618,0,44352,0.0010010000000000296
793002,12444,-3957,126956,10104,-4594,126544,156,19223,639,0,44353,0.0010029999999999761
793998,13084,2001,128191,3285,1777,122217,188,19223,770,1,44354,0.0009959999999999969
794998,7479,1092,129796,-7318,-592,128079,152,19212,770,1,44355,0.0010000000000000009
795998,10367,-3912,128246,4476,-5759,129780,169,19224,623,1,44356,0.0010000000000000009
796998,5394,-2377,131039,-1155,-3913,135231,169,19217,692,1,44357,0.0010000000000000009
797998,6974,-3749,128667,-585,1182,119555,218,19220,893,0,44358,0.0010000000000000009
798998,9882,12795,130198,500,8188,129506,164,19224,672,0,44359,0.0010000000000000009
799998,8743,-12537,127163,-5729,-10867,131341,159,19224,651,0,44360,0.0010000000000000009
800998,11803,7156,130334,-12701,7284,118567,207,19219,651,1,44361,0.0010000000000000009
801998,4546,-6495,128992,17966,-12296,138676,159,19227,848,1,44362,0.0010000000000000009
802998,-8221,-7080,129150,-12354,-7317,127758,159,19217,651,1,44363,0.0010000000000000009
803999,2755,-5382,128868,-27244,-4791,125594,179,19214,733,0,44364,0.0010009999999999186
804998,77,22526,130406,2372,25765,115540,178,19226,729,0,44365,0.0009990000000000832
806001,9075,15535,128488,1013,9920,131265,163,19226,668,0,44366,0.0010029999999999761
806999,5192,-15913,124869,-14111,-16245,128601,189,19224,668,0,44367,0.0009979999999999434
808000,4220,-7848,128640,-3795,-5603,134590,152,19205,774,1,44368,0.0010010000000000296
808998,2372,-396,130007,-1248,8062,119993,152,19223,623,1,44369,0.0009980000000000544
809999,1795,13742,131329,-12217,1719,132478,160,19220,655,1,44370,0.0010009999999999186
810998,-426,-9771,125397,-9931,-4041,129082,199,19216,815,0,44371,0.0009990000000000832
811998,206,14783,125985,-9581,16453,115178,167,19222,684,0,44372,0.0010000000000000009
812998,11585,7011,125962,4147,-3460,130489,166,19222,684,0,44373,0.0010000000000000009
814001,8377,-530,124813,2745,6222,118138,220,19223,680,1,44374,0.0010029999999999761
814998,5825,1717,126194,-11107,-5953,132712,220,19227,901,1,44375,0.0009970000000000256
816000,6154,-3753,125615,4253,5435,123484,159,19217,651,1,44376,0.0010019999999999474
817000,4569,4795,127288,1730,-6717,132671,176,19216,721,1,44377,0.0010000000000000009
817998,6476,-8304,124763,-10078,2678,122555,225,19221,922,0,44378,0.0009980000000000544
818998,7730,16802,127211,-2702,13902,117449,157,19221,922,0,44379,0.0010000000000000009
820001,18591,1530,124586,12971,-4283,130513,169,19224,643,0,44380,0.0010029999999999761
820998,13467,7,123421,3995,525,120174,169,19209,692,1,44381,0.0009970000000000256
821998,14871,-1279,123870,1667,-10001,130365,123,19219,504,1,44382,0.0010000000000000009
822998,10102,3084,125635,2935,6912,120562,169,19220,692,1,44383,0.0010000000000000009
823998,12412,4952,129063,1546,-3952,133166,194,19215,795,0,44384,0.0010000000000000009
824998,12619,-4708,126821,5682,2559,123524,155,19215,795,0,44385,0.0010000000000000009
825999,12152,11343,126906,8703,7706,120149,156,19226,635,0,44386,0.0010009999999999186
826998,15567,-5181,125818,4885,-9904,130902,156,19221,639,1,44387,0.0009990000000000832
827998,15131,-5586,126136,4009,-3733,125912,207,19221,848,1,44388,0.0010000000000000009
828998,14654,-6423,128845,11442,-4945,132092,152,19224,623,1,44389,0.0010000000000000009
829998,12325,5340,128507,-1378,7280,120649,161,19219,659,1,44390,0.0010000000000000009
830998,12551,-1194,128451,5073,-7504,133917,206,19219,659,0,44391,0.0010000000000000009
831998,12164,-4934,126209,5071,-31,127145,157,19225,844,0,44392,0.0010000000000000009
832998,14560,8209,127831,1976,8652,121787,157,19221,643,0,44393,0.0010000000000000009
833998,12639,166,127054,6583,-400,128223,163,19217,668,1,44394,0.0010000000000000009
834998,7062,-6317,128961,1108,-5123,129199,187,19227,766,1,44395,0.0009999999999998899
835998,8406,-8969,128668,-371,-12065,136786,166,19217,680,1,44396,0.0010000000000000009
836998,2733,-1964,130320,-5903,4293,121423,184,19217,754,0,44397,0.0010000000000000009
837999,13599,10388,130622,1957,7580,126425,158,19207,754,0,44398,0.0010010000000000296
839000,8370,2185,128223,14620,541,129378,157,19223,647,0,44399,0.0010010000000000296
840000,5820,3447,130002,-33273,135,123413,157,19226,643,0,44400,0.0010000000000000009
841000,14773,-5956,131483,2181,-7305,129603,194,19216,795,1,44401,0.0010000000000000009
841998,-2758,-3986,130091,26747,-10254,135372,145,19225,594,1,44402,0.0009979999999999434
842998,510,-10949,130701,-32162,-9195,131878,167,19225,684,1,44403,0.0010000000000000009
843998,-2229,6883,129095,-15580,6326,125065,217,19219,684,0,44404,0.0010000000000000009
844998,4350,11604,130850,2359,14987,125600,165,19217,889,0,44405,0.0010000000000000009
845998,9041,13920,127958,-7545,8925,117842,165,19228,676,0,44406,0.0010000000000000009
846998,3527,-13830,124243,-6257,-16135,136466,164,19218,672,0,44407,0.0010000000000000009
847998,3756,-8176,127873,-1923,-7301,131084,252,19228,1032,1,44408,0.0010000000000000009
848998,-538,-3186,128872,-5287,-2895,129123,159,19228,651,1,44409,0.0010000000000000009
849998,3582,12229,130648,-17701,13154,120725,174,19216,651,1,44410,0.0010000000000000009
850998,2460,6293,127440,-9052,2077,131902,185,19211,713,0,44411,0.0010000000000000009
851998,3302,-2360,122604,907,-3902,121595,185,19222,758,0,44412,0.0010000000000000009
853000,3641,10015,126919,-4858,9078,123587,164,19219,672,0,44413,0.0010020000000000584
853998,7268,4579,124934,-5906,6273,120075,183,19210,750,1,44414,0.0009979999999999434
854998,9270,9226,127790,2724,-2994,130952,134,19221,549,1,44415,0.0010000000000000009
855999,9885,-12749,126737,8071,-9911,133161,166,19221,549,1,44416,0.0010010000000000296
857001,3562,-868,127180,-16504,3803,119447,207,19221,680,0,44417,0.0010020000000000584
858000,7988,3451,130011,-3255,2225,130798,207,19212,848,0,44418,0.0009989999999999721
858998,3809,4622,124426,19136,8678,119060,163,19229,668,0,44419,0.0009979999999999434
859998,9698,9456,124286,-19035,1600,124812,155,19222,635,0,44420,0.0010000000000000009
861001,15328,-150,122563,12121,5328,120845,204,19227,836,1,44421,0.0010030000000000872
861998,21082,6135,124653,22723,-4083,128006,161,19227,836,1,44422,0.0009969999999999146
862998,16190,-9752,124973,-3926,-8547,128947,177,19223,659,1,44423,0.0010000000000000009
863999,9061,-657,127698,9,321,126415,177,19217,725,0,44424,0.0010010000000000296
864998,7799,-506,128145,4132,1443,130411,194,19227,795,0,44425,0.0009989999999999721
865998,13831,8149,127591,5994,9919,118494,160,19224,655,0,44426,0.0010000000000000009
866998,10859,6019,125907,13565,-9176,129194,168,19211,688,1,44427,0.0010000000000000009
867998,12014,-7950,124608,-967,-7701,125295,163,19211,688,1,44428,0.0010000000000000009
868998,18686,-2524,126320,13251,-314,126927,161,19224,668,1,44429,0.0010000000000000009
869998,15658,4524,131880,7472,3067,129720,161,19224,659,1,44430,0.0010000000000000009
870998,13400,1023,127727,-3170,-941,124199,188,19216,770,0,44431,0.0010000000000000009
871998,8662,-1910,128388,4402,-4687,132078,157,19225,643,0,44432,0.0010000000000000009
872998,12813,-4574,126426,6990,-5216,128723,156,19217,639,0,44433,0.0010000000000000009
873999,11839,-1647,127967,-195,1239,122856,206,19217,639,1,44434,0.0010010000000000296
874998,9528,4679,130713,-3377,2318,127135,156,19221,844,1,44435,0.0009989999999999721
875998,9261,-1095,129411,5305,-2858,129581,156,19224,639,1,44436,0.0010000000000000009
876998,6600,-5719,129285,-2679,-11698,137137,167,19217,684,0,44437,0.0010000000000000009
877998,6957,-3108,131097,3401,10263,119452,231,19226,946,0,44438,0.0010000000000000009
878998,9598,12146,127309,-2876,2696,132576,164,19222,672,0,44439,0.0010000000000000009
879998,8936,-6390,129668,-17314,604,123291,165,19222,676,0,44440,0.0010000000000000009
881000,11445,7017,131625,3189,-1349,125662,174,19211,676,1,44441,0.0010020000000000584
882000,4856,-13207,128605,17476,-14152,140383,160,19229,713,1,44442,0.0010000000000000009
882998,-9115,-2628,130881,-35272,-5066,125020,160,19220,655,1,44443,0.0009979999999999434
883999,4179,-3204,128453,-11694,1005,131822,185,19213,758,0,44444,0.0010010000000000296
884998,3101,26839,130441,9700,31047,114863,149,19222,610,0,44445,0.0009989999999999721
885998,8794,7944,128826,-6779,-3900,127860,165,19222,676,0,44446,0.0010000000000000009
886998,3185,-14227,124844,-13093,-12988,128788,200,19223,676,1,44447,0.0010000000000000009
887998,4031,-8421,129877,-1548,-9920,133416,131,19209,819,1,44448,0.0010000000000000009
888998,2921,1490,130091,-5838,5250,124647,131,19226,537,1,44449,0.0010000000000000009
889998,1523,10105,129609,-11728,6657,127641,161,19220,659,1,44450,0.0010000000000000009
890998,141,-8405,125465,-11109,-6398,130301,211,19220,864,0,44451,0.0010000000000000009
891998,2978,16871,124694,-8259,14919,115553,170,19220,696,0,44452,0.0010000000000000009
892998,13376,589,124237,2901,-2767,130535,169,19223,696,0,44453,0.0010000000000000009
893998,7801,4532,125200,7244,5868,118618,200,19216,692,1,44454,0.0010000000000000009
894998,6053,-1476,126125,-17017,-3256,130994,200,19230,819,1,44455,0.0010000000000000009
895998,5554,2235,127324,4683,3565,122284,166,19219,680,1,44456,0.0010000000000000009
896998,4146,-229,126777,4464,-4557,133697,183,19212,750,0,44457,0.0010000000000000009
898000,6359,-6019,125169,-10842,-3106,115793,194,19224,795,0,44458,0.0010019999999999474
898998,8796,17029,127413,-3557,15462,124904,161,19224,795,0,44459,0.0009980000000000544
899999,19173,2092,123896,10747,328,124508,179,19227,659,1,44460,0.0010010000000000296
900998,11490,-585,123249,8731,-3098,128719,179,19216,733,1,44461,0.0009989999999999721
901998,13418,-6659,124234,429,-2375,124617,136,19224,557,1,44462,0.0010000000000000009
902998,10740,6660,125576,6558,7902,122953,165,19220,676,1,44463,0.0010000000000000009
903999,12453,2155,129132,4118,-5243,133752,198,19224,811,0,44464,0.0010010000000000296
904998,13148,-2531,125297,299,4818,117849,160,19224,811,0,44465,0.0009989999999999721
906002,12150,4696,126838,5250,2008,128804,156,19227,655,0,44466,0.0010040000000000049
906998,17012,-2599,125977,7306,-5535,124892,156,19218,639,1,44467,0.0009959999999999969
907998,14273,-4351,125933,10004,-5752,131385,222,19224,909,1,44468,0.0010000000000000009
908998,14576,-6292,127482,5795,-383,127181,150,19225,614,1,44469,0.0010000000000000009
909998,12238,7456,127710,2113,3611,121589,164,19214,672,1,44470,0.0010000000000000009
910999,11901,-2482,127765,5953,-8081,136288,178,19214,672,0,44471,0.0010010000000000296
911998,13945,-966,128208,1681,1751,118983,162,19221,729,0,44472,0.0009989999999999721
912998,13149,7296,128294,-1445,2282,127317,162,19223,664,0,44473,0.0010000000000000009
913998,12304,-710,129861,7034,-2371,126378,172,19216,704,1,44474,0.0010000000000000009
914998,6057,-6614,128334,3868,-11382,133858,163,19227,668,1,44475,0.0010000000000000009
915999,9517,-10864,129924,-4556,-9819,133569,158,19225,647,1,44476,0.0010010000000000296
917000,3868,3150,129440,-5933,9348,118787,192,19225,647,0,44477,0.0010009999999999186
917998,15171,7703,130446,11646,2886,131961,154,19208,786,0,44478,0.0009980000000000544
918998,4879,3680,127933,1147,4007,124614,154,19226,631,0,44479,0.0010000000000000009
919998,7834,293,129532,-37635,-6506,127972,155,19224,635,0,44480,0.0010000000000000009
920998,12670,-3886,130958,26570,-2695,128786,206,19221,844,1,44481,0.0010000000000000009
921999,-2126,-7435,129647,6225,-16144,138714,151,19222,618,1,44482,0.0010010000000000296
922998,3201,-8061,129117,-39515,3160,124748,170,19222,618,1,44483,0.0009989999999999721
923998,-3355,12338,130024,3057,10821,129115,221,19214,696,0,44484,0.0010000000000000009
924998,9226,8701,128364,-118,14151,120597,221,19226,905,0,44485,0.0010000000000000009
925998,5949,13951,129262,-12581,4518,121416,166,19223,680,0,44486,0.0010000000000000009
926998,3129,-17459,126909,-2433,-19352,138658,172,19217,704,1,44487,0.0010000000000000009
928000,2918,-1907,128903,-4856,-1086,125459,221,19227,905,1,44488,0.0010019999999999474
928999,-35,-3339,129572,-5577,-6349,134554,163,19227,668,1,44489,0.0009989999999999721
929998,2579,12540,129672,-22469,16754,113496,185,19229,668,1,44490,0.0009990000000000832
930998,3574,8597,128398,-3508,-2863,133065,162,19211,758,0,44491,0.0010000000000000009
931999,3381,-7735,123727,3539,-3192,127237,162,19219,664,0,44492,0.0010009999999999186
932998,4482,12781,127140,-11198,8117,119231,164,19222,672,0,44493,0.0009990000000000832
933998,7845,1939,125191,-3578,2047,124767,195,19219,799,1,44494,0.0010000000000000009
934998,7937,8468,127687,8601,7522,122492,162,19219,664,1,44495,0.0010000000000000009
935998,5952,-16824,126662,-10728,-21073,141531,176,19224,664,1,44496,0.0010000000000000009
936998,9387,186,126047,-7599,6477,116333,220,19217,721,0,44497,0.0010000000000000009
937998,3011,7221,126775,20074,2259,131012,220,19214,901,0,44498,0.0010000000000000009
938998,6945,4720,124090,-16272,7493,119916,164,19227,672,0,44499,0.0010000000000000009
939998,13557,7410,125115,-10257,4462,123226,157,19219,643,1,44500,0.0010000000000000009
940998,14659,-1092,124193,28363,-381,128033,166,19219,680,1,44501,0.0010000000000000009
941998,19053,5013,123621,5683,2305,117380,165,19227,680,1,44502,0.0010000000000000009
942999,7866,-11878,125774,-5536,-11997,134700,177,19218,676,1,44503,0.0010009999999999186
943998,13229,3043,127357,6305,4258,124117,177,19212,725,0,44504,0.0009990000000000832
944998,11621,6436,128200,7190,7047,122662,164,19221,672,0,44505,0.0010000000000000009
945998,13195,9246,130013,2281,6905,123281,154,19223,631,0,44506,0.0010000000000000009
946999,12931,-9041,124361,10816,-13816,134081,177,19213,725,1,44507,0.0010009999999999186
947998,14425,-10294,125981,-719,-8676,121757,127,19213,725,1,44508,0.0009990000000000832
948998,17550,7008,128074,12905,5240,129272,156,19229,520,1,44509,0.0010000000000000009
949999,11582,920,127395,6435,3297,123285,156,19222,639,0,44510,0.0010009999999999186
950998,11587,529,127593,-3438,-5485,131518,194,19213,795,0,44511,0.0009990000000000832
951998,10458,-6632,126788,4777,-4523,130019,153,19225,627,0,44512,0.0010000000000000009
952998,16957,359,126233,7435,2537,121661,151,19220,618,0,44513,0.0010000000000000009
953998,10939,3567,129066,-4900,1492,125873,226,19220,618,1,44514,0.0009999999999998899
954998,9860,-2011,129052,-16,-5791,129662,154,19231,926,1,44515,0.0010000000000000009
955998,8776,-7464,130044,6161,-7367,136381,154,19226,631,1,44516,0.0010000000000000009
956999,3085,-4865,128163,-9936,-14279,130835,170,19220,696,0,44517,0.0010010000000000296
957998,8591,9572,131465,4501,20755,115938,199,19224,815,0,44518,0.0009989999999999721
958998,8971,12999,129124,4294,-9857,139219,156,19221,639,0,44519,0.0010000000000000009
959998,10396,-10235,130339,-25073,2270,119629,167,19221,639,1,44520,0.0010000000000000009
960998,9553,5883,131289,8616,-6028,130858,133,19213,684,1,44521,0.0010000000000000009
961998,4004,-11691,129736,15192,-10275,134802,133,19224,545,1,44522,0.0010000000000000009
962998,-5218,-4072,129302,-41071,-7765,130864,166,19219,680,1,44523,0.0010000000000000009
963998,898,-3398,130265,-4274,8237,127686,201,19217,823,0,44524,0.0010000000000000009
964998,4919,25744,129911,5054,26806,113888,163,19226,668,0,44525,0.0010000000000000009
965998,8474,8184,129532,-9291,-7967,130214,158,19226,668,0,44526,0.0010000000000000009
966998,3940,-13909,124784,-11269,-13503,130077,216,19222,647,1,44527,0.0010000000000000009
967998,2934,-10103,128175,-1368,-6652,134304,216,19215,885,1,44528,0.0010000000000000009
968998,2194,7249,129182,-8018,13167,120444,151,19226,618,1,44529,0.0010000000000000009
969998,1757,7337,129761,-7543,-2051,132370,170,19219,696,0,44530,0.0010000000000000009
970998,-1596,-5826,124756,-12026,-639,125185,231,19229,946,0,44531,0.0010000000000000009
971998,3952,16683,127184,-11086,15640,118066,165,19229,946,0,44532,0.0010000000000000009
972998,13612,2225,125259,6353,-3126,128006,169,19226,676,0,44533,0.0010000000000000009
973998,7226,4797,125460,3767,3532,120308,169,19212,692,1,44534,0.0010000000000000009
974998,6802,-6374,126394,-12765,-8707,132899,160,19225,655,1,44535,0.0010000000000000009
975998,5483,2149,128306,2556,5588,122452,173,19216,709,1,44536,0.0010000000000000009
976999,6346,6,126949,4460,-7154,134462,195,19209,799,0,44537,0.0010010000000000296
977999,5641,-1030,124787,-12074,5870,119136,170,19209,696,0,44538,0.0010000000000000009
978998,10731,16026,125587,-314,11030,119685,157,19224,696,0,44539,0.0009989999999999721
979998,18554,-4836,123928,13417,-1284,129696,193,19222,643,1,44540,0.0010000000000000009
980998,12998,-466,123378,3292,-4061,123050,193,19223,790,1,44541,0.0010000000000000009
982000,11843,-8590,123296,2792,-5613,130298,146,19224,598,1,44542,0.0010020000000000584
982998,11242,7784,126087,2739,8384,120422,169,19221,692,1,44543,0.0009979999999999434
984000,12745,-47,127187,5005,-3193,132338,219,19221,897,0,44544,0.0010020000000000584
984999,14548,2356,127070,4675,5439,122982,163,19226,897,0,44545,0.0009989999999999721
985998,13581,5190,126649,8929,2910,121568,162,19223,668,0,44546,0.0009989999999999721
986998,16429,-3264,125296,1248,-4921,127551,162,19216,664,1,44547,0.0010000000000000009
987998,12416,-7084,126612,9182,-8642,130885,208,19226,852,1,44548,0.0010000000000000009
988998,12232,-3722,127997,11505,-2923,129290,153,19225,627,1,44549,0.0010000000000000009
989998,12213,9228,128546,-5712,7514,122102,172,19216,704,0,44550,0.0010000000000000009
991001,12169,-6179,126608,9102,-9637,130788,161,19216,704,0,44551,0.0010029999999999761
991998,14659,-203,128389,5914,946,120636,160,19223,659,0,44552,0.0009970000000000256
992999,13471,5222,128795,-437,4202,126435,160,19221,655,0,44553,0.0010010000000000296
993998,11418,-1979,128281,3301,-3547,129055,185,19205,758,1,44554,0.0009989999999999721
994998,6809,-8450,128726,5100,-8456,134544,126,19223,516,1,44555,0.0010000000000000009
996000,7693,-11610,128575,-3478,-11152,128016,161,19221,659,1,44556,0.0010020000000000584
996998,7560,7473,131220,-8015,6511,124197,207,19221,659,0,44557,0.0009979999999999434
997998,11677,6405,128824,11526,1687,129481,163,19217,848,0,44558,0.0010000000000000009
998998,4709,4435,128088,2836,1639,125229,163,19225,668,0,44559,0.0010000000000000009
999998,12093,-3111,128656,-35425,-5240,127801,159,19220,651,1,44560,0.0010000000000000009
1000998,5593,-2049,130996,30711,-8449,133778,226,19224,926,1,44561,0.001000000000000112
1002000,430,-10895,129321,-13443,-12497,130217,157,19225,643,1,44562,0.0010019999999999474
1002998,-728,196,130413,-27769,6054,125681,175,19225,643,1,44563,0.0009980000000000544
1003998,-2806,7870,128898,1444,10222,127584,190,19217,717,0,44564,0.0009999999999998899
1004998,11148,14323,129612,-7196,14416,115912,190,19225,778,0,44565,0.001000000000000112
1006001,5366,6363,129254,-6100,-7186,132055,169,19224,692,0,44566,0.0010029999999998651
1007001,5925,-14355,126948,-1557,-14033,132442,182,19209,745,1,44567,0.001000000000000112
1007998,-739,-5169,128308,-8872,-4490,131320,185,19227,758,1,44568,0.0009969999999999146
1008998,1548,-688,128336,-9457,5169,125675,160,19227,758,1,44569,0.001000000000000112
1009999,1512,15252,129230,-9755,13299,119835,192,19220,655,0,44570,0.0010009999999998076
1010998,3310,946,126494,-6857,-8612,134362,192,19212,786,0,44571,0.0009990000000001942
1011998,1882,-1565,123619,-6826,7934,118990,165,19229,676,0,44572,0.0009999999999998899
1012999,7824,12036,127528,-2192,5543,125162,165,19223,676,0,44573,0.0010010000000000296
1013998,10263,2519,124540,6412,7555,122782,214,19228,876,1,44574,0.0009989999999999721
1014998,9699,3323,127670,-3632,-7140,130600,155,19228,876,1,44575,0.0009999999999998899
1015998,11288,-16475,124280,-3526,-9367,132007,174,19224,635,1,44576,0.001000000000000112
1016999,5910,7577,127458,480,10849,118130,174,19216,713,0,44577,0.0010010000000000296
1017999,2812,4076,127284,-13065,-3433,131363,234,19224,958,0,44578,0.0009999999999998899
1018998,7776,5512,124991,7964,8622,119333,163,19229,668,0,44579,0.0009989999999999721
1020027,6818,5893,125195,9767,-641,129178,163,19216,668,1,44580,0.0010290000000001687
1020998,15166,-353,121886,-8646,2686,116223,150,19216,614,1,44581,0.0009709999999998331
1022002,17748,5683,126262,15662,961,125996,167,19226,614,1,44582,0.0010040000000000049
1023000,18487,-9320,126386,8984,-9250,134254,184,19219,684,1,44583,0.0009980000000000544
1024000,12938,3935,127762,243,6410,119052,184,19212,754,0,44584,0.001000000000000112
1024998,5300,-6222,127449,861,-6232,135999,151,19225,618,0,44585,0.0009979999999998324
1026000,11630,-1977,125925,3070,1428,120348,155,19222,635,0,44586,0.0010020000000001694
1026998,15666,3976,125802,8226,1157,127744,193,19222,790,1,44587,0.0009979999999998324
1027998,14240,597,125033,8649,1533,123742,142,19216,790,1,44588,0.001000000000000112
1028998,15501,332,125188,10190,-2322,123106,160,19222,582,1,44589,0.0009999999999998899
1029998,15306,-5991,128581,1983,-5663,135176,160,19220,655,0,44590,0.001000000000000112
1030998,12838,-312,127605,9157,746,124703,206,19228,844,0,44591,0.0009999999999998899
1031998,9515,1812,129778,-327,785,129710,158,19221,647,0,44592,0.001000000000000112
1032998,13196,309,129505,-1187,-1273,126162,161,19221,659,0,44593,0.0009999999999998899
1033998,7779,-5339,128264,5292,-6639,128241,224,19218,659,1,44594,0.001000000000000112
1034998,8792,-3286,129590,-280,-2713,130220,157,19232,917,1,44595,0.0009999999999998899
1035998,9088,-576,130337,-931,-2885,124923,157,19214,643,1,44596,0.001000000000000112
1036998,9585,-6351,126672,-1267,-8622,132763,175,19211,717,0,44597,0.0009999999999998899
1037998,8795,18923,132878,2181,20207,116748,192,19224,786,0,44598,0.001000000000000112
1038998,9095,-7357,125849,272,-15510,134839,155,19224,635,0,44599,0.0009999999999998899
1039998,7038,-3127,130645,-16499,1062,116795,180,19224,635,1,44600,0.001000000000000112
1040998,8168,-1564,130873,1316,-7039,143318,141,19207,737,1,44601,0.0009999999999998899
1041998,575,-9333,128002,9714,-8603,120033,141,19227,577,1,44602,0.001000000000000112
1042998,-2105,950,129012,-29976,-2326,139727,175,19217,717,1,44603,0.0009999999999998899
1043998,2776,223,128009,-8161,26185,110708,210,19216,860,0,44604,0.001000000000000112
1044998,8757,32413,129893,952,9837,126428,166,19220,680,0,44605,0.0009999999999998899
1046000,10657,-11900,128033,1590,-17173,133682,163,19220,680,0,44606,0.0010020000000001694
1046998,3983,-8698,123901,-12021,-10320,126719,234,19221,668,1,44607,0.0009979999999998324
1048001,2182,-5555,130677,-5280,-3589,133790,234,19218,958,1,44608,0.0010030000000000872
1048998,417,9339,129317,-7741,10150,120417,165,19225,676,1,44609,0.0009969999999999146
1050000,2358,2730,130260,-8961,-7291,136876,178,19215,729,0,44610,0.0010020000000001694
1050998,-2771,4217,125499,-14241,16563,112381,203,19219,831,0,44611,0.0009979999999998324
1052001,8143,15930,126976,62,-1103,128259,163,19219,831,0,44612,0.0010030000000000872
1053000,12092,-8347,123811,8332,-2364,126460,177,19223,668,0,44613,0.0009989999999999721
1053998,8160,6253,127688,-7498,839,124063,177,19216,725,1,44614,0.0009980000000000544
1054998,8208,-7987,125608,-6088,-892,127400,128,19220,524,1,44615,0.0009999999999998899
1055998,4249,12828,128865,-1593,8740,123025,170,19220,696,1,44616,0.001000000000000112
1056998,7518,-10280,124697,1037,-14769,137062,196,19207,803,0,44617,0.0009999999999998899
1057998,5302,4184,124668,-8502,21160,110310,153,19207,803,0,44618,0.001000000000000112
1058998,11672,11701,125250,7443,1970,129725,152,19225,627,0,44619,0.0009999999999998899
1059998,15936,-7308,123627,10600,-1179,122824,152,19218,623,1,44620,0.001000000000000112
1060998,12204,1795,123381,4373,-4256,127611,203,19233,831,1,44621,0.0009999999999998899
1061998,10741,-7040,126374,5140,1089,123784,155,19225,635,1,44622,0.001000000000000112
1062998,9918,12481,125958,1657,6646,122250,173,19219,709,1,44623,0.0009999999999998899
1063999,12704,-5637,128149,2918,-7634,135845,199,19219,709,0,44624,0.0010010000000000296
1064998,14308,3908,126228,6414,7771,115778,156,19221,815,0,44625,0.0009989999999999721
1065998,14032,3894,128091,6885,-2510,130164,156,19225,639,0,44626,0.001000000000000112
1066998,16355,-8060,125152,3326,-7579,126736,165,19216,676,1,44627,0.0009999999999998899
1067998,12245,-5688,126920,14285,-7431,131549,174,19225,713,1,44628,0.001000000000000112
1068998,13052,2093,127864,3332,4920,124156,160,19220,655,1,44629,0.0009999999999998899
1069998,13015,3042,130121,488,2139,125284,178,19220,729,0,44630,0.001000000000000112
1070998,10764,-6279,126902,5983,-8255,134092,145,19212,729,0,44631,0.0009999999999998899
1071998,12785,1164,127905,2214,5088,122559,152,19224,594,0,44632,0.001000000000000112
1072998,12981,1370,127580,1829,-1842,128027,152,19222,623,0,44633,0.0009999999999998899
1073998,10132,-4368,128602,5173,-3641,127057,196,19213,803,1,44634,0.001000000000000112
1074998,9044,-6468,129850,2013,-8065,133579,147,19223,602,1,44635,0.0009999999999998899
1075998,6172,-8070,129404,-8068,-4089,128069,166,19223,680,1,44636,0.001000000000000112
1076999,12531,8308,129750,-1331,5143,125132,219,19221,680,0,44637,0.0010010000000000296
1077999,6281,3549,129723,19087,3714,128783,159,19222,897,0,44638,0.0009999999999998899
1078998,2971,5128,127310,-21215,1242,125582,159,19220,651,0,44639,0.0009989999999999721
1079998,12233,-4540,129678,-17869,-4975,129723,159,19216,651,1,44640,0.001000000000000112
1080998,4234,-6314,130987,28505,-12173,131057,193,19227,790,1,44641,0.0009999999999998899
1081999,2464,-8432,130415,-10094,-7633,130324,174,19221,713,1,44642,0.0010010000000000296
1082998,-3743,3718,131188,-28192,2487,129195,188,19221,713,1,44643,0.0009989999999999721
1083998,398,4658,128699,-568,6267,126709,165,19209,770,0,44644,0.001000000000000112
1084998,11164,20369,130330,-6332,19487,116838,165,19224,676,0,44645,0.0009999999999998899
1085998,8642,-4746,127429,-2556,-7251,135354,163,19222,668,0,44646,0.001000000000000112
1086998,2690,-12876,127373,-2384,-13805,130859,192,19206,786,1,44647,0.0009999999999998899
1087998,-998,-8145,127752,-15403,-8504,129578,161,19228,659,1,44648,0.001000000000000112
1089000,2575,9027,129163,-8022,10349,118370,168,19228,659,1,44649,0.0010019999999999474
1090001,333,15348,128436,-7404,11551,131053,209,19219,688,0,44650,0.0010010000000000296
1090998,3172,-7227,124672,-11338,-1863,125547,209,19214,856,0,44651,0.0009969999999999146
1091998,2791,9519,126605,1265,3764,122153,169,19220,692,0,44652,0.001000000000000112
1093003,8223,4914,126892,-7519,3313,121761,166,19215,680,0,44653,0.0010049999999999226
1093998,10523,6813,128251,-5181,2012,126328,194,19231,795,1,44654,0.0009950000000000792
1094998,9371,-8089,128825,6316,-14129,137286,158,19231,795,1,44655,0.0009999999999998899
1095998,4241,-4247,124809,-14625,6496,118188,177,19226,647,1,44656,0.001000000000000112
1096998,4251,7635,126772,1127,4256,127314,177,19216,725,0,44657,0.0009999999999998899
1097998,6334,3652,124368,1193,7598,120879,212,19221,868,0,44658,0.001000000000000112
1098998,13077,10874,125995,-2075,5922,124431,161,19227,659,0,44659,0.0009999999999998899
1099998,14735,-1856,125050,9984,-5176,126394,172,19216,704,1,44660,0.001000000000000112
1100998,13282,-2825,123130,11157,-5735,124355,130,19216,704,1,44661,0.0009999999999998899
1101998,10765,-7424,125644,-703,-2860,130710,164,19224,532,1,44662,0.001000000000000112
1102998,10736,3980,128176,2951,5465,122332,164,19220,672,1,44663,0.0009999999999998899
1103998,11576,5449,126426,6608,3548,128071,198,19218,811,0,44664,0.001000000000000112
1104999,12289,4764,127057,-229,4206,120893,161,19222,659,0,44665,0.0010009999999998076
1105998,16931,-730,124905,8512,-6411,128115,154,19219,631,0,44666,0.0009990000000001942
1106998,16212,-9050,126001,14313,-5271,129474,212,19219,631,1,44667,0.0009999999999998899
1107998,13429,165,127391,5268,-163,122999,148,19221,868,1,44668,0.001000000000000112
1108999,14480,-156,127555,2721,-154,128435,148,19224,606,1,44669,0.0010009999999998076
1109998,11410,1595,128468,7637,-882,127998,162,19217,664,0,44670,0.0009990000000001942
1111001,10292,-3382,128086,909,-4398,129658,196,19225,803,0,44671,0.0010029999999998651
1111998,11286,-792,128861,1755,859,124714,161,19226,659,0,44672,0.0009970000000001367
1112999,13171,2203,128541,8712,294,124838,168,19226,688,0,44673,0.0010009999999998076
1113998,11483,-720,128389,-2274,-16,129408,183,19207,688,1,44674,0.0009990000000001942
1114998,10798,-9416,128519,-1117,-8459,132091,157,19230,750,1,44675,0.0009999999999998899
1115998,7213,-2110,129786,-723,-37,129618,157,19222,643,1,44676,0.001000000000000112
1116998,8637,-6486,126648,-628,-3004,124217,184,19209,754,0,44677,0.0009999999999998899
1117998,7350,16082,131904,2521,16716,126322,157,19226,643,0,44678,0.001000000000000112
1118998,8632,-9688,125905,-1785,-19205,136233,157,19226,643,0,44679,0.0009999999999998899
1119998,7904,6215,131490,-19777,15673,116256,196,19221,643,1,44680,0.001000000000000112
1120998,10044,-1137,130858,13180,-14567,138066,147,19213,803,1,44681,0.0009999999999998899
1121998,-2620,-14551,128058,4334,-10125,130596,147,19222,602,1,44682,0.001000000000000112
1122998,-873,-4488,129272,-34429,-7892,136729,169,19215,692,1,44683,0.0009999999999998899
1123999,1393,7316,128834,-2698,19334,115387,226,19223,926,0,44684,0.0010010000000000296
1124999,9624,33075,130459,1489,23856,119974,167,19223,684,0,44685,0.0009999999999998899
1125998,8359,-16689,125567,-8402,-21692,133795,170,19225,684,0,44686,0.0009990000000001942
1127005,1579,-7048,126330,-12979,-8420,125176,254,19216,696,1,44687,0.0010069999999999801
1127998,2419,-5551,130064,-2612,-6302,135255,254,19222,1040,1,44688,0.0009930000000000216
1129001,1639,8756,130183,-2961,8898,119302,164,19218,672,1,44689,0.0010029999999998651
1129998,2468,-962,127504,-10213,-5551,137462,181,19207,741,0,44690,0.0009970000000001367
1130998,-3478,5500,124776,-14951,9910,117292,184,19225,754,0,44691,0.0009999999999998899
1131998,8552,14477,126779,-7082,11682,120656,165,19225,754,0,44692,0.001000000000000112
1132998,10826,-5551,123596,8858,-5499,130870,193,19224,676,1,44693,0.0009999999999998899
1133998,5473,6073,127658,-2220,4814,132125,193,19218,790,1,44694,0.0009999999999998899
1134998,9867,-10115,125196,-11099,-10344,123247,146,19220,598,1,44695,0.001000000000000112
1135998,5289,8766,127946,3963,9011,130835,168,19219,688,1,44696,0.0009999999999998899
1136998,9492,-7315,125271,3437,-10277,126962,206,19219,844,0,44697,0.001000000000000112
1137998,3951,13812,125092,-9103,19331,110531,161,19219,844,0,44698,0.0009999999999998899
1138998,14254,11026,127104,-266,-6013,135829,157,19228,659,0,44699,0.001000000000000112
1139998,15713,-6698,123355,13017,-521,118582,157,19219,643,1,44700,0.0009999999999998899
1140998,10770,1775,126563,4666,-7085,131870,188,19230,770,1,44701,0.001000000000000112
1141999,10970,-8369,125447,4608,946,120922,165,19220,676,1,44702,0.0010010000000000296
1142998,8819,10076,127334,1416,3699,128198,176,19217,721,0,44703,0.0009989999999999721
1143998,15255,-5517,128133,4857,-1258,129758,184,19217,721,0,44704,0.0009999999999998899
1144998,14247,8240,125748,9007,12154,112991,155,19224,754,0,44705,0.001000000000000112
1145998,14788,2902,126573,2328,-9924,134041,155,19221,635,0,44706,0.0009999999999998899
1146998,15943,-11984,125020,7718,-6137,125410,174,19214,713,1,44707,0.001000000000000112
1147998,13334,-5186,127321,14973,-4514,131740,137,19227,561,1,44708,0.0009999999999998899
1148998,12758,1733,127968,-2399,10180,120867,157,19220,643,1,44709,0.001000000000000112
1149998,11700,5913,127342,432,-3277,128018,185,19220,643,0,44710,0.0009999999999998899
1150998,12251,-7932,127032,10548,-4964,132300,155,19220,758,0,44711,0.001000000000000112
1151998,13672,4744,130178,1162,7750,120297,155,19224,635,0,44712,0.0009999999999998899
1152998,12727,1427,128815,3251,-7951,129807,152,19223,623,0,44713,0.001000000000000112
1153998,9124,-5663,129379,3574,-5074,128272,215,19228,881,1,44714,0.0009999999999998899
1155000,9783,-8989,129636,761,-13225,135516,153,19220,627,1,44715,0.0010020000000001694
1155998,6791,-1304,130186,-11772,4816,124962,167,19220,684,1,44716,0.0009979999999998324
1156998,10888,6492,129413,5734,1935,126097,221,19220,684,0,44717,0.001000000000000112
1157998,7475,5224,130239,9625,6305,128765,158,19219,905,0,44718,0.0009999999999998899
1158998,5242,1583,127769,-17546,-3233,126037,158,19221,647,0,44719,0.001000000000000112
1159998,7654,-10897,129752,-11625,-4651,131121,163,19211,668,1,44720,0.0009999999999998899
1160998,6685,-4920,131422,17607,-9521,131746,163,19226,668,1,44721,0.001000000000000112
1161998,730,-5288,130188,-3110,-514,128277,164,19226,672,1,44722,0.0009999999999998899
1162998,-3391,4186,130132,-32427,237,129903,192,19225,672,0,44723,0.001000000000000112
1163999,1127,4820,130193,-3817,10842,122427,157,19213,786,0,44724,0.0010010000000000296
1164998,10847,17183,129828,4626,12008,123242,157,19221,643,0,44725,0.0009989999999999721
1165998,9085,-2563,127690,-8660,-6812,128676,162,19220,664,0,44726,0.0009999999999998899
1166998,-343,-10589,126572,-7600,-13476,132459,204,19207,836,1,44727,0.001000000000000112
1167998,-1175,-10061,128631,-6702,-6158,133774,159,19207,651,1,44728,0.0009999999999998899
1168998,2949,11531,129867,-5843,14605,117807,171,19223,651,1,44729,0.001000000000000112
1170000,-1075,11534,129070,-11607,3565,129717,226,19218,700,0,44730,0.0010019999999999474
1170998,3744,-1928,126599,-8972,-5103,125849,226,19227,926,0,44731,0.0009980000000000544
1171998,2544,7964,127797,5903,6249,123405,168,19226,688,0,44732,0.0009999999999998899
1172998,10035,2890,126421,-14553,2365,123049,168,19221,688,1,44733,0.001000000000000112
1173998,9214,6814,127784,3551,4585,121498,169,19229,692,1,44734,0.0009999999999998899
1174998,8433,-10602,125856,9724,-14402,139249,161,19229,692,1,44735,0.001000000000000112
1175998,5183,-841,124553,-21210,4404,119555,184,19224,659,1,44736,0.0009999999999998899
1176998,3723,4856,127214,2955,2338,127220,184,19216,754,0,44737,0.001000000000000112
1177998,7837,6897,124867,2503,8440,122896,196,19224,803,0,44738,0.0009999999999998899
1178998,14476,7749,126071,-4404,5471,121807,158,19221,647,0,44739,0.001000000000000112
1179999,13283,-3724,123191,9326,-3992,129132,182,19217,745,1,44740,0.0010010000000000296
1180998,12982,-3287,122935,9700,-4705,127366,149,19217,745,1,44741,0.0009989999999999721
1181998,9669,-2192,125275,3858,-908,125791,173,19221,610,1,44742,0.0009999999999998899
1182998,10816,12497,129117,-5672,11384,127275,173,19222,709,0,44743,0.001000000000000112
1183999,12081,-2396,126692,5316,-2315,128476,211,19222,864,0,44744,0.0010010000000000296
1184998,11603,6264,129882,9729,4911,120492,166,19222,680,0,44745,0.0009989999999999721
1185999,14590,-4130,124941,2894,-12998,131413,158,19216,647,0,44746,0.0010010000000000296
1186998,17499,-10021,124781,5881,1888,122513,230,19216,647,1,44747,0.0009989999999999721
1187998,15724,4940,127543,18045,759,127438,150,19228,942,1,44748,0.0009999999999998899
1188998,17740,2505,128076,1540,6072,123244,150,19224,614,1,44749,0.001000000000000112
1189999,11893,3186,128607,11159,-6847,131909,165,19215,676,0,44750,0.0010010000000000296
1190998,6867,-9273,128842,3514,-9577,134275,181,19224,741,0,44751,0.0009989999999999721
1191999,11960,-4229,127723,-866,1257,121862,159,19228,651,0,44752,0.0010010000000000296
1192998,9764,4904,129870,9287,2008,125158,176,19228,651,1,44753,0.0009989999999999721
1193998,13567,3267,126926,-5465,-517,127001,143,19207,721,1,44754,0.0009999999999998899
1194998,11045,-4196,129084,3484,-3499,129074,143,19227,586,1,44755,0.001000000000000112
1196000,8473,-1206,130569,-2473,-11719,135229,159,19223,651,1,44756,0.0010019999999999474
1196998,7394,-8240,128879,3896,7861,117939,196,19210,803,0,44757,0.0009980000000000544
1197999,6197,14349,133992,833,-1416,138739,161,19224,659,0,44758,0.0010010000000000296
1199000,7156,-16455,126765,-16099,-6334,124664,157,19224,643,0,44759,0.0010009999999998076
1199998,10239,16108,131507,-5944,13930,118150,214,19220,643,1,44760,0.0009980000000000544
1200998,7409,-6494,129819,24195,-16915,140766,153,19223,876,1,44761,0.001000000000000112
1201998,-5231,-11227,128508,-23605,-7664,124546,153,19221,627,1,44762,0.0009999999999998899
1202998,461,-7343,129991,-16945,-5360,137781,173,19217,709,0,44763,0.001000000000000112
1203998,296,16289,130262,-326,30686,110666,207,19222,848,0,44764,0.0009999999999998899
1204998,12093,17757,128308,-1472,3757,131086,170,19222,696,0,44765,0.001000000000000112
1205998,5139,-14825,124768,-12922,-12820,129515,174,19224,696,0,44766,0.0009999999999998899
1206998,2662,-4038,125164,-7540,-4852,127474,194,19212,713,1,44767,0.001000000000000112
1207998,2550,-4117,129994,-2915,256,129351,194,19227,795,1,44768,0.0009999999999998899
1209005,3609,11445,130614,-3579,6728,124075,161,19223,659,1,44769,0.0010069999999999801
1209999,1759,-7092,127132,-12506,-9176,135781,188,19206,770,0,44770,0.0009940000000001614
1210998,-3617,11438,126968,-15535,14808,113437,151,19206,618,0,44771,0.0009989999999999721
1211998,10682,3740,126624,2080,-4160,131334,165,19225,618,0,44772,0.0009999999999998899
1212998,7952,2684,123832,10049,7926,119034,205,19221,676,1,44773,0.001000000000000112
1213998,6229,5167,127097,-15255,-1916,127257,205,19224,840,1,44774,0.0009999999999998899
1215001,8922,-4362,123571,-662,-1851,125709,153,19224,627,1,44775,0.0010030000000000872
1215999,5847,2811,127062,4811,-4051,128750,171,19217,700,1,44776,0.0009980000000000544
1216998,7349,-10098,124906,-1763,-6781,129476,228,19217,934,0,44777,0.0009989999999999721
1218000,2732,20997,127152,-8521,21746,111245,163,19217,934,0,44778,0.0010019999999999474
1219000,16926,-421,126753,4811,-5639,134795,159,19224,668,0,44779,0.0009999999999998899
1220000,15122,864,121904,11166,3038,117707,159,19215,651,1,44780,0.001000000000000112
1220998,11418,-2824,124444,5816,-7100,131111,166,19224,680,1,44781,0.0009980000000000544
1221998,11069,-330,126331,4433,3462,118748,173,19215,709,1,44782,0.0009999999999998899
1222998,10138,4079,127915,1128,-1181,130958,187,19220,766,0,44783,0.001000000000000112
1223998,13255,-5374,126973,2840,-1489,130528,155,19220,766,0,44784,0.0009999999999998899
1224998,12032,13515,126101,8167,11956,114108,156,19224,635,0,44785,0.001000000000000112
1225998,16546,-5229,125266,2042,-6457,133038,156,19225,639,0,44786,0.0009999999999998899
1227000,16144,-3621,126632,8715,-6155,124197,187,19212,766,1,44787,0.0010019999999999474
1227998,14484,-7740,128027,14842,-6068,128477,137,19225,561,1,44788,0.0009980000000000544
1228999,13183,8518,130475,35,9870,118699,158,19221,647,1,44789,0.0010010000000000296
1229998,11504,587,127187,2353,-3868,139430,200,19221,647,0,44790,0.0009989999999999721
1230998,10696,-6616,127774,6385,-7023,121791,160,19221,819,0,44791,0.001000000000000112
1231998,12362,7415,129696,1577,1647,127597,160,19225,655,0,44792,0.0009999999999998899
1232998,13587,-687,129104,2258,-1928,123934,156,19218,639,1,44793,0.001000000000000112
1233998,8685,-1210,128780,6800,-8276,133623,229,19229,938,1,44794,0.0009999999999998899
1234999,9540,-14891,128695,-565,-10826,132780,155,19222,635,1,44795,0.0010010000000000296
1235998,8086,2895,129363,-9379,7784,122790,171,19222,635,1,44796,0.0009989999999999721
1236998,8733,266,128109,11485,5360,128440,187,19215,700,0,44797,0.001000000000000112
1237998,8223,10265,130804,-5855,1970,124195,187,19225,766,0,44798,0.0009999999999998899
1238998,7688,-2270,128895,-15533,-6648,131453,157,19224,643,0,44799,0.001000000000000112
1240000,11171,-4008,129497,1576,-5240,125773,176,19215,721,1,44800,0.0010019999999999474
1240998,6163,-6629,130667,9838,-9839,135130,132,19228,541,1,44801,0.0009980000000000544
1241998,-2648,-3638,132389,-14192,-2026,129363,165,19228,541,1,44802,0.0009999999999998899
1242998,-1712,1487,129375,-20786,83,128518,199,19220,676,0,44803,0.001000000000000112
1243998,3917,11013,130760,-3671,17012,120664,199,19214,815,0,44804,0.0009999999999998899
1244998,9649,16191,128835,5897,5270,123872,163,19224,668,0,44805,0.001000000000000112
1245998,7833,-7302,125817,-10210,-12299,131853,162,19224,664,0,44806,0.0009999999999998899
1246998,-2674,-11227,127427,-14284,-10859,132273,224,19218,917,1,44807,0.001000000000000112
1247998,2057,-4755,129774,-1754,340,127042,156,19218,639,1,44808,0.0009999999999998899
1248999,2699,14019,130742,-2454,14973,122654,168,19223,639,1,44809,0.0010010000000000296
1249998,388,628,126260,-17693,-5426,131263,223,19215,688,0,44810,0.0009989999999999721
1250998,-280,381,125044,-4087,4750,121851,223,19224,913,0,44811,0.001000000000000112
1251998,7248,8598,128213,-2731,4608,124834,169,19223,692,0,44812,0.0009999999999998899
1252998,12021,4197,125940,5067,4583,121008,174,19216,713,1,44813,0.0009999999999998899
1253998,2851,2137,127664,-2486,-6984,132042,144,19216,590,1,44814,0.001000000000000112
1254998,6100,-11757,123656,-8862,-6768,129009,167,19222,590,1,44815,0.0009999999999998899
1255998,6081,8671,126776,2184,11089,120595,193,19220,684,1,44816,0.001000000000000112
1256998,6973,5695,126503,858,2161,128548,193,19207,790,0,44817,0.0009999999999998899
1257998,8157,4416,125627,-9985,5510,118730,161,19227,659,0,44818,0.001000000000000112
1258998,13924,746,126177,13609,-1825,130014,153,19225,627,0,44819,0.0009999999999998899
1259998,14033,1594,123252,9680,-532,121419,196,19225,803,1,44820,0.001000000000000112
1260998,11790,867,124567,-4174,-7505,123917,153,19225,803,1,44821,0.0009999999999998899
1261998,13398,1546,128566,9714,-163,127798,174,19220,627,1,44822,0.001000000000000112
1262998,11663,6408,128305,2889,4632,124126,174,19220,713,0,44823,0.0009999999999998899
1263999,7739,1360,128912,-5331,-1443,130266,223,19227,913,0,44824,0.0010010000000000296
1264998,11154,-2790,126027,10339,-3694,125942,159,19223,651,0,44825,0.0009989999999999721
1265998,15638,-2724,124920,8992,-809,125854,159,19217,651,0,44826,0.001000000000000112
1266998,18213,-1872,124729,4937,-1368,123508,200,19217,651,1,44827,0.0009999999999998899
1267998,16948,118,126371,12661,-248,125184,172,19227,819,1,44828,0.001000000000000112
1268998,15225,373,128531,265,1290,128483,172,19221,704,1,44829,0.0009999999999998899
1269998,12175,1097,128728,2026,-1358,127929,181,19215,741,0,44830,0.001000000000000112
1270999,6103,-5348,128167,8338,-7355,133363,155,19219,635,0,44831,0.0010010000000000296
1271998,10309,-2798,128060,-1112,-2314,125909,155,19224,635,0,44832,0.0009989999999999721
1272998,13525,4172,128392,5769,4322,123235,188,19224,635,1,44833,0.0009999999999998899
1273998,13003,2581,128679,2690,2231,126805,139,19214,770,1,44834,0.001000000000000112
1274998,11306,-575,131016,465,-2429,129089,139,19225,569,1,44835,0.0009999999999998899
1276001,7588,-7474,128117,-5282,-9828,129669,161,19225,659,1,44836,0.0010030000000000872
1276999,5715,2896,131728,6182,3901,125420,204,19210,836,0,44837,0.0009980000000000544
1277998,7101,3818,130941,1209,-46,140179,158,19225,647,0,44838,0.0009989999999999721
1279001,8771,-12980,128597,-12243,15004,111928,156,19225,647,0,44839,0.0010029999999998651
1279998,13152,20443,133230,-8031,-3674,133322,218,19220,639,1,44840,0.0009970000000001367
1280998,5373,-14258,127390,16150,-13477,131827,218,19231,893,1,44841,0.0009999999999998899
1281998,-4206,-6516,130753,-12576,-6672,134094,159,19222,651,1,44842,0.001000000000000112
1282998,2091,-8598,129234,-20705,7885,124002,177,19213,725,0,44843,0.0009999999999998899
1283998,776,30060,129911,-2746,31952,112761,186,19220,762,0,44844,0.001000000000000112
1284998,9424,4347,129725,570,-21691,142465,165,19220,762,0,44845,0.0009999999999998899
1285998,3494,-17459,122291,-10033,-5828,119134,182,19220,676,0,44846,0.001000000000000112
1286998,3521,2996,130356,-9256,-3242,134074,182,19208,745,1,44847,0.0009999999999998899
1287998,2352,-314,130918,-4963,3887,120261,165,19226,676,1,44848,0.001000000000000112
1288998,3940,9745,131717,-3951,-3893,137183,163,19224,668,1,44849,0.0009999999999998899
1289999,-1514,-8997,126959,-14808,1264,124295,198,19217,811,0,44850,0.0010010000000000296
1290998,-2156,20741,128130,-10847,14675,116083,168,19217,688,0,44851,0.0009989999999999721
1291998,9832,-5675,126343,8390,-11146,137278,164,19226,688,0,44852,0.001000000000000112
1292998,8293,4849,126210,954,12133,112381,220,19224,672,1,44853,0.0009999999999998899
1293998,7525,4053,126692,-13279,-4613,133120,220,19226,901,1,44854,0.001000000000000112
1294999,7929,-3626,125903,2819,8947,119597,157,19222,643,1,44855,0.0010010000000000296
1295998,7737,-855,126955,2716,-15212,140006,174,19216,713,1,44856,0.0009989999999999721
1296998,4586,-9949,123180,-7804,9717,117449,241,19216,987,0,44857,0.0009999999999998899
1297998,5917,24482,128205,-4720,13569,118214,165,19224,987,0,44858,0.001000000000000112
1299000,15273,-7920,123970,7912,-8603,133420,166,19224,676,0,44859,0.0010019999999999474
1299998,15964,5481,124102,6576,5160,117210,166,19212,680,1,44860,0.0009980000000000544
1300999,10593,-3738,124224,8260,-7434,131794,135,19225,553,1,44861,0.0010010000000000296
1301998,10289,5362,125726,-1387,7316,116051,166,19221,680,1,44862,0.0009989999999999721
1302998,11159,-1597,128746,4068,-10070,139997,190,19221,778,0,44863,0.0009999999999998899
1303998,12433,-3689,127002,6526,5938,120840,159,19217,778,0,44864,0.001000000000000112
1305006,11153,15417,127361,7442,7351,120638,156,19224,651,0,44865,0.0010079999999998979
1306000,16113,-11255,124926,2695,-14339,130985,156,19217,639,0,44866,0.0009940000000001614
1307000,17492,-3189,126212,12699,-3027,124165,201,19215,823,1,44867,0.0009999999999998899
1308000,12728,-2768,128673,10742,-1398,131488,143,19223,586,1,44868,0.001000000000000112
1308999,14655,8537,128481,-7557,8175,117879,161,19219,659,1,44869,0.0009989999999999721
1309998,11573,-7233,126836,8731,-12760,137452,216,19219,659,0,44870,0.0009989999999999721
1310998,11691,-3528,126839,6644,2150,126327,164,19225,885,0,44871,0.0009999999999998899
1311999,12811,8872,130236,759,4598,122283,164,19224,672,0,44872,0.0010010000000000296
1312998,11912,-2848,127962,3304,-3645,127941,166,19217,680,1,44873,0.0009989999999999721
1313998,9634,-1950,128991,2871,-4311,128167,199,19230,815,1,44874,0.001000000000000112
1314998,6489,-11070,127451,-2206,-10436,133567,157,19224,643,1,44875,0.0009999999999998899
1315999,9250,4872,131064,-8643,6138,124922,178,19224,643,1,44876,0.0010010000000000296
1316998,5291,-746,129156,10343,-2879,129269,181,19216,729,0,44877,0.0009989999999999721
1317998,9065,9514,131299,-2497,11292,127182,181,19231,741,0,44878,0.001000000000000112
1318998,10187,-2682,130683,-14941,-5725,128252,159,19223,651,0,44879,0.0009999999999998899
1319998,10346,-4110,129165,-1688,-5139,127032,188,19215,770,1,44880,0.001000000000000112
1320998,4656,-3485,130040,10373,-8045,133694,141,19224,577,1,44881,0.0009999999999998899
1321998,-5460,-8533,129471,-6720,-9677,129926,169,19224,577,1,44882,0.001000000000000112
1323000,-580,2538,128299,-27475,2398,124228,213,19219,692,0,44883,0.0010019999999999474
1324000,3490,11772,129128,-4073,13252,122339,213,19220,872,0,44884,0.0009999999999998899
1324998,7975,16016,127868,5274,12631,124595,168,19222,688,0,44885,0.0009980000000000544
1325998,6949,-8481,125865,-9763,-17295,133812,168,19214,688,0,44886,0.001000000000000112
1326998,-176,-14411,127152,-11959,-5798,131756,243,19225,995,1,44887,0.0009999999999998899
1328001,2674,1183,131534,-4785,3302,123208,156,19225,995,1,44888,0.0010030000000000872
1328998,2183,9826,130130,983,9398,128427,170,19223,639,1,44889,0.0009969999999999146
1330000,1805,2423,126785,-15204,-3719,127298,170,19218,696,0,44890,0.0010019999999999474
1330999,-524,1777,124371,-6230,6500,121860,188,19220,770,0,44891,0.0009990000000001942
1331998,10301,10039,128215,1499,7679,123645,166,19224,680,0,44892,0.0009989999999999721
1332999,11290,3836,126215,7294,-2671,123359,182,19212,745,1,44893,0.0010010000000000296
1333998,2104,-1498,126146,-11609,-5940,131321,125,19212,745,1,44894,0.0009989999999999721
1334998,7550,-3987,124845,-1225,756,125980,167,19228,512,1,44895,0.0009999999999998899
1335998,5923,5757,126910,6707,5736,125236,167,19220,684,1,44896,0.001000000000000112
1336998,6798,2535,126636,-11090,-471,126482,197,19210,807,0,44897,0.0009999999999998899
1337998,7936,2179,125771,-188,4999,119527,155,19227,635,0,44898,0.001000000000000112
1339000,13881,7162,126775,9460,6114,127194,153,19220,627,0,44899,0.0010019999999999474
1339998,16428,-4156,121809,3995,-4784,125122,211,19220,864,1,44900,0.0009980000000000544
1340998,10847,-403,124604,8377,420,124928,161,19234,864,1,44901,0.0009999999999998899
1341998,10536,-266,126210,183,-4199,129800,177,19224,659,1,44902,0.001000000000000112
1342998,11696,94,126823,2658,3555,123480,177,19213,725,0,44903,0.0009999999999998899
1344000,11192,6409,127547,7546,3224,128221,200,19220,819,0,44904,0.0010019999999999474
1344998,11933,173,125379,737,1710,123159,158,19226,647,0,44905,0.0009980000000000544
1345998,18373,3373,126392,9241,-776,124450,162,19226,664,0,44906,0.001000000000000112
1346998,14542,-7549,125955,15820,-8747,132656,172,19215,664,1,44907,0.0009999999999998899
1347998,14138,-7266,126335,-1281,-4110,124885,161,19229,704,1,44908,0.001000000000000112
1348998,13222,1330,129561,483,2159,127395,161,19222,659,1,44909,0.0009999999999998899
1349999,14485,2945,127548,11407,2663,127963,182,19209,745,0,44910,0.0010010000000000296
1350999,11069,5712,128282,-1479,-2001,124550,146,19229,598,0,44911,0.0009999999999998899
1352001,11381,-570,129250,386,-5918,128892,151,19222,618,0,44912,0.0010020000000001694
1352998,13068,-2661,128051,9752,-3932,125481,196,19222,618,1,44913,0.0009969999999999146
1353998,7707,-3428,129972,-1706,-6729,131707,159,19213,803,1,44914,0.001000000000000112
1354998,8546,-2253,130064,-2752,-1599,128598,159,19226,651,1,44915,0.0009999999999998899
1355998,6879,-1991,129746,-3039,-5811,133131,173,19215,709,1,44916,0.001000000000000112
1356998,5970,-1276,128581,822,6739,117715,223,19223,913,0,44917,0.0009999999999998899
1357998,12265,16695,131497,4279,5557,132468,159,19224,651,0,44918,0.001000000000000112
1358998,6342,-21827,124231,-6900,-15058,131306,157,19224,651,0,44919,0.0009999999999998899
1359998,11866,17574,132999,-20507,15516,116371,189,19216,643,1,44920,0.001000000000000112
1360998,7357,-14302,128089,27712,-18677,141701,189,19228,774,1,44921,0.0009999999999998899
1361998,-6483,-2106,130250,-10615,-2088,124963,162,19221,664,1,44922,0.001000000000000112
1362999,2020,-8732,128697,-27151,-8424,140035,183,19211,750,0,44923,0.0010009999999998076
1363998,-2410,22104,129791,-1428,31371,106826,174,19226,713,0,44924,0.0009990000000001942
1364998,13637,24793,131700,955,14034,126146,162,19226,713,0,44925,0.0009999999999998899
1365998,5133,-19986,125402,-5245,-20426,133702,189,19221,664,0,44926,0.001000000000000112
1366998,190,-5899,128211,-10588,-7530,127303,189,19208,774,1,44927,0.0009999999999998899
1367999,2010,-7535,131528,-6024,-6214,134685,149,19227,610,1,44928,0.0010010000000000296
1368998,2865,14815,131938,-2920,14786,130936,166,19214,680,1,44929,0.0009989999999999721
1369998,4233,-5676,127233,-8320,-9133,127502,205,19217,840,0,44930,0.0009999999999998899
1370998,-4161,14599,124234,-14191,14678,112824,166,19217,840,0,44931,0.001000000000000112
