t_us,ax,ay,az,ax1,ay1,az1,shunt_raw,bus_raw,curr_raw,pg_rpm,seq,dt
0,-3383,-17967,133559,135,-12296,138491,397,19170,1626,0,15947,
998,-2356,-1589,134035,6486,2013,130690,424,19170,1626,1,15948,0.000998
1998,1855,-550,134464,-14791,-14761,143993,353,19199,1737,0,15949,0.0009999999999999998
2998,8651,-3459,127776,19726,14264,116117,353,19173,1446,0,15950,0.001
3998,-519,17583,132065,-30052,-5360,134823,381,19180,1560,1,15951,0.001
4998,13565,-10586,130050,19771,3890,126008,245,19187,1003,1,15952,0.001
5999,-4667,9040,134136,17753,-12718,133180,453,19173,1855,0,15953,0.0010010000000000002
6998,-1257,-23845,119277,-32417,-9957,126666,428,19173,1855,1,15954,0.0009989999999999999
7998,-6839,20020,129227,7848,20160,111733,265,19184,1753,1,15955,0.001
8998,12137,6306,124098,19670,-7391,126910,265,19189,1085,0,15956,0.0009999999999999992
9998,10394,12868,119139,2364,29198,93715,350,19171,1433,0,15957,0.0010000000000000009
10998,-5474,22187,127851,-22120,-5811,130700,470,19187,1925,1,15958,0.0009999999999999992
11998,6755,-17824,117574,6972,-9531,124129,297,19174,1216,0,15959,0.0010000000000000009
12998,-4908,11072,125624,4047,5659,120731,360,19174,1474,0,15960,0.0009999999999999992
13998,-343,1530,128695,-13234,-2478,126416,315,19177,1474,1,15961,0.0010000000000000009
14998,-435,5834,125934,3974,3321,116674,360,19192,1290,1,15962,0.0009999999999999992
15999,1102,-745,127649,-15945,-3849,135965,360,19163,1474,0,15963,0.0010010000000000002
17000,4340,6008,129482,-565,9524,121993,410,19163,1679,1,15964,0.0010009999999999984
18000,-7830,11383,129936,283,-3659,133009,273,19197,1118,1,15965,0.0010000000000000009
19000,1252,-5635,134224,-10370,-9476,139944,342,19197,1401,0,15966,0.0010000000000000009
19998,-5404,-7998,134964,-525,-16358,142875,420,19182,1401,1,15967,0.0009979999999999989
20998,-2748,-15219,132972,-9977,-9165,138303,257,19161,1720,1,15968,0.0010000000000000009
21998,9426,7084,134775,6459,5760,127957,257,19192,1053,0,15969,0.0010000000000000009
22998,2382,5023,129089,12848,-43,130566,400,19177,1638,0,15970,0.0009999999999999974
23998,5163,4214,129069,-33250,1098,125504,397,19205,1626,1,15971,0.0010000000000000009
24998,14965,2921,134959,21662,1718,131680,297,19205,1216,0,15972,0.0010000000000000009
25998,-1443,-2246,131075,23737,-8786,129902,423,19171,1216,0,15973,0.0010000000000000009
26998,-6398,-12778,123466,-40647,-13906,127099,474,19176,1732,1,15974,0.0009999999999999974
27998,-6193,5818,127855,7928,4368,124247,474,19203,1941,1,15975,0.0010000000000000009
28998,13470,16957,123581,22675,15342,109113,303,19180,1241,0,15976,0.0010000000000000009
29999,718,26687,123034,-3349,24816,101609,406,19168,1663,1,15977,0.0010009999999999984
30998,-776,4975,124213,-13553,-8508,128240,438,19201,1794,1,15978,0.0009989999999999999
31998,1573,-17196,117961,2693,-13870,126448,361,19201,1794,0,15979,0.0010000000000000009
32998,-4383,12212,127756,-371,9863,119110,389,19178,1479,1,15980,0.0010000000000000009
33998,3038,6659,127268,-7753,-874,124026,389,19183,1593,1,15981,0.0010000000000000009
34998,-4198,-1765,124660,1565,-2893,123623,262,19192,1073,0,15982,0.0010000000000000009
35999,6978,2790,127522,-20290,1914,130260,472,19182,1933,0,15983,0.001000999999999995
36998,299,7627,127870,5620,6812,123848,416,19192,1704,1,15984,0.0009989999999999999
38001,-2844,11672,130277,-479,2210,128915,262,19192,1704,1,15985,0.0010030000000000039
38998,1764,-8649,133269,-16776,-16125,144007,346,19185,1073,0,15986,0.0009969999999999979
39998,-4433,-10028,136147,6367,-11146,139999,346,19172,1417,1,15987,0.0010000000000000009
40999,-4749,-8972,133999,-4027,-9163,138273,482,19188,1974,1,15988,0.0010010000000000019
41998,3614,-470,132365,-9083,-2921,131478,302,19173,1237,0,15989,0.0009989999999999999
42998,2600,11176,131834,16260,8763,125323,365,19173,1495,1,15990,0.0010000000000000009
44005,7929,9733,129175,-24506,2392,129567,314,19173,1495,1,15991,0.001006999999999994
45001,14758,3149,135237,15250,3274,131066,347,19196,1286,0,15992,0.0009960000000000038
45999,-6084,-10208,129402,26887,-26933,135795,347,19165,1421,0,15993,0.0009979999999999989
47000,-6510,-16455,121750,-38529,7205,118389,414,19167,1696,1,15994,0.0010010000000000019
48000,-4301,20482,130982,4647,10807,122914,298,19200,1221,0,15995,0.0010000000000000009
48998,16262,10885,118865,19735,19989,102276,337,19177,1380,0,15996,0.0009979999999999989
49998,488,27732,122746,-429,18174,109585,421,19177,1380,1,15997,0.0010000000000000009
50998,536,-85,123645,-9776,-21648,134590,256,19151,1724,1,15998,0.000999999999999994
51998,6327,-15272,117990,11184,-829,117584,256,19189,1049,0,15999,0.0010000000000000009
52998,-4824,11708,129123,-7497,4906,126112,387,19177,1585,1,16000,0.0010000000000000009
53998,1872,3835,124493,-10859,1410,120547,406,19206,1663,1,16001,0.0010000000000000009
54998,-2308,4169,124165,4725,2647,124391,310,19174,1270,0,16002,0.0010000000000000009
55998,3863,3722,128011,-16775,4365,128609,437,19174,1790,0,16003,0.0010000000000000009
57000,-549,8476,126744,-544,5716,123165,428,19177,1790,1,16004,0.001001999999999996
58001,-1181,7249,131770,359,-8242,140515,296,19205,1753,0,16005,0.0010010000000000019
58998,3897,-11741,132416,-4808,-14883,139969,296,19181,1212,0,16006,0.0009969999999999979
59998,-7208,-6459,135085,-6953,-6828,137831,412,19166,1687,1,16007,0.0010000000000000009
60998,-1874,-6590,135149,-6661,-7828,139298,412,19197,1687,1,16008,0.0010000000000000009
61998,5312,1689,132841,12657,-1212,131313,367,19197,1503,0,16009,0.0010000000000000009
62998,1323,9303,130664,7017,7859,124975,387,19184,1503,1,16010,0.0010000000000000009
63998,410,8088,129944,-34355,-3936,130477,289,19189,1585,1,16011,0.0010000000000000009
64998,18488,-4747,131012,31076,-2451,131878,289,19181,1184,0,16012,0.0010000000000000009
65998,-4659,-611,131787,18593,-9396,129204,485,19176,1986,0,16013,0.0010000000000000009
66998,-3605,-8410,121443,-41758,-3826,121266,430,19184,1761,1,16014,0.0010000000000000009
67998,-3665,16547,128816,16480,8469,122362,264,19184,1081,0,16015,0.0010000000000000009
68998,16978,7088,119230,16555,7155,113207,350,19191,1081,0,16016,0.0010000000000000009
69998,1352,25202,122292,-4749,26647,99590,483,19171,1433,1,16017,0.000999999999999987
70998,-4713,5964,125887,-13548,-13373,133220,483,19189,1978,1,16018,0.0010000000000000009
71998,5277,-19492,117074,6141,-13374,125039,324,19174,1327,0,16019,0.0010000000000000009
72998,-5833,14134,127519,1034,12018,119121,367,19178,1503,1,16020,0.0010000000000000009
73998,4194,12112,126465,-7273,6282,120494,312,19192,1278,1,16021,0.0010000000000000009
74999,-5652,967,122575,-5900,-4054,125104,361,19192,1278,0,16022,0.0010010000000000019
75999,8260,-2638,127687,-15592,-577,132418,415,19165,1479,0,16023,0.0010000000000000009
77003,-1164,9099,128854,15244,7105,122955,415,19166,1700,1,16024,0.0010040000000000049
77998,-2832,8893,130370,-13316,-2837,132826,267,19201,1094,0,16025,0.0009949999999999959
78998,6138,-9359,133924,-14261,-16436,147495,330,19177,1352,0,16026,0.0010000000000000009
79998,-6912,-10941,134954,13621,-10452,139116,418,19168,1712,1,16027,0.0010000000000000009
80999,-1008,842,134720,-14213,-2332,132044,269,19168,1712,1,16028,0.0010010000000000019
81998,666,480,133461,11843,-3346,131985,389,19183,1102,0,16029,0.0009989999999999999
82998,4081,5846,129318,3991,-5189,133964,389,19177,1593,1,16030,0.0010000000000000009
83998,9807,4008,128562,-25321,6353,123928,413,19207,1692,1,16031,0.000999999999999987
84998,-439,19653,136557,31584,10875,125815,311,19170,1274,0,16032,0.0010000000000000009
85998,-956,-21561,122693,75,-27826,138912,429,19176,1757,0,16033,0.0010000000000000009
86998,-11102,-10993,124558,-24950,-9008,125019,458,19176,1757,1,16034,0.0010000000000000009
87998,10584,11020,124706,16522,6787,123852,293,19208,1876,0,16035,0.0010000000000000009
88998,13124,27536,120051,11330,28991,97785,293,19177,1200,0,16036,0.0010000000000000009
89998,1624,21151,125604,-12151,13145,129751,400,19168,1638,1,16037,0.0010000000000000009
90998,114,-13506,119611,1601,-17331,125250,405,19195,1659,1,16038,0.0010000000000000009
91998,-4156,-2616,120940,-1218,-2678,118585,385,19185,1577,0,16039,0.0010000000000000009
92998,1671,15804,128436,-8365,8160,121882,387,19185,1577,1,16040,0.0010000000000000009
93998,-4062,8181,124973,3419,-1972,124873,282,19190,1585,1,16041,0.0010000000000000009
94998,644,-2473,124525,-13836,-1127,129779,282,19183,1155,0,16042,0.0010000000000000009
95998,239,6134,130506,-11983,1056,127997,462,19177,1892,0,16043,0.0010000000000000009
96998,-5423,656,126759,12954,-4702,128906,433,19191,1773,1,16044,0.0010000000000000009
97999,3900,3091,128499,-17194,605,133255,262,19187,1073,0,16045,0.001000999999999988
98998,4906,2781,133773,6853,-1230,139464,341,19187,1073,0,16046,0.0009989999999999999
99999,4388,-3039,133295,-4064,-8843,136638,489,19170,1397,1,16047,0.0010010000000000019
100998,-9196,-6833,135190,-9053,-12493,138967,313,19201,2003,1,16048,0.0009989999999999999
102000,7670,-12875,132033,21980,-12853,136699,313,19173,1282,0,16049,0.0010020000000000029
102998,-6329,9067,128954,-10692,8914,124122,373,19173,1528,1,16050,0.0009979999999999989
103998,6218,5778,129461,-26843,2262,131295,279,19199,1143,1,16051,0.0010000000000000009
104998,12785,16457,133701,52800,15514,121083,364,19199,1491,0,16052,0.0010000000000000009
105998,-8201,-2771,125108,-9885,-20895,131454,411,19166,1491,0,16053,0.0010000000000000009
106999,-910,-11298,123849,-29979,-3220,122336,234,19169,1683,1,16054,0.0010010000000000019
107998,2005,1151,126083,25738,-7859,130948,234,19199,958,0,16055,0.0009989999999999999
108998,16212,7945,117623,4708,29904,97630,337,19170,1380,0,16056,0.0010000000000000009
109998,-9511,42438,128466,-15687,24495,109299,438,19164,1794,1,16057,0.0010000000000000009
110998,907,-9523,120173,-4877,-24737,138371,280,19164,1147,1,16058,0.0010000000000000009
111998,2931,-7168,119572,13118,3589,113163,386,19187,1147,0,16059,0.0010000000000000009
112999,-1740,14888,127797,-7759,7239,122593,400,19179,1581,1,16060,0.001000999999999988
113998,3047,6077,125896,-1850,-420,122230,400,19204,1638,1,16061,0.0009989999999999999
114998,-6270,-6511,126005,-6881,-8284,134058,335,19167,1372,0,16062,0.0010000000000000009
115998,3767,2526,129981,-5992,3971,130869,408,19175,1671,1,16063,0.0010000000000000009
116998,-9001,10597,127626,56,9436,117397,375,19175,1536,1,16064,0.0010000000000000009
117998,2979,9618,131520,-19479,-2008,138307,301,19208,1536,0,16065,0.0010000000000000009
118998,7237,-13194,132631,1262,-17088,147396,407,19178,1233,0,16066,0.0010000000000000009
119998,-4202,-7758,133192,10414,-5063,133110,407,19165,1667,1,16067,0.0010000000000000009
120998,1102,-3567,133348,-11021,-8277,136421,378,19195,1548,0,16068,0.0010000000000000009
121999,-394,-1835,131861,15388,-2140,132719,389,19183,1593,0,16069,0.0010010000000000019
122998,3616,-388,125748,-14027,-5006,134601,381,19192,1560,1,16070,0.0009989999999999999
123998,8363,15073,131870,-7343,23125,115964,269,19192,1560,1,16071,0.0010000000000000009
124998,2445,14470,134090,36307,-382,131114,443,19182,1102,0,16072,0.0010000000000000009
125998,-2850,-26951,121091,-17624,-28837,135587,443,19176,1814,1,16073,0.0010000000000000009
126999,-6280,-5937,127856,-13656,-3477,125265,440,19186,1802,1,16074,0.0010010000000000019
127998,12462,12678,123524,20063,13094,117951,292,19187,1196,0,16075,0.0009989999999999999
128998,5266,33795,122121,-4490,33922,95209,364,19169,1491,0,16076,0.0010000000000000009
129999,1874,11946,123764,-7885,1065,125646,510,19169,1491,1,16077,0.0010010000000000019
130999,293,-11455,117315,10391,-13328,125652,318,19208,2089,0,16078,0.0010000000000000009
132000,-3091,1944,123913,1176,-405,117823,318,19176,1302,0,16079,0.0010010000000000019
132998,674,9514,129180,-18934,4793,122722,377,19180,1544,1,16080,0.0009979999999999989
133998,-507,2923,126698,6120,-550,129877,261,19198,1069,1,16081,0.0010000000000000009
135001,-3318,-2552,127028,8373,-2508,126545,377,19161,1544,0,16082,0.0010029999999999761
135998,-6509,6608,126889,-28690,3655,123950,408,19161,1544,1,16083,0.0009969999999999979
136998,-1150,8164,128842,-1454,6197,128268,229,19169,1671,1,16084,0.0010000000000000009
137998,7624,10386,133124,10164,4105,140309,229,19198,938,0,16085,0.0010000000000000009
138998,930,-14126,132704,-15309,-17695,141785,341,19176,1397,0,16086,0.0010000000000000009
139998,-2976,-13476,133710,-2236,-7160,137787,428,19173,1753,1,16087,0.0010000000000000009
140998,-5848,-2984,134001,1564,-9792,140598,277,19187,1135,0,16088,0.0010000000000000009
142000,8934,-3401,128703,8819,11611,119938,378,19187,1135,0,16089,0.0010020000000000029
142998,-1243,24041,134006,-8832,2982,130461,409,19173,1548,1,16090,0.0009979999999999989
143998,14395,-8793,126590,-15843,-1337,128437,409,19209,1675,1,16091,0.0010000000000000009
144998,33,10751,134511,24300,-4532,128805,312,19160,1278,0,16092,0.0010000000000000009
145998,-3614,-24018,122457,-33362,-24950,134991,386,19178,1581,1,16093,0.0010000000000000009
146999,-8794,5063,125738,3668,20035,110369,400,19205,1638,1,16094,0.0010010000000000019
147998,8388,17839,126115,12746,1714,125787,307,19205,1257,0,16095,0.0009989999999999999
148998,12760,12325,119217,7200,27801,97118,412,19184,1257,0,16096,0.0010000000000000009
149998,-6565,24147,125866,-13989,-2752,125357,401,19164,1687,1,16097,0.0010000000000000009
150998,7238,-18519,117820,-2621,-14501,126951,401,19196,1642,0,16098,0.0010000000000000009
151998,-517,7949,126226,11335,7746,118133,399,19183,1634,0,16099,0.0010000000000000009
152998,642,2597,127629,-11833,-6985,129684,388,19194,1589,1,16100,0.0010000000000000009
153999,-5737,4530,124889,-2368,8398,115356,282,19194,1155,1,16101,0.0010010000000000019
154998,-3401,4536,128108,-12537,-1389,134775,467,19187,1155,0,16102,0.0009989999999999999
156000,4044,5411,128162,-1324,9208,121131,434,19175,1913,1,16103,0.0010020000000000029
156999,-6258,14706,131553,-1806,-1351,130959,434,19188,1778,1,16104,0.0009989999999999999
157998,4036,-12617,131500,-10400,-19332,143061,303,19178,1241,0,16105,0.0009989999999999999
158998,-1586,-7559,135236,4220,-6207,136798,376,19169,1540,0,16106,0.0010000000000000009
159998,-3468,-10843,133861,-7596,-12228,144300,526,19169,2154,1,16107,0.0010000000000000009
160998,2058,2317,132795,-6165,4749,126871,321,19207,2154,0,16108,0.0010000000000000009
162001,3421,9160,130109,21550,4594,128549,382,19173,1315,0,16109,0.0010030000000000039
162998,1992,1011,128121,-25030,-5638,131063,382,19174,1565,1,16110,0.0009969999999999979
163998,15242,-2269,131883,4554,3672,126177,274,19200,1122,1,16111,0.0010000000000000009
164998,-384,3623,133225,43288,-5767,134439,372,19171,1524,0,16112,0.0010000000000000009
165998,-3395,-12238,122007,-38355,-10176,122127,411,19161,1683,1,16113,0.0009999999999999731
166998,-10340,8512,128999,-8791,3188,125905,252,19161,1683,1,16114,0.0010000000000000009
167998,12144,2551,121553,26358,3530,119499,347,19195,1032,0,16115,0.0010000000000000009
168999,7005,29117,121858,-799,34415,92634,347,19172,1421,0,16116,0.0010010000000000019
169998,-1939,14370,125973,-12757,-2545,128346,434,19177,1778,1,16117,0.0009989999999999999
170998,7936,-19006,116919,2529,-17835,127190,283,19189,1159,0,16118,0.0010000000000000009
171998,-5281,6356,125552,2950,5774,121106,391,19174,1601,0,16119,0.0010000000000000009
172998,2381,9126,129096,-9389,5325,121120,383,19174,1601,1,16120,0.0010000000000000009
173998,-6804,3102,125261,765,426,121841,317,19204,1569,1,16121,0.0010000000000000009
174998,4846,-2397,127589,-14305,-2898,134276,317,19160,1298,0,16122,0.0010000000000000009
175998,1944,10506,129778,5324,8629,121989,380,19174,1556,1,16123,0.0010000000000000009
177000,-7791,7154,128824,-4532,-709,128383,362,19205,1483,1,16124,0.0010020000000000029
178000,3318,-7056,134524,-17239,-12194,141022,305,19181,1249,0,16125,0.0010000000000000009
179000,-3260,-10910,135470,6110,-11353,143798,411,19181,1249,0,16126,0.0010000000000000009
180000,-3216,-3978,133946,225,-3711,135255,372,19166,1683,1,16127,0.0010000000000000009
180998,1632,1783,133589,-14016,-2140,132522,372,19191,1524,0,16128,0.0009979999999999989
181998,5814,520,128404,23959,-1959,131342,404,19177,1655,0,16129,0.0010000000000000009
182998,4301,3203,128779,-17109,-1513,129179,387,19186,1585,1,16130,0.0010000000000000009
183998,15716,3481,135193,-5454,5894,127832,291,19181,1192,1,16131,0.0010000000000000009
184998,-3759,1125,132124,43234,-4822,136035,456,19181,1192,0,16132,0.0010000000000000009
185999,-6002,-19304,120786,-31886,-19518,121140,446,19176,1868,1,16133,0.0010010000000000019
186998,-6347,15640,130469,-12007,8261,123619,446,19197,1827,1,16134,0.0009989999999999999
187998,12751,7079,121273,23760,11876,107373,271,19181,1110,0,16135,0.0010000000000000009
188999,7276,25479,122134,-610,23586,103060,370,19173,1515,0,16136,0.0010010000000000019
189998,-1355,7940,125786,-4154,-16321,135143,515,19203,2109,1,16137,0.0009989999999999999
190998,3970,-16367,117382,-3592,-4634,118750,324,19203,2109,0,16138,0.0010000000000000009
191998,-3015,10065,126594,-300,8626,123369,375,19176,1327,0,16139,0.0010000000000000009
192998,-719,7826,128541,-9830,856,121802,375,19181,1536,1,16140,0.0010000000000000009
194000,194,412,124565,-3560,-2233,122699,248,19196,1016,1,16141,0.0010019999999999751
194998,2297,1401,129081,-9134,4500,131330,389,19168,1593,0,16142,0.0009980000000000266
195998,819,6002,127729,-1471,565,125352,417,19170,1708,1,16143,0.0009999999999999731
196998,-6607,5360,129599,-4362,-2500,133013,240,19170,983,1,16144,0.0010000000000000009
197998,363,-1795,135587,-675,-10793,140890,337,19197,983,0,16145,0.0010000000000000009
198998,-4000,-7872,132565,-4837,-8687,136919,435,19171,1380,1,16146,0.0010000000000000009
199998,1426,-5263,134874,-13681,-4549,138245,435,19181,1782,1,16147,0.0010000000000000009
200998,3262,1119,135858,13499,-6962,136651,289,19182,1184,0,16148,0.0010000000000000009
201998,5912,-5061,125602,10817,2091,123257,382,19174,1565,0,16149,0.0010000000000000009
202998,-5458,12828,132219,-35387,2351,130001,365,19174,1495,1,16150,0.0010000000000000009
203998,20110,-10857,129108,17636,-5320,133152,329,19198,1495,0,16151,0.0010000000000000009
204998,204,10896,131680,30933,6382,121093,387,19151,1347,0,16152,0.0010000000000000009
205998,-4459,-7688,122876,-44135,-11647,127208,387,19169,1585,1,16153,0.0010000000000000009
206998,-2411,9855,126638,9205,6791,118929,389,19202,1593,1,16154,0.0010000000000000009
207998,9622,1675,123113,25976,-5804,124746,315,19178,1290,0,16155,0.0010000000000000009
208998,6663,15627,121059,-5065,27360,96859,413,19161,1692,1,16156,0.0010000000000000009
209998,-8724,21994,127430,-16673,2176,123991,339,19161,1692,1,16157,0.0010000000000000009
211000,8061,-18367,117112,74,-15605,130139,415,19197,1388,0,16158,0.0010020000000000029
211998,-4410,11916,125435,5776,10092,116371,415,19185,1700,1,16159,0.0009979999999999989
212998,2672,7085,127244,-5794,72,123933,383,19191,1569,1,16160,0.0010000000000000009
213998,22,3708,125025,-5683,682,119483,282,19183,1155,0,16161,0.0010000000000000009
215000,5085,-5483,127691,-14438,-8353,137980,434,19170,1778,0,16162,0.0010020000000000029
215999,940,4356,128304,11278,6932,123642,448,19170,1778,1,16163,0.0009989999999999999
216998,-11094,15044,130254,-13473,3827,127251,271,19204,1835,1,16164,0.0009989999999999999
217998,3538,-7005,134429,-14771,-14861,146316,271,19181,1110,0,16165,0.0010000000000000009
218999,-2271,-8735,135322,14032,-8741,137807,370,19170,1515,1,16166,0.0010010000000000019
219998,-3624,-6711,134195,-13241,-9426,137224,483,19202,1978,1,16167,0.0009989999999999999
220998,6816,-418,133332,2280,1155,128483,331,19175,1356,0,16168,0.0010000000000000009
221998,593,7787,131546,10972,-3992,136034,387,19175,1356,1,16169,0.0010000000000000009
222998,11526,-3533,125809,-26255,-1388,126311,234,19177,1585,1,16170,0.0010000000000000009
223999,3485,27718,139377,19385,20936,119896,234,19191,958,0,16171,0.0010010000000000019
224998,1226,-20448,124773,13289,-28427,143043,403,19165,1651,0,16172,0.0009989999999999999
225998,-11521,-10674,124629,-26614,-8501,121184,419,19170,1716,1,16173,0.0009999999999999731
226998,3653,4915,125944,6334,-1314,130992,242,19193,991,0,16174,0.0010000000000000009
228000,15035,23443,121052,22922,25045,100345,347,19193,991,0,16175,0.0010020000000000029
228999,-2844,26270,126367,-13115,19400,129617,444,19172,1421,1,16176,0.0009989999999999999
229998,5581,-12204,120342,-3080,-15098,124188,444,19180,1818,1,16177,0.0009989999999999999
230998,-4383,-1488,119921,7853,-2329,120048,287,19183,1175,0,16178,0.0010000000000000009
231998,1936,9707,126993,-16408,5003,119923,386,19174,1581,1,16179,0.0010000000000000009
232998,-1152,14518,126593,2133,9490,122687,341,19194,1397,1,16180,0.0010000000000000009
233998,2925,-6577,124596,-8587,-7803,134236,349,19194,1397,0,16181,0.0010000000000000009
234998,2432,1719,130090,-5616,1361,125560,397,19157,1429,0,16182,0.0010000000000000009
235998,-10279,478,125347,1728,-491,127992,397,19177,1626,1,16183,0.0010000000000000009
236999,4604,9696,129325,-21433,5960,132273,358,19209,1466,0,16184,0.0010010000000000019
237998,3811,6579,135709,7901,-3579,138361,316,19183,1294,0,16185,0.0009989999999999999
238998,1717,-8025,133523,-8909,-13309,137702,415,19161,1700,1,16186,0.0010000000000000009
239998,-6052,-11535,135227,-2966,-15324,141494,325,19161,1331,1,16187,0.0010000000000000009
240998,3976,-13753,132324,18094,-12974,139883,413,19190,1331,0,16188,0.0010000000000000009
241998,-2071,11292,130386,-11489,15162,119180,413,19181,1692,1,16189,0.0010000000000000009
242998,5738,18223,132267,-21501,7766,128830,391,19187,1601,1,16190,0.0010000000000000009
243998,12530,7167,132291,42807,-1331,129444,324,19177,1327,0,16191,0.0010000000000000009
244998,-5474,-13851,124218,-5830,-21361,131632,446,19172,1827,0,16192,0.0010000000000000009
245998,-2037,-7938,125246,-25428,1818,122440,463,19172,1896,1,16193,0.0010000000000000009
246998,1176,11125,127070,22713,4884,122584,275,19196,1896,0,16194,0.0010000000000000009
247998,15282,12894,119959,6366,20572,106731,384,19187,1126,0,16195,0.0010000000000000009
248998,-4757,24390,125523,-13569,12361,112729,384,19171,1573,1,16196,0.0010000000000000009
249998,-2249,-4279,120824,-6130,-12444,127301,507,19197,2077,1,16197,0.0010000000000000009
250998,2566,-2623,120614,9359,800,118630,348,19171,1425,0,16198,0.0010000000000000009
251998,676,10021,126212,-4969,4606,122940,386,19171,1581,1,16199,0.0010000000000000009
252998,1814,9426,124680,-5168,5371,119847,231,19177,1581,1,16200,0.0010000000000000009
254001,-2039,164,124595,-6119,-4523,128862,417,19183,946,0,16201,0.0010029999999999761
254998,4847,1311,128538,-4369,2200,128564,417,19172,1708,0,16202,0.0009970000000000256
255998,-6129,4035,126635,1001,1188,126084,414,19171,1696,1,16203,0.0010000000000000009
256998,-844,9350,130815,-17409,1797,133108,239,19203,979,0,16204,0.0010000000000000009
257999,8325,-1994,134527,-2391,-11824,144225,342,19173,1401,0,16205,0.0010009999999999741
258998,-4034,-12807,133231,11971,-11428,136816,434,19173,1401,1,16206,0.0009990000000000276
259998,-3352,-2642,134318,-17018,-9164,135727,289,19181,1778,1,16207,0.0010000000000000009
260998,3320,-5951,131341,16813,-5407,134737,289,19178,1184,0,16208,0.0010000000000000009
261999,1062,11964,129499,-587,2230,130798,374,19179,1532,1,16209,0.0010009999999999741
262998,11472,6014,128646,-22669,9282,122942,339,19203,1388,1,16210,0.0009990000000000276
263999,-744,17041,133998,37008,6391,126806,318,19158,1302,0,16211,0.0010009999999999741
264998,864,-26247,121752,-9079,-32032,140599,397,19158,1302,0,16212,0.0009990000000000276
265998,-7452,-10932,125478,-15996,-4339,123222,356,19173,1626,1,16213,0.0010000000000000009
266998,9332,15468,124441,18174,11030,121636,356,19204,1458,0,16214,0.0010000000000000009
267998,10875,29738,119878,133,32190,95889,336,19183,1376,0,16215,0.0010000000000000009
268998,-1130,21379,126612,-10736,8748,117792,416,19160,1704,1,16216,0.0010000000000000009
269998,1200,-17351,118387,324,-20207,132714,313,19190,1282,1,16217,0.0009999999999999454
270998,-4915,1482,122641,9833,2312,114906,392,19190,1282,0,16218,0.0010000000000000009
271998,1846,11893,127520,-11876,5047,123256,393,19177,1606,1,16219,0.0010000000000000009
272998,-5110,9896,126062,-8728,7126,118205,393,19198,1610,1,16220,0.0010000000000000009
273998,6050,-423,127503,-7842,-3942,131277,298,19175,1221,0,16221,0.0010000000000000009
275000,-2969,1705,128845,10821,-486,128823,447,19176,1831,0,16222,0.0010020000000000029
276000,-12738,-1709,125207,-13706,-4038,127078,456,19213,1868,1,16223,0.0010000000000000009
277000,8363,9508,131195,-24494,3238,139747,274,19213,1868,0,16224,0.0010000000000000009
277998,7422,2107,133893,23201,-1286,133953,393,19190,1122,0,16225,0.0009979999999999989
278998,-253,-4683,131601,-6084,-7972,135966,393,19172,1610,1,16226,0.0010000000000000009
280003,-6949,-12600,133800,-19944,-18499,144395,474,19202,1941,1,16227,0.0010050000000000336
280998,4754,-12112,130169,28371,-3867,131298,338,19176,1384,0,16228,0.0009949999999999681
282000,2768,8022,126670,-15529,13832,122403,387,19175,1585,1,16229,0.0010020000000000029
282998,9374,23890,135871,-14232,19584,123490,226,19175,926,1,16230,0.0009979999999999989
284000,4448,537,128434,36939,-26006,139752,426,19194,926,0,16231,0.0010020000000000029
284998,-6579,-25657,121647,-28137,-14586,127398,426,19177,1745,0,16232,0.0009979999999999989
285998,-585,3336,129496,6909,3408,123196,422,19172,1728,1,16233,0.0010000000000000009
286998,11850,14203,120489,16667,20981,107108,256,19193,1049,0,16234,0.0010000000000000009
287998,9523,31507,123968,-8924,23551,108285,351,19174,1438,0,16235,0.0010000000000000009
288998,429,2826,122423,-4759,-12586,130678,452,19174,1851,1,16236,0.0010000000000000009
289998,-3404,-8228,118117,7802,-868,115392,296,19182,1851,1,16237,0.0010000000000000009
291001,-1440,6427,127717,-4279,-1351,125364,361,19181,1212,0,16238,0.0010030000000000316
291998,1301,2565,124813,-6093,-969,123844,361,19179,1479,1,16239,0.0009969999999999701
292998,-1643,6088,125179,1678,5631,121388,325,19202,1331,1,16240,0.0010000000000000009
294001,760,6298,127342,-7682,4844,127382,334,19163,1368,0,16241,0.0010030000000000316
294998,-3821,7964,126993,-997,1034,124853,397,19163,1626,1,16242,0.0009969999999999701
296000,-4314,122,128055,-12249,-3582,132189,328,19176,1626,1,16243,0.0010020000000000029
297001,2793,3266,132298,-3875,-2243,137189,334,19201,1343,0,16244,0.0010009999999999741
297999,2323,-3090,134319,-3308,-9089,141024,334,19180,1368,0,16245,0.0009980000000000544
299000,-3631,-12025,133566,-1239,-12138,137685,428,19156,1753,1,16246,0.0010009999999999741
299998,-3078,-5191,133285,-2140,-10020,138141,282,19202,1155,0,16247,0.0009979999999999989
300998,9619,-184,130712,16588,3266,128863,388,19202,1589,0,16248,0.0010000000000000009
301998,-3078,12377,129599,-15234,1973,130189,394,19187,1589,1,16249,0.0010000000000000009
302998,13173,1113,128715,-4421,8726,124180,307,19202,1614,1,16250,0.0010000000000000009
303998,-4661,10880,132778,37756,758,129153,307,19177,1257,0,16251,0.0010000000000000009
304998,-1112,-22751,122360,-20869,-25897,136186,457,19174,1872,1,16252,0.0010000000000000009
305998,-4233,-4954,125437,-10818,-217,121387,477,19208,1954,1,16253,0.0010000000000000009
306998,9548,13549,122730,15342,16059,116149,284,19182,1163,0,16254,0.0010000000000000009
307998,12150,36258,123311,-1129,36009,95090,391,19182,1163,0,16255,0.0010000000000000009
308998,-3602,11831,124072,-4850,-5191,128074,437,19169,1601,1,16256,0.0010000000000000009
309998,2723,-20120,117637,3720,-19945,130006,437,19202,1790,0,16257,0.0010000000000000009
310998,-7348,4288,125340,-2363,5111,116047,342,19170,1401,0,16258,0.0010000000000000009
312000,2383,15515,129348,-8647,10490,120678,381,19177,1560,1,16259,0.0010020000000000029
312998,-5678,3110,125150,6729,-3027,125404,236,19192,967,1,16260,0.0009979999999999989
313998,-830,-3041,125718,-13476,-826,129149,438,19192,967,0,16261,0.0010000000000000009
314998,943,14430,130289,-5388,10587,122295,422,19178,1794,1,16262,0.0010000000000000009
315998,-5936,3193,128589,3416,-1399,127645,422,19179,1728,1,16263,0.0010000000000000009
316998,7680,-957,133063,-14024,-7713,139902,256,19195,1049,0,16264,0.0010000000000000009
317998,-3268,-13934,134000,-3883,-15392,145729,345,19171,1413,0,16265,0.0010000000000000009
318998,-1129,-4854,132901,4772,-4197,133662,454,19180,1859,1,16266,0.0010000000000000009
319998,-5835,3883,133915,-10353,-1333,134141,292,19180,1859,0,16267,0.0010000000000000009
320999,11252,-6767,127936,13408,-9070,134414,355,19175,1196,0,16268,0.0010009999999999741
321998,129,19418,131687,-2143,14380,120916,355,19172,1454,1,16269,0.0009990000000000276
322998,12692,-8670,128746,-18855,-10237,128313,311,19196,1274,1,16270,0.0010000000000000009
323998,-3085,9597,134683,42875,7892,131540,349,19162,1429,0,16271,0.0010000000000000009
324998,-3889,-24601,120952,-17705,-28946,130955,405,19170,1659,1,16272,0.0010000000000000009
325998,-5369,9504,127656,-15783,9866,113367,346,19170,1659,1,16273,0.0010000000000000009
326998,11394,11868,123711,18866,6325,122470,347,19199,1417,0,16274,0.0010000000000000009
327998,12621,16969,119215,3872,34073,92399,347,19178,1421,0,16275,0.0010000000000000009
328998,-6471,26306,127915,-5214,-8846,131794,426,19156,1745,1,16276,0.0010000000000000009
329998,6408,-22710,117375,-9380,-15626,126984,253,19192,1036,0,16277,0.0009999999999999454
330998,-6319,5408,125738,14645,5364,120078,400,19185,1638,0,16278,0.0010000000000000009
331998,-356,5976,128072,-14159,1464,124195,392,19185,1606,1,16279,0.0010000000000000009
332998,-1993,10179,125804,8486,6607,117386,294,19209,1606,1,16280,0.0010000000000000009
333998,-802,52,127372,-15776,-4171,135565,433,19175,1204,0,16281,0.0010000000000000009
334998,5250,5014,128830,-6887,8418,120486,433,19173,1773,1,16282,0.0010000000000000009
335998,-8495,8873,131096,3707,-8144,135816,479,19205,1962,1,16283,0.0010000000000000009
336998,2937,-10552,131912,-8543,-13124,139419,296,19181,1212,0,16284,0.0010000000000000009
337998,-6826,-3756,135965,-6011,-5498,139092,397,19181,1626,0,16285,0.0010000000000000009
338998,1709,-10258,132729,-5065,-9039,141230,399,19169,1626,1,16286,0.0010000000000000009
339998,1809,6151,133906,37,5885,124980,351,19202,1634,0,16287,0.0010000000000000009
340998,10348,2207,128924,21228,-3421,131970,351,19170,1438,0,16288,0.0010000000000000009
341998,-2573,2376,129270,-23101,-5257,130133,390,19181,1597,1,16289,0.0010000000000000009
342998,13459,-9418,130548,-5263,-2879,132101,255,19191,1044,1,16290,0.0010000000000000009
343998,-2062,11299,134129,49435,6334,127540,452,19191,1851,0,16291,0.0010000000000000009
344998,-5849,-9412,122159,-39313,-13061,124234,419,19181,1851,1,16292,0.0010000000000000009
345998,-5731,3737,126016,-11189,3160,124066,276,19175,1716,1,16293,0.0010000000000000009
347000,10163,1761,122578,30439,-831,121807,276,19189,1130,0,16294,0.0010020000000000029
348001,13652,22747,120839,131,34322,91945,364,19171,1491,0,16295,0.0010010000000000296
348998,-7327,24556,128763,-13366,3220,125297,467,19181,1913,1,16296,0.0009969999999999701
349998,6583,-22903,117071,-5933,-23751,133838,301,19169,1233,0,16297,0.0010000000000000009
350998,-6486,6334,124486,4375,9403,117082,352,19169,1233,0,16298,0.0010000000000000009
351999,1497,11677,130196,-5235,5238,121943,302,19180,1442,1,16299,0.0010010000000000296
352998,-2202,3005,125203,2,-1429,120571,302,19198,1237,1,16300,0.0009989999999999721
353998,2079,-5258,127208,-18111,-5689,135266,353,19169,1446,0,16301,0.0010000000000000009
354998,6591,9487,130209,8176,9033,123431,412,19168,1687,1,16302,0.0010000000000000009
355998,-13090,10736,128675,-839,2612,125122,317,19205,1298,1,16303,0.0010000000000000009
356998,2596,-5890,133999,-26244,-13646,142836,331,19205,1298,0,16304,0.0010000000000000009
357998,-4013,-12774,134691,11046,-11237,144198,416,19173,1356,0,16305,0.0010000000000000009
358998,-419,-3224,133658,1043,-2797,133957,416,19157,1704,1,16306,0.0010000000000000009
359998,5096,537,133112,-15125,-3869,132191,255,19187,1044,0,16307,0.0010000000000000009
361000,4964,272,128355,24589,-1371,130326,395,19179,1618,0,16308,0.0010020000000000029
361998,5141,922,127062,-18828,-3470,131607,400,19203,1638,1,16309,0.0009979999999999989
362998,13545,5734,134951,-5441,11495,123783,304,19203,1638,1,16310,0.0010000000000000009
363998,-1482,7271,132794,41771,-2028,132677,419,19175,1245,0,16311,0.0010000000000000009
364998,-6220,-21363,119114,-31720,-20973,129115,419,19177,1716,1,16312,0.0010000000000000009
365998,-5311,12933,130978,-11908,8251,120445,462,19207,1892,1,16313,0.0010000000000000009
366998,13670,1277,121234,27671,-1452,123496,292,19181,1196,0,16314,0.0010000000000000009
367998,4945,31805,123209,1199,34421,91305,411,19163,1683,0,16315,0.0010000000000000009
368998,-2772,10439,126000,-11748,1615,127525,439,19163,1683,1,16316,0.0010000000000000009
369998,3010,-18248,116699,-3653,-18445,116381,354,19198,1798,0,16317,0.0010000000000000009
370998,-3084,11899,126882,8414,7677,125255,354,19181,1450,0,16318,0.0010000000000000009
371998,746,3815,127213,-9872,-995,118912,385,19188,1577,1,16319,0.0010000000000000009
372998,1156,2329,125301,-1516,1395,126446,263,19183,1077,1,16320,0.0010000000000000009
373998,2134,-1931,128154,-2013,6060,129972,473,19180,1937,0,16321,0.0010000000000000009
374998,-545,12200,128782,-12338,6062,123400,421,19180,1724,1,16322,0.0010000000000000009
375998,-7312,5956,130188,-4168,-4709,136027,252,19181,1724,1,16323,0.0010000000000000009
376998,2582,-5437,134148,-2360,-13663,139882,344,19189,1032,0,16324,0.0010000000000000009
377998,-3002,-11924,132944,-2889,-10626,139792,344,19173,1409,1,16325,0.0010000000000000009
378998,457,-5702,135501,-12859,-4557,137281,467,19192,1913,1,16326,0.0010000000000000009
379998,5218,2298,135584,13973,-4730,135332,311,19171,1274,0,16327,0.0010000000000000009
380998,2424,-1367,126521,5633,6038,123236,359,19171,1470,0,16328,0.0010000000000000009
381999,-3203,13719,131868,-37075,3569,128127,309,19175,1470,1,16329,0.0010009999999999741
382998,17814,-9631,129642,26809,-7982,135876,344,19206,1266,0,16330,0.0009990000000000276
383999,2694,3708,131507,22165,71,122599,344,19169,1409,0,16331,0.0010009999999999741
384998,-4240,-7565,122866,-41816,-9167,124939,412,19165,1687,1,16332,0.0009990000000000276
386000,-1366,12803,127583,12775,9832,119763,300,19199,1229,1,16333,0.0010020000000000029
386998,10703,4558,123051,22453,-4762,122950,337,19199,1380,0,16334,0.0009979999999999989
387998,4202,15062,120336,-5449,26847,97938,423,19177,1380,1,16335,0.0010000000000000009
388998,-6624,24286,127911,-16850,1804,123639,256,19152,1732,1,16336,0.0009999999999999454
389999,6321,-18996,117326,3836,-16821,129214,256,19191,1049,0,16337,0.0010010000000000296
390998,-1083,8195,125400,7043,7375,118413,383,19180,1569,0,16338,0.0009989999999999721
391998,747,5266,126681,-7037,-1086,124369,410,19205,1679,1,16339,0.0010000000000000009
392999,-1558,4870,124866,-9106,4374,118466,316,19168,1294,0,16340,0.0010010000000000296
393998,3303,-837,128506,-14305,-5259,137849,439,19168,1294,0,16341,0.0009989999999999721
394998,193,3987,127929,12368,7582,123168,415,19170,1798,1,16342,0.0010000000000000009
395998,-7756,14591,130454,-14107,1318,127830,415,19206,1700,1,16343,0.0010000000000000009
396998,4756,-9181,134009,-12333,-17713,147271,289,19181,1184,0,16344,0.0010000000000000009
397998,-1891,-11601,135409,16970,-11493,138726,398,19171,1630,1,16345,0.0010000000000000009
398998,-5391,-5745,133828,-19339,-8746,136917,399,19201,1634,1,16346,0.0010000000000000009
399998,4682,4535,134440,5670,6933,126670,364,19201,1634,0,16347,0.0010000000000000009
400998,486,10022,131598,8533,-6160,137282,382,19182,1491,1,16348,0.0010000000000000009
401998,12726,-2479,126362,-24253,1687,123787,382,19182,1565,1,16349,0.0010000000000000009
402998,3052,21779,138534,26473,11469,125401,253,19187,1036,0,16350,0.0010000000000000009
403998,1463,-25131,123738,5695,-31355,141678,455,19181,1864,0,16351,0.0010000000000000009
404998,-10720,-7433,125458,-24722,-3659,119689,433,19183,1773,1,16352,0.0010000000000000009
405998,2455,7822,124947,9530,2581,129514,275,19183,1773,0,16353,0.0010000000000000009
406998,13037,28762,120972,14887,31269,95985,352,19186,1126,0,16354,0.0010000000000000009
408000,-1579,22638,126058,-9247,12602,113974,352,19169,1442,1,16355,0.0010020000000000029
408998,4498,-15086,119481,-2480,-16972,131617,481,19192,1970,1,16356,0.0009979999999999989
409998,113,-548,120979,1509,-632,116038,303,19174,1241,0,16357,0.0010000000000000009
410998,1351,10216,127891,-4196,5013,123911,368,19174,1507,1,16358,0.0010000000000000009
411998,-2140,8184,124696,-2711,3388,118930,318,19174,1507,1,16359,0.0010000000000000009
412998,-1657,-2169,125377,-16758,-4583,129684,372,19194,1302,0,16360,0.0010000000000000009
413998,3224,8080,130328,-3275,7022,126527,372,19162,1524,0,16361,0.0010000000000000009
414998,-8267,554,124774,7096,-2726,126433,407,19173,1667,1,16362,0.0010000000000000009
415998,5244,8530,130056,-22429,935,131117,273,19192,1118,0,16363,0.0010000000000000009
416998,7044,-2957,133478,8179,-9263,139225,339,19178,1388,0,16364,0.0010000000000000009
417998,276,-4234,134628,9135,-5263,134827,433,19178,1388,1,16365,0.0010000000000000009
418998,-7719,-7494,136284,-23265,-10322,142492,287,19162,1773,1,16366,0.0010000000000000009
419998,3823,-12768,131192,2648,-16951,138773,287,19186,1175,0,16367,0.0010000000000000009
421000,-4326,10463,129342,19071,18871,116514,393,19177,1610,1,16368,0.0010020000000000029
422000,5536,17347,130953,-37151,389,131685,404,19208,1655,1,16369,0.0010000000000000009
422999,18354,3561,131779,17580,1580,128014,316,19170,1294,0,16370,0.0009989999999999721
423998,-5410,-10712,126076,37608,-24152,133418,427,19170,1749,0,16371,0.0009990000000000276
424998,-807,-9442,123014,-43070,10212,117050,445,19173,1749,1,16372,0.0010000000000000009
425998,-4033,20466,130191,22783,5088,125002,286,19210,1823,0,16373,0.0010000000000000009
426998,17730,2428,116935,6143,13330,109391,286,19181,1171,0,16374,0.0010000000000000009
428001,-5245,28470,125888,-11407,21195,107106,393,19167,1610,1,16375,0.0010029999999999761
428998,447,-2665,122622,-6817,-19296,133374,388,19198,1589,1,16376,0.0009970000000000256
429998,4918,-8271,119213,15576,1063,115615,376,19198,1540,0,16377,0.0010000000000000009
430998,-2594,12755,128014,-9714,3162,126719,385,19181,1540,1,16378,0.0010000000000000009
431998,1892,7139,124671,-4200,8296,117440,260,19192,1577,1,16379,0.0010000000000000009
432998,-7529,5903,124895,-7167,-2052,128487,260,19184,1065,0,16380,0.0010000000000000009
433998,6130,-2091,127944,-7864,-1774,132557,438,19176,1794,0,16381,0.0010000000000000009
434998,-6329,5416,127386,6312,6094,120382,423,19189,1732,1,16382,0.0010000000000000009
435998,2126,9490,130832,-17914,-3645,138330,263,19189,1077,0,16383,0.0010000000000000009
436998,7664,-9850,132506,-2549,-13312,142575,345,19187,1077,0,16384,0.0010000000000000009
437998,-3864,-6278,135333,6747,-6373,136714,488,19171,1413,1,16385,0.0010000000000000009
438999,-2112,-6951,132422,-11464,-12315,138499,488,19206,1999,1,16386,0.0010009999999999741
440000,-1415,3373,133854,16604,5132,127508,311,19176,1274,0,16387,0.0010010000000000296
440998,4680,5151,128308,-7078,-11214,140275,373,19175,1528,1,16388,0.0009979999999999989
442000,8055,4342,128752,-16188,17721,114595,280,19191,1147,1,16389,0.0010020000000000029
442998,4368,21527,135958,35103,1429,131969,369,19191,1147,0,16390,0.0009979999999999989
443998,-1416,-28155,121406,-4729,-28940,137403,414,19165,1511,0,16391,0.0010000000000000009
444998,-8824,-3810,127526,-23879,-741,121968,414,19161,1696,1,16392,0.0010000000000000009
445998,9304,8337,123182,19482,6897,125849,273,19196,1118,0,16393,0.0010000000000000009
446999,10400,35400,121690,3818,38206,89315,343,19175,1405,0,16394,0.0010009999999999741
447998,1611,13865,125002,-12381,-3000,126561,428,19176,1753,1,16395,0.0009990000000000276
449001,-473,-17158,118455,8341,-16772,128270,277,19176,1753,1,16396,0.0010029999999999761
449998,-3341,2595,123052,-1705,1989,116033,400,19186,1135,0,16397,0.0009969999999999701
451000,-2607,16566,128432,-14423,12816,121272,400,19177,1638,1,16398,0.0010020000000000029
452002,-819,10952,125851,5634,3006,120893,386,19202,1581,1,16399,0.0010020000000000029
452998,-3258,-8690,124005,-1414,-8683,132593,322,19166,1319,0,16400,0.0009959999999999969
453998,386,7727,129190,-21087,5694,123160,402,19173,1646,0,16401,0.0010000000000000009
454998,-1263,75,127877,7738,-2305,129359,417,19173,1646,1,16402,0.0010000000000000009
455998,6062,11570,132234,-1245,4304,131804,298,19205,1708,0,16403,0.0010000000000000009
456998,351,-9039,131755,-13827,-14263,144277,298,19182,1221,0,16404,0.0010000000000000009
457998,-938,-7981,132468,1726,-9025,137445,410,19167,1679,1,16405,0.0010000000000000009
458998,-7922,-1381,134446,-4149,-4793,134996,374,19198,1532,1,16406,0.0010000000000000009
459998,10640,-6692,130260,6538,-8892,136349,385,19183,1577,0,16407,0.0010000000000000009
460998,-1389,17396,132480,5172,11308,122702,388,19183,1577,1,16408,0.0010000000000000009
461998,11518,-3174,127531,-26742,-7296,134140,295,19192,1589,1,16409,0.0010000000000000009
462998,1528,13150,135219,31080,11883,122675,295,19185,1208,0,16410,0.0010000000000000009
463998,-6567,-16171,124368,1791,-21584,134343,483,19174,1978,0,16411,0.0010000000000000009
464998,-5866,-3745,124335,-26093,-4319,115538,441,19184,1806,1,16412,0.0010000000000000009
465998,7230,15437,126450,13140,8364,123181,271,19183,1110,0,16413,0.0010000000000000009
466998,17028,14239,118590,15225,13568,97812,350,19183,1110,0,16414,0.0010000000000000009
467998,-6092,24802,124848,-2991,484,122708,495,19165,1433,1,16415,0.0010000000000000009
468998,2963,-13220,119894,-17437,-15472,129605,495,19202,2027,1,16416,0.0010000000000000009
469998,-2207,1361,123250,10931,7331,117077,325,19175,1331,0,16417,0.0010000000000000009
470998,-532,12198,127723,-4034,2607,125274,379,19174,1552,1,16418,0.0010000000000000009
471998,-703,5559,125157,3890,835,120802,265,19189,1085,1,16419,0.0010000000000000009
473000,-3882,-3741,125275,-10152,-3843,131426,384,19189,1573,0,16420,0.0010020000000000029
473998,5698,4849,128867,-7364,5588,125807,415,19167,1573,0,16421,0.0009979999999999989
474998,-5596,10189,130837,2687,2530,127992,239,19171,1700,1,16422,0.0010000000000000009
475998,2791,-452,130022,-15058,-10082,139225,239,19204,979,0,16423,0.0010000000000000009
477001,-1178,-6654,132977,-2495,-4680,138595,330,19176,1352,0,16424,0.0010029999999999761
478000,-1499,-7707,133141,2556,-12216,141386,424,19175,1737,1,16425,0.0009990000000000276
478998,-728,-4283,132720,-7007,-3429,131777,279,19175,1143,1,16426,0.0009979999999999989
479998,8105,1675,132092,21322,181,130420,398,19187,1143,0,16427,0.0010000000000000009
480998,-1164,6102,128277,-18143,-283,129695,402,19177,1630,1,16428,0.0010000000000000009
481999,10156,1967,129497,-12493,6399,125932,402,19206,1646,1,16429,0.0010009999999999741
482998,906,8305,134139,50743,-1958,133905,311,19161,1274,0,16430,0.0009990000000000276
483998,-4811,-16538,121627,-27518,-17224,126420,383,19170,1569,1,16431,0.0010000000000000009
484998,-7574,1673,127007,-20261,2861,122597,396,19208,1622,1,16432,0.0010000000000000009
485998,12467,6533,123932,27129,5087,122136,310,19208,1622,0,16433,0.0010000000000000009
486998,12978,23651,119895,4086,30538,95972,422,19175,1270,0,16434,0.0010000000000000009
487999,-6743,21582,125770,-14407,6352,121080,422,19166,1728,1,16435,0.0010009999999999741
488998,4229,-14533,117926,-3425,-18264,130242,397,19199,1626,0,16436,0.0009990000000000276
489998,-2955,766,124017,10320,3085,119446,391,19180,1601,0,16437,0.0010000000000000009
490998,1779,11743,129407,-8369,5543,121998,391,19190,1601,1,16438,0.0010000000000000009
491998,-6198,1853,124424,-2816,-2626,123596,290,19190,1601,1,16439,0.0010000000000000009
492998,2175,-2349,127426,-9451,-1702,130967,461,19182,1188,0,16440,0.0010000000000000009
493999,1465,10277,129972,3698,7691,124698,461,19176,1888,1,16441,0.0010009999999999741
494998,-8392,8956,128342,-5739,3835,123623,434,19195,1778,1,16442,0.0009990000000000276
495998,3775,-260,133016,-19199,-7901,140661,288,19182,1180,0,16443,0.0010000000000000009
496998,-739,-13603,133837,5236,-14472,145817,357,19172,1462,0,16444,0.0010000000000000009
497998,-2120,-4419,133430,4079,-4021,133158,510,19172,1462,1,16445,0.0010000000000000009
499000,-412,-2252,132663,-12835,-6486,134948,323,19201,2089,0,16446,0.0010020000000000029
499998,8163,-1008,129648,20395,-2732,132517,323,19174,1323,0,16447,0.0009979999999999989
500998,3993,3728,126965,-10463,-137,130154,375,19177,1536,1,16448,0.0009999999999999454
501998,10936,10438,133400,-10862,13836,122281,269,19197,1102,1,16449,0.0010000000000000009
502998,-107,4468,132643,39815,-3827,132409,376,19173,1540,0,16450,0.0010000000000000009
503998,-6489,-25344,121063,-20007,-26217,134938,416,19173,1540,1,16451,0.0010000000000000009
504998,-5105,4069,128519,-14480,3309,121400,252,19162,1704,1,16452,0.0010000000000000009
505998,10362,13773,122554,20125,12271,117797,252,19191,1032,0,16453,0.0010000000000000009
506998,7954,31087,122620,-4797,31580,96289,345,19170,1413,0,16454,0.0010000000000000009
507998,1026,12350,124743,-2839,5856,121890,435,19171,1782,1,16455,0.0010000000000000009
508998,834,-16894,117055,6176,-19647,131119,281,19185,1151,0,16456,0.0010000000000000009
509998,-585,635,124871,-2604,-2593,121050,389,19185,1151,0,16457,0.0010000000000000009
510998,-665,9774,130427,-4063,6536,121398,385,19181,1593,1,16458,0.0010000000000000009
511999,-2017,4962,126588,-7681,3806,127247,385,19200,1577,1,16459,0.0010010000000000296
512998,986,-829,128418,-5032,-2253,129725,321,19165,1315,0,16460,0.0009989999999999721
513998,-6439,4524,127124,7350,2263,123680,392,19171,1606,1,16461,0.0010000000000000009
514999,-5368,6467,126567,-20531,1599,129514,356,19205,1458,1,16462,0.0010010000000000296
515998,5585,3448,135961,-3461,-6101,140650,304,19205,1245,0,16463,0.0009989999999999721
516998,3983,-5291,134126,12445,-9073,136934,404,19179,1245,0,16464,0.0010000000000000009
517998,-1395,-10862,133502,-18020,-12473,140085,367,19167,1655,1,16465,0.0010000000000000009
518998,-4661,-6190,137428,9401,-12658,142416,367,19194,1503,0,16466,0.0010000000000000009
519998,6773,-11263,124635,14738,-3829,126716,394,19182,1614,0,16467,0.0010000000000000009
520998,-5469,19986,133658,-37311,19057,121186,389,19192,1593,1,16468,0.0010000000000000009
521998,19607,6819,133438,16008,-556,131754,274,19192,1122,1,16469,0.0010000000000000009
522998,679,4657,129499,40416,-1926,124322,441,19184,1122,0,16470,0.0010000000000000009
524002,-3667,-14911,124820,-45914,-21389,132795,443,19168,1806,1,16471,0.0010040000000000049
524998,-6397,-2191,126253,7410,2140,121630,443,19191,1814,1,16472,0.0009959999999999969
525998,5948,10080,125131,23801,6356,118746,272,19181,1114,0,16473,0.0010000000000000009
526998,10426,19591,122703,-8655,28303,100657,365,19170,1495,0,16474,0.0010000000000000009
527998,-9337,23701,126303,-11342,3918,121624,521,19170,2134,1,16475,0.0010000000000000009
528998,9815,-18707,116375,-446,-19302,129246,318,19208,2134,0,16476,0.0010000000000000009
529998,-2391,5524,124335,8284,7570,116203,378,19172,1302,0,16477,0.0010000000000000009
530998,5378,5856,128697,-7499,-1808,125830,378,19177,1548,1,16478,0.0010000000000000009
531998,-3861,1346,124919,-3530,2575,120337,258,19193,1057,1,16479,0.0010000000000000009
533001,-1948,6231,129570,-15694,3194,133211,389,19167,1593,0,16480,0.0010029999999999761
533998,1808,797,127125,2177,-854,127944,415,19167,1700,1,16481,0.0009970000000000256
534999,-9236,11918,129544,-3131,7064,121872,247,19167,1700,1,16482,0.0010010000000000296
535998,4313,-4961,134617,-11575,-16589,146686,339,19194,1012,0,16483,0.0009989999999999721
537001,2635,-14168,134174,2761,-12027,139818,339,19168,1388,0,16484,0.0010029999999999761
537998,-4836,-2871,136702,-1343,-3445,136615,441,19169,1806,1,16485,0.0009970000000000256
539001,3433,-4637,130986,-4888,-4844,133890,286,19180,1171,0,16486,0.0010029999999999761
539998,-2510,9264,129799,8531,5351,127342,379,19178,1552,0,16487,0.0009970000000000256
540998,7238,-5647,127607,-22866,-9677,136046,401,19178,1552,1,16488,0.0010000000000000009
541998,16333,17422,136638,16327,23291,114059,310,19204,1642,1,16489,0.0010000000000000009
542998,407,2084,132516,25789,-10899,135480,310,19158,1270,0,16490,0.0010000000000000009
543998,-4962,-20199,123110,-33987,-19057,128756,380,19171,1556,1,16491,0.0010000000000000009
544998,-6071,2923,128351,1373,-3322,128058,388,19201,1589,1,16492,0.0010000000000000009
545998,9371,11860,123074,20413,15685,111777,312,19180,1278,0,16493,0.0010000000000000009
546998,1622,36269,124718,-9011,32167,95256,411,19180,1278,0,16494,0.0010000000000000009
547998,3089,-3518,121671,-3046,-11269,134290,330,19162,1683,1,16495,0.0010000000000000009
548998,5841,-9389,117593,8460,-8934,120846,330,19193,1352,0,16496,0.0010000000000000009
549998,-4587,7958,124695,-8109,4087,119608,411,19184,1683,0,16497,0.0010000000000000009
550998,5052,12049,129064,-10885,7309,120781,387,19195,1585,1,16498,0.0010000000000000009
551998,-3126,-7157,124447,15832,-9983,130168,286,19181,1171,1,16499,0.0010000000000000009
552998,1161,617,127452,-19578,2086,129273,462,19181,1171,0,16500,0.0010000000000000009
553998,-2295,7974,128171,-14312,4011,125298,441,19171,1892,1,16501,0.0010000000000000009
554998,-1310,9802,130070,12987,4878,126394,441,19195,1806,1,16502,0.0010000000000000009
555998,5218,-1160,134935,-11620,-7924,138942,269,19185,1102,0,16503,0.0010000000000000009
556998,-4612,-18698,133641,-5680,-18478,137581,369,19171,1511,1,16504,0.0010000000000000009
557998,-2505,-1205,134945,4027,-2375,134387,533,19202,2183,1,16505,0.0010000000000000009
559019,-688,692,134044,-10072,-2501,137896,322,19202,1319,0,16506,0.0010209999999999386
559998,6830,2513,128893,11778,-2414,120948,380,19175,1319,0,16507,0.0009790000000000632
560998,-2612,10588,129930,-5205,5748,134023,380,19173,1556,1,16508,0.0010000000000000009
561998,17058,-8699,129439,-11043,3814,125103,232,19192,950,0,16509,0.0010000000000000009
562998,-1862,8176,134172,37733,-10109,132005,409,19170,1675,0,16510,0.0010000000000000009
563998,-731,-20908,118717,-16597,-10099,126074,420,19169,1720,1,16511,0.0010000000000000009
564998,-4339,19902,128802,-16421,19721,113736,240,19169,983,1,16512,0.0010000000000000009
565998,9755,7186,123641,15110,-4590,124515,346,19197,983,0,16513,0.0010000000000000009
566998,7848,14103,119320,4036,26759,95479,440,19174,1417,1,16514,0.0010000000000000009
567998,-7076,19287,127469,-19231,-6189,130351,440,19176,1802,1,16515,0.0010000000000000009
568999,9885,-17760,117117,5796,-9887,123380,291,19180,1192,0,16516,0.0010009999999999186
570000,-5580,13671,127126,7664,8947,120192,382,19186,1565,0,16517,0.0010010000000000296
571000,187,2035,127430,-14928,-5286,127747,365,19186,1495,1,16518,0.0010000000000000009
572000,273,3762,125139,3005,2859,117766,317,19205,1495,0,16519,0.0010000000000000009
572998,-567,-1087,128486,-15660,-3380,136761,392,19163,1298,0,16520,0.0009980000000000544
573998,4760,7255,128595,-2683,10584,120868,392,19175,1606,1,16521,0.0010000000000000009
574998,-7476,12677,131199,3603,-3100,134550,356,19201,1458,1,16522,0.0010000000000000009
575998,4028,-11368,132332,-11669,-15664,141835,319,19182,1307,0,16523,0.0010000000000000009
576998,-7117,-6670,134561,-2013,-10035,138310,413,19182,1692,1,16524,0.0010000000000000009
577999,-2530,-10350,134416,-8509,-9085,141263,316,19163,1692,1,16525,0.0010009999999999186
578998,10099,6044,132614,8213,6697,125334,413,19191,1294,0,16526,0.0009990000000000832
579998,-1663,12009,131857,11046,4052,129493,413,19176,1692,0,16527,0.0010000000000000009
580998,9732,-2007,127437,-31234,-8405,131157,399,19187,1634,1,16528,0.0010000000000000009
581998,10786,969,133789,22988,1253,129066,317,19174,1298,0,16529,0.0010000000000000009
582998,-660,-5984,130367,19466,-12528,133496,461,19176,1888,0,16530,0.0010000000000000009
584000,-8119,-4556,123074,-37558,-1807,119118,457,19176,1888,1,16531,0.0010019999999999474
585000,-3199,13039,128072,7879,5245,125575,274,19198,1872,0,16532,0.0010000000000000009
585998,19787,10804,119138,24956,10896,110591,274,19180,1122,0,16533,0.0009980000000000544
586998,-3693,25733,123496,-3782,22379,100925,374,19170,1532,1,16534,0.0010000000000000009
587998,2094,-2925,123762,-16159,-12951,131692,506,19201,2072,1,16535,0.0010000000000000009
588998,-111,-10188,118946,4542,-7578,122878,341,19176,1397,0,16536,0.0010000000000000009
589998,-3089,13525,128170,-1363,8577,122353,377,19176,1397,1,16537,0.0010000000000000009
590998,1449,9757,125584,-4887,3843,119394,227,19175,1544,1,16538,0.0010000000000000009
591998,-4972,-2343,122716,-5311,-6380,126542,227,19186,930,0,16539,0.0010000000000000009
592998,10806,-725,127849,-16459,551,130324,416,19171,1704,0,16540,0.0010000000000000009
593998,-3041,10708,128548,12124,7370,123320,419,19171,1716,1,16541,0.0010000000000000009
594998,-904,7191,129766,-9190,-1657,131829,241,19195,987,0,16542,0.0010000000000000009
595998,934,-5880,133374,-15366,-12517,142081,342,19195,987,0,16543,0.0010000000000000009
596998,-2912,-11473,135134,8244,-13239,143208,434,19177,1401,1,16544,0.0009999999999998899
597998,-4866,-2620,134732,-5570,-2392,132147,434,19181,1778,1,16545,0.0010000000000000009
598998,5786,-1016,131398,-4114,-5504,134611,292,19182,1196,0,16546,0.0010000000000000009
599998,1588,9679,131085,13899,3606,127488,376,19176,1540,1,16547,0.0010000000000000009
600998,11414,4138,128618,-27772,-948,128054,344,19201,1409,1,16548,0.0010000000000000009
601998,5334,10692,135744,24519,8498,127786,323,19201,1409,0,16549,0.0010000000000000009
602998,-6083,-14599,125192,12997,-18753,134831,398,19164,1323,0,16550,0.0010000000000000009
603998,-8394,-8079,123412,-37433,-9302,118238,398,19172,1630,1,16551,0.0010000000000000009
604998,4986,18641,127442,15659,11159,121758,356,19204,1458,0,16552,0.0010000000000000009
605998,17742,11872,117135,17877,8674,100193,332,19183,1360,0,16553,0.0010000000000000009
606999,-2314,25774,125952,-4950,24075,118050,427,19163,1749,1,16554,0.0010010000000000296
607998,1746,-9567,121165,-10245,-12366,131133,315,19163,1290,1,16555,0.0009989999999999721
608998,134,-3378,120482,887,5644,117714,386,19187,1290,0,16556,0.0010000000000000009
609998,-3610,14965,129036,2009,3658,125538,394,19177,1581,1,16557,0.0010000000000000009
611006,894,2711,122782,-4341,617,120124,394,19198,1614,1,16558,0.0010080000000000089
612000,-2326,-456,124296,2157,-2657,129305,305,19175,1249,0,16559,0.0009940000000000504
613002,5390,4205,128613,-12284,6073,125652,444,19173,1818,0,16560,0.0010019999999999474
613998,-4115,9789,128171,-3889,5704,125640,453,19173,1855,1,16561,0.0009959999999999969
614998,1131,6924,131599,-4874,-5066,138912,268,19201,1855,0,16562,0.0010000000000000009
615998,2767,-9582,130934,-987,-14047,140595,375,19180,1098,0,16563,0.0010000000000000009
616999,-5137,-10254,133440,-6001,-9554,137641,375,19171,1536,1,16564,0.0010010000000000296
618000,110,-4549,134825,-5178,-3000,135538,470,19198,1925,1,16565,0.0010010000000000296
618999,7922,-245,131904,20841,-7401,136866,345,19168,1413,0,16566,0.0009989999999999721
619998,-1655,8505,128838,-6861,12105,119519,381,19168,1560,1,16567,0.0009989999999999721
620998,3613,13364,131661,-31730,-1073,132270,223,19177,1560,1,16568,0.0010000000000000009
621998,10687,-7230,129965,47841,-6601,134466,418,19196,913,0,16569,0.0010000000000000009
622999,-7157,-3738,128104,-1016,-12403,127073,418,19172,1712,0,16570,0.0010010000000000296
623998,-3957,-8981,122240,-35673,-397,123062,425,19176,1741,1,16571,0.0009989999999999721
624998,4753,25406,128993,22058,18336,115181,260,19191,1065,0,16572,0.0010000000000000009
625998,18427,4001,116807,10717,1883,117995,351,19169,1438,0,16573,0.0010000000000000009
626998,-3342,19806,122930,-5564,23345,102941,450,19169,1438,1,16574,0.0010000000000000009
627998,-2634,4160,124273,-15751,-12673,131690,294,19178,1843,1,16575,0.0010000000000000009
628998,2347,-12585,120033,10972,-5547,122018,294,19176,1204,0,16576,0.0010000000000000009
629998,-1213,16205,128577,231,6746,122091,364,19172,1491,1,16577,0.0010000000000000009
630998,-1406,-787,122992,-9066,-1049,123740,340,19196,1393,1,16578,0.0010000000000000009
631998,-4669,9238,126055,-8201,6421,120333,350,19159,1433,0,16579,0.0010000000000000009
632998,5057,-190,128228,-6337,-3548,135527,398,19159,1433,0,16580,0.0010000000000000009
633998,-3794,10420,128960,8062,11145,119304,324,19169,1630,1,16581,0.0010000000000000009
634998,1026,6663,131148,-19716,-5465,137987,324,19202,1327,0,16582,0.0010000000000000009
635998,5738,-13348,132635,-5924,-15958,145087,332,19179,1360,0,16583,0.0010000000000000009
636998,-6349,-8285,133852,14192,-9607,136833,421,19163,1724,1,16584,0.0010000000000000009
637998,1823,-6239,132327,-18488,-10379,138306,285,19192,1167,1,16585,0.0010000000000000009
638999,1456,6688,133065,19130,5659,126016,405,19192,1167,0,16586,0.0010010000000000296
639998,3390,1975,125659,-4789,-8769,138884,384,19178,1659,1,16587,0.0009989999999999721
640998,11030,10116,130336,-15995,14738,117788,384,19198,1573,1,16588,0.0010000000000000009
641998,-1819,10127,133708,37417,-2,131474,288,19184,1180,0,16589,0.0010000000000000009
642998,-783,-29538,119720,-11081,-29906,138014,446,19169,1827,0,16590,0.0010000000000000009
644000,-6678,-1302,128818,-16488,-1500,122465,474,19201,1941,1,16591,0.0010020000000000584
644998,11793,12737,122082,15943,9955,123048,304,19201,1941,0,16592,0.0009979999999999434
645998,7085,40529,122505,-1101,40263,89053,392,19181,1245,0,16593,0.0010000000000000009
646998,2561,7883,124410,-10072,-164,125696,392,19168,1606,1,16594,0.0010000000000000009
648008,360,-17021,117521,10536,-18985,119186,489,19206,2003,1,16595,0.0010099999999999554
648998,-4862,-341,124146,1255,-2615,117621,343,19173,1405,0,16596,0.0009900000000000464
649998,2494,15397,129341,-14280,10679,120254,392,19175,1606,1,16597,0.0010000000000000009
650998,-7004,9431,126646,-2808,5708,129407,239,19175,979,1,16598,0.0010000000000000009
651998,4851,-3016,127387,-5559,-4806,128482,426,19196,979,0,16599,0.0010000000000000009
652998,-11071,4566,127655,3626,2709,126071,411,19175,1745,0,16600,0.0010000000000000009
653998,-4465,795,125657,-17612,-2774,128915,411,19186,1683,1,16601,0.0010000000000000009
655001,9468,9345,133221,-4163,3242,135814,253,19194,1036,0,16602,0.0010029999999999761
655998,6202,407,133943,13577,-6778,137509,358,19175,1466,0,16603,0.0009970000000000256
656998,1367,-13785,131067,-17709,-17649,140267,450,19175,1843,1,16604,0.0010000000000000009
657998,-10231,-10583,135329,-2440,-13667,142358,292,19181,1843,1,16605,0.0010000000000000009
658998,8717,-8801,127595,18491,-627,128381,347,19179,1196,0,16606,0.0010000000000000009
659998,-5265,18898,131145,-30713,20047,120819,347,19180,1421,1,16607,0.0010000000000000009
660998,17441,16519,134059,20443,7487,128844,337,19200,1380,1,16608,0.0010000000000000009
661999,1275,-4394,127706,30617,-16049,132562,333,19165,1364,0,16609,0.0010010000000000296
662998,-6719,-18039,125589,-37366,-17392,130594,408,19165,1671,0,16610,0.0009989999999999721
663998,-1877,-2999,127404,6386,-2395,125246,351,19161,1671,1,16611,0.0010000000000000009
665001,7029,14812,122402,16961,21236,109761,330,19198,1438,0,16612,0.0010029999999999761
665998,10921,32899,124939,-8619,28181,105401,330,19178,1352,0,16613,0.0009970000000000256
666998,-6090,6805,121089,-3671,-7222,125445,417,19155,1708,1,16614,0.0010000000000000009
667998,4039,-12317,118222,3404,-11990,123316,302,19193,1237,0,16615,0.0010000000000000009
668998,-1114,177,126007,2224,-395,122619,402,19176,1646,0,16616,0.0010000000000000009
669998,3897,9768,126861,-5175,6496,120453,401,19176,1646,1,16617,0.0010000000000000009
670998,-3970,3795,124753,-3706,1796,125037,301,19197,1642,1,16618,0.0010000000000000009
671998,-1446,6730,127758,-11189,7313,126610,301,19171,1233,0,16619,0.0010000000000000009
672998,-1459,4396,127125,3346,-2197,128724,448,19171,1835,1,16620,0.0010000000000000009
673998,-6793,3804,128530,-7088,1839,124441,458,19202,1876,1,16621,0.0010000000000000009
674998,4095,688,133787,-15534,-8225,142610,312,19181,1278,0,16622,0.0010000000000000009
675998,5027,-12369,134770,4392,-11834,143118,408,19181,1278,0,16623,0.0010000000000000009
677000,-6681,-3357,135262,4098,-3590,132200,470,19167,1671,1,16624,0.0010019999999999474
677999,481,-4708,131569,-13484,-10215,138841,470,19196,1925,0,16625,0.0009990000000000832
678998,1648,1954,130419,19026,1833,130199,345,19176,1413,0,16626,0.0009989999999999721
679998,3478,1344,127734,-16664,-2568,131803,387,19173,1585,1,16627,0.0010000000000000009
680998,11734,15950,133646,-636,22530,116049,224,19191,917,1,16628,0.0010000000000000009
681998,681,4010,133436,36252,-8694,134843,426,19191,917,0,16629,0.0010000000000000009
683002,-1198,-29513,121005,-22249,-28361,135926,417,19176,1745,1,16630,0.0010040000000000049
683998,-7975,1964,127967,-7255,1903,122205,417,19175,1708,1,16631,0.0009959999999999969
684998,11323,18913,123647,12784,20037,112808,276,19189,1130,0,16632,0.0010000000000000009
685998,6094,35184,123479,-2372,32279,96504,361,19171,1479,0,16633,0.0010000000000000009
686998,2084,494,121876,-2726,-8236,131206,455,19185,1864,1,16634,0.0010000000000000009
687998,3731,-14154,117506,5943,-14950,124724,297,19185,1864,0,16635,0.0010000000000000009
688998,-5882,4810,125063,-1989,2021,118359,359,19168,1216,0,16636,0.0010000000000000009
689998,4749,12208,129588,-11263,7999,123025,359,19183,1470,1,16637,0.0010000000000000009
690998,-5897,-1285,125054,9375,-3014,125872,316,19201,1294,1,16638,0.0010000000000000009
691998,5,5236,127914,-13179,4884,126042,330,19167,1352,0,16639,0.0010000000000000009
692998,-1121,6151,128282,-10664,2333,125818,400,19180,1638,1,16640,0.0010000000000000009
693998,-4241,4462,129336,7825,939,126155,317,19180,1638,1,16641,0.0010000000000000009
694998,4526,-1831,134782,-13489,-6845,140610,333,19204,1298,0,16642,0.0010000000000000009
695998,-2438,-14398,134281,-5178,-14823,144521,333,19177,1364,0,16643,0.0010000000000000009
696998,-2127,133,134648,5565,-1169,133960,418,19155,1712,1,16644,0.0010000000000000009
697998,-502,-3857,132326,-9477,-7192,139008,248,19189,1016,0,16645,0.0010000000000000009
698998,8125,969,128239,13543,-3698,120144,392,19179,1606,0,16646,0.0010000000000000009
699998,-554,10357,131316,-4768,7364,136163,399,19179,1634,1,16647,0.0010000000000000009
700998,14892,-6756,130496,-16305,-7468,121398,324,19199,1634,1,16648,0.0010000000000000009
701998,-4284,12932,135161,39817,-13781,136203,460,19171,1327,0,16649,0.0010000000000000009
702998,-1669,-28329,118802,-15575,-16120,128338,460,19174,1884,1,16650,0.0010000000000000009
704000,-5697,17142,129723,-15791,15148,114658,487,19212,1995,1,16651,0.0010019999999999474
704998,12141,5637,122831,16556,179,122224,287,19184,1175,0,16652,0.0009980000000000544
705998,9768,24193,121419,6439,33523,91991,394,19184,1614,0,16653,0.0010000000000000009
706998,-5644,16229,126541,-17108,-12169,135206,434,19172,1614,1,16654,0.0010000000000000009
707998,5921,-21198,117275,3487,-10231,123170,357,19198,1778,0,16655,0.0010000000000000009
708999,-5646,11022,126543,4421,4809,121537,357,19178,1462,0,16656,0.0010009999999999186
709998,1207,1838,127933,-10204,-714,124353,387,19182,1585,1,16657,0.0009990000000000832
710998,164,8517,125882,1837,4834,117311,262,19186,1073,1,16658,0.0010000000000000009
711998,1369,-453,127541,-14543,-1812,134863,468,19186,1917,0,16659,0.0010000000000000009
712998,3701,7787,128995,-144,7385,121087,425,19178,1917,1,16660,0.0010000000000000009
713998,-10461,7334,130462,-5239,-5932,135393,254,19186,1741,1,16661,0.0010000000000000009
714998,1356,-10411,134141,-8430,-14111,141329,254,19192,1040,0,16662,0.0010000000000000009
715998,-5746,-4249,135659,1859,-5884,138214,344,19170,1409,0,16663,0.0009999999999998899
716998,-1169,-9049,133281,-9666,-8552,139164,463,19188,1896,1,16664,0.0010000000000000009
717998,7807,3698,133056,443,2675,127687,320,19169,1311,0,16665,0.0010000000000000009
718998,3336,4294,128975,20829,-78,130269,360,19169,1311,0,16666,0.0010000000000000009
720016,2846,1162,129394,-30983,-2584,128506,314,19182,1474,1,16667,0.0010180000000000744
720998,15985,1993,135052,7955,4418,129550,314,19202,1286,1,16668,0.0009819999999999274
721998,-3176,1362,131916,38957,-5829,131727,346,19167,1417,0,16669,0.0010000000000000009
722999,-5486,-11542,121958,-43518,-11420,123042,410,19167,1679,1,16670,0.0010010000000000296
723998,-5872,7448,129065,167,1272,126335,296,19200,1212,1,16671,0.0009989999999999721
724998,14476,5869,121586,30836,5582,115720,335,19200,1212,0,16672,0.0010000000000000009
725998,3616,30262,123090,-5968,32284,95094,424,19177,1372,0,16673,0.0010000000000000009
726998,-2161,11135,125877,-12998,-1094,128271,424,19155,1737,1,16674,0.0010000000000000009
727998,2086,-18692,116510,1696,-18426,128343,253,19189,1036,0,16675,0.0010000000000000009
728999,-5167,7812,125822,-1588,5826,119802,380,19177,1556,0,16676,0.0010010000000000296
729998,3989,10964,128594,-5974,5445,121157,403,19211,1651,1,16677,0.0009989999999999721
730998,-2277,-1437,124128,4056,-4848,124041,310,19211,1651,1,16678,0.0010000000000000009
731998,7091,-985,127609,-19956,-412,132041,438,19169,1270,0,16679,0.0010000000000000009
732998,-31,10614,128871,3429,8058,123802,438,19180,1794,1,16680,0.0010000000000000009
733998,-5905,10344,129343,912,2988,126328,424,19209,1737,1,16681,0.0010000000000000009
734998,1981,-6419,134826,-21039,-14009,143357,286,19181,1171,0,16682,0.0010000000000000009
735998,-6188,-16765,135117,9192,-16402,144773,395,19169,1618,1,16683,0.0010000000000000009
736998,-1856,-1815,134318,133,-2198,132901,399,19169,1618,1,16684,0.0010000000000000009
737998,4469,200,132612,-14204,-3673,134269,357,19201,1634,0,16685,0.0010000000000000009
738998,3414,9668,131687,22331,6588,125495,357,19182,1462,0,16686,0.0010000000000000009
739998,8082,4885,128871,-24136,-1597,130706,386,19181,1581,1,16687,0.0010000000000000009
740998,10982,4855,136512,6327,5449,126631,252,19189,1032,0,16688,0.0010000000000000009
741998,-5291,-4377,130294,32940,-8543,133529,462,19171,1892,0,16689,0.0010000000000000009
742998,-7592,-19835,120480,-34006,-21707,130715,429,19171,1757,1,16690,0.0010000000000000009
743998,-3169,19510,130655,-4255,14142,116472,266,19184,1757,1,16691,0.0010000000000000009
744998,17002,8032,117954,21178,4094,103992,349,19188,1089,0,16692,0.0010000000000000009
745998,880,32188,123886,5026,32754,104495,349,19167,1429,1,16693,0.0010000000000000009
747001,193,-782,124153,-12953,-2896,138173,478,19189,1958,1,16694,0.0010029999999999761
748000,3518,-15627,117996,-2546,-18885,117209,303,19170,1241,0,16695,0.0009990000000000832
748998,-3414,11976,128996,9697,2603,126198,367,19170,1503,0,16696,0.0009979999999999434
749998,1077,678,123859,-12467,1303,119452,318,19173,1503,1,16697,0.0010000000000000009
751000,-506,6690,125211,-511,2362,124022,367,19193,1302,0,16698,0.0010020000000000584
751998,4857,1294,127617,-5968,4111,130430,367,19163,1503,0,16699,0.0009979999999999434
752998,-485,12462,127302,-7271,10006,119316,407,19171,1667,1,16700,0.0010000000000000009
753998,-2264,6626,130942,-4728,-10158,140601,272,19199,1114,1,16701,0.0010000000000000009
754998,3126,-12431,133066,-2403,-14810,140292,333,19199,1364,0,16702,0.0010000000000000009
755998,-6235,-7910,136305,-3055,-12849,142390,429,19174,1364,1,16703,0.0010000000000000009
756998,-3584,-11033,134526,-12867,-5926,137172,281,19161,1757,1,16704,0.0010000000000000009
757998,5786,9926,134137,11136,4583,128308,281,19184,1151,0,16705,0.0010000000000000009
758998,568,8830,129946,11746,5095,126980,387,19180,1585,0,16706,0.0010000000000000009
759998,3459,6477,129608,-36730,-4930,129819,406,19210,1663,1,16707,0.0010000000000000009
761000,19192,-5880,132478,31139,-4553,134295,317,19169,1298,0,16708,0.0010020000000000584
761998,-6015,-1222,131692,20582,-7457,127349,431,19169,1298,0,16709,0.0009979999999999434
762998,-4820,-6460,122605,-45592,-4449,122403,460,19174,1765,1,16710,0.0010000000000000009
763998,-4894,13874,128760,16112,6624,124890,460,19212,1884,1,16711,0.0010000000000000009
764998,18514,6858,118237,20681,6998,112547,286,19183,1171,0,16712,0.0010000000000000009
765998,-541,29118,123732,-5512,30179,96574,398,19168,1630,1,16713,0.0010000000000000009
766998,-2151,5431,125873,-14810,-12221,132701,390,19195,1597,1,16714,0.0010000000000000009
767998,5031,-21621,117005,8092,-17183,127353,370,19195,1597,0,16715,0.0010000000000000009
768998,-6944,12290,127988,244,9604,119936,380,19178,1515,1,16716,0.0010000000000000009
769999,3369,11451,125749,-8753,6485,119952,380,19187,1556,1,16717,0.0010010000000000296
770998,-6442,3688,122557,-4949,-353,121862,256,19189,1049,0,16718,0.0009989999999999721
771998,11030,-870,127752,-17916,-650,134258,444,19177,1818,0,16719,0.0010000000000000009
772998,-1976,7820,127884,16278,6041,122218,426,19181,1745,1,16720,0.0010000000000000009
773999,-2357,9068,130671,-12641,-1509,130533,265,19181,1745,0,16721,0.0010010000000000296
774998,6270,-14572,132983,-13543,-21575,150047,341,19187,1085,0,16722,0.0009989999999999721
775998,-7355,-10364,135035,14442,-9055,138382,341,19172,1397,1,16723,0.0010000000000000009
776998,-3109,614,134247,-19627,-1507,133054,480,19203,1966,1,16724,0.0010000000000000009
777998,1814,5755,133480,6229,3006,129438,308,19172,1261,0,16725,0.0010000000000000009
778998,4166,7935,129679,15294,-2020,131334,373,19174,1528,1,16726,0.0010000000000000009
779998,9265,-1742,127215,-32348,-3552,127851,291,19174,1528,1,16727,0.0010000000000000009
780998,4461,15768,137493,25378,11053,125440,368,19195,1192,0,16728,0.0010000000000000009
781998,-3316,-20275,124598,13953,-25965,140060,368,19166,1507,0,16729,0.0010000000000000009
782998,-10595,-5540,124400,-34525,-4810,120874,414,19169,1696,1,16730,0.0010000000000000009
783999,6047,16792,126496,10347,8796,124859,285,19201,1167,0,16731,0.0010010000000000296
784998,17324,17462,116983,19677,16678,105249,342,19173,1401,0,16732,0.0009989999999999721
785998,792,25210,126383,-2682,21296,103892,424,19173,1401,1,16733,0.0010000000000000009
786998,493,-13961,120119,-11121,-18279,135031,300,19159,1737,1,16734,0.0010000000000000009
788000,-942,-3004,120907,-701,-4114,118516,300,19184,1229,0,16735,0.0010019999999999474
788998,-3665,15805,129231,3930,8753,123289,403,19177,1651,1,16736,0.0009980000000000544
789998,-1859,6222,122799,-10854,2619,120157,398,19206,1630,1,16737,0.0010000000000000009
791004,-785,612,124689,-8151,-2159,130145,321,19168,1315,0,16738,0.0010059999999999514
792000,2536,6107,129869,-4711,3753,129109,418,19168,1712,0,16739,0.0009959999999999969
793000,-2446,240,126948,-3511,-2947,127690,430,19169,1712,1,16740,0.0010000000000000009
793998,1175,4121,130642,-3737,-3230,136858,288,19205,1761,0,16741,0.0009980000000000544
794998,4350,-3139,130890,-884,-7425,137365,288,19182,1180,0,16742,0.0010000000000000009
795999,-1774,-1486,133847,-3549,-4863,137495,400,19169,1638,1,16743,0.0010010000000000296
796998,-2941,-5388,136074,-9613,-9656,139133,383,19197,1569,1,16744,0.0009989999999999721
798001,7705,-8513,130534,1070,-9791,133408,382,19197,1565,0,16745,0.0010029999999999761
798998,-5310,15290,132854,20046,11370,123500,384,19175,1565,1,16746,0.0009970000000000256
799998,4395,-888,129223,-34522,-15373,139516,265,19183,1573,1,16747,0.0010000000000000009
800998,14069,3231,131676,44843,14711,122165,265,19189,1085,0,16748,0.0010000000000000009
801998,-9369,7448,130101,7352,-10193,128789,439,19178,1798,0,16749,0.0010000000000000009
802998,-1178,-7313,122054,-39473,88,118538,435,19190,1782,1,16750,0.0010000000000000009
803998,-197,8881,127754,22500,-5095,130875,276,19185,1130,0,16751,0.0010000000000000009
805001,17632,-3646,116243,11317,11354,109551,356,19185,1130,0,16752,0.0010029999999999761
806000,-7197,38234,126042,-10574,34730,97192,499,19167,1458,1,16753,0.0009989999999999721
806998,-2469,-1143,124145,-12382,-21130,140385,499,19197,2044,1,16754,0.0009980000000000544
807998,4409,-12957,117932,11215,-3198,118127,310,19176,1270,0,16755,0.0010000000000000009
808998,-3148,16556,126812,-4314,11980,119847,371,19176,1520,1,16756,0.0010000000000000009
809999,3395,9955,125808,-3681,5319,118950,292,19188,1196,1,16757,0.0010009999999999186
810998,-6092,-5671,123982,-7678,-10703,131290,386,19188,1196,0,16758,0.0009990000000000832
811998,6783,-3215,129472,-7169,-97,134688,415,19162,1581,0,16759,0.0010000000000000009
812998,-7147,12293,128781,6937,10878,119234,415,19165,1700,1,16760,0.0010000000000000009
813998,1353,10631,130751,-22630,1179,133776,227,19198,930,0,16761,0.0010000000000000009
814998,7183,-11146,133028,-3349,-17722,148052,341,19179,1397,0,16762,0.0010000000000000009
815998,-6003,-11904,132477,15851,-9923,136460,425,19167,1741,1,16763,0.0010000000000000009
816998,3221,-2939,133225,-16361,-7639,134756,275,19167,1741,1,16764,0.0010000000000000009
817998,-160,1030,133710,19414,-202,132611,401,19184,1126,0,16765,0.0010000000000000009
818998,3125,1132,125160,-6522,-6352,134724,401,19181,1642,1,16766,0.0010000000000000009
820001,7196,12115,130349,-19459,18431,117277,410,19207,1679,1,16767,0.0010029999999999761
820998,669,13480,134548,39458,1372,131046,308,19169,1261,0,16768,0.0009970000000000256
821998,-831,-29482,119463,-9361,-31182,136872,391,19172,1601,0,16769,0.0010000000000000009
822998,-7557,-2544,128471,-20995,220,122366,418,19172,1601,1,16770,0.0010000000000000009
823998,14699,16091,124184,17997,13186,120862,311,19201,1712,0,16771,0.0010000000000000009
824998,5821,31649,120978,1141,31910,94901,311,19181,1274,0,16772,0.0010000000000000009
825998,2719,9146,124039,-10172,75,125502,409,19166,1675,1,16773,0.0010000000000000009
826998,-1262,-14231,116655,9387,-15842,127438,405,19198,1659,1,16774,0.0010000000000000009
828000,-3694,5090,124096,-60,3537,114549,392,19181,1606,0,16775,0.0010019999999999474
828998,4692,13096,129452,-12006,7708,123115,392,19181,1606,1,16776,0.0009980000000000544
829998,-7088,5643,126289,1019,1960,122141,283,19193,1606,1,16777,0.0010000000000000009
830998,3773,-4278,127651,-7284,-6000,132857,283,19184,1159,0,16778,0.0010000000000000009
831998,-11253,2931,128338,555,760,126591,462,19175,1892,0,16779,0.0010000000000000009
832998,-4160,2969,126833,-13272,-276,125717,429,19193,1757,1,16780,0.0010000000000000009
833998,7620,9747,132320,-8111,4573,134508,283,19186,1159,0,16781,0.0010000000000000009
834998,4345,2038,134496,10585,-223,135257,369,19186,1511,0,16782,0.0009999999999998899
835998,1031,-12662,130850,-11985,-16167,139507,516,19163,1511,1,16783,0.0010000000000000009
836998,-8592,-10212,135702,-6750,-13009,140240,314,19204,2113,1,16784,0.0010000000000000009
837998,9759,-10300,128349,21598,-14416,128107,314,19180,1286,0,16785,0.0010000000000000009
838998,-6746,18152,130725,-12305,14231,121556,378,19175,1548,1,16786,0.0010000000000000009
839998,15856,11175,133007,-26232,8937,129257,281,19200,1151,1,16787,0.0010000000000000009
840998,1969,175,129110,48618,-1102,131540,368,19200,1507,0,16788,0.0010000000000000009
841998,-4356,-19586,122755,-9852,-21973,128274,413,19169,1507,1,16789,0.0010000000000000009
842998,-4327,3199,128040,-24089,4409,122131,254,19166,1692,1,16790,0.0010000000000000009
843998,7761,11839,122753,21140,12487,115235,254,19195,1040,0,16791,0.0010000000000000009
844998,10259,26239,123028,5332,27640,102661,346,19179,1417,0,16792,0.0010000000000000009
845998,-7277,12881,123180,-9042,-5635,126013,433,19161,1773,1,16793,0.0010000000000000009
846998,6369,-13756,117679,5150,-12084,123047,277,19161,1135,0,16794,0.0010000000000000009
847998,-186,2828,125669,5505,2662,121431,392,19183,1135,0,16795,0.0010000000000000009
849000,3985,8647,127729,-8629,4036,122526,400,19180,1606,1,16796,0.0010020000000000584
849998,-5403,5587,125470,-3081,1905,122834,400,19213,1638,1,16797,0.0009979999999999434
850999,-1953,2245,127991,-11424,897,131449,311,19166,1274,0,16798,0.0010010000000000296
851998,-1393,3964,127976,2965,1102,125762,402,19175,1646,1,16799,0.0009989999999999721
852998,-6917,6150,128546,-8418,1479,126618,374,19205,1532,1,16800,0.0010000000000000009
853998,5842,-222,133083,-9339,-7605,141014,301,19205,1532,0,16801,0.0010000000000000009
854998,4267,-9353,134608,3356,-9368,140567,411,19183,1233,0,16802,0.0010000000000000009
855998,-5633,-6620,134242,-210,-6363,135550,411,19168,1683,1,16803,0.0010000000000000009
856998,1439,-4776,131847,-8279,-8585,136908,380,19198,1556,0,16804,0.0010000000000000009
857998,-259,1153,130402,14356,1587,130719,398,19179,1630,0,16805,0.0010000000000000009
858998,5517,96,128312,-23803,-2389,130664,386,19193,1581,1,16806,0.0010000000000000009
859998,14700,17002,135032,12593,23157,116684,287,19193,1581,1,16807,0.0010000000000000009
860998,-1111,1115,131090,30070,-13915,136136,458,19179,1175,0,16808,0.0010000000000000009
861998,-2536,-22429,122249,-32420,-19375,129734,458,19181,1876,1,16809,0.0010000000000000009
862998,-8261,4001,129479,293,89,126308,443,19194,1814,1,16810,0.0010000000000000009
863998,12728,13197,122489,16446,17353,110933,268,19186,1098,0,16811,0.0010000000000000009
864998,3649,36535,125121,-4314,32683,97709,352,19174,1442,0,16812,0.0010000000000000009
865999,1495,-4503,121293,-3320,-14792,135046,518,19174,1442,1,16813,0.0010010000000000296
866998,3554,-12255,117285,6840,-9926,119918,323,19209,2122,0,16814,0.0009989999999999721
867998,-4645,7511,125802,-6562,3267,121312,323,19171,1323,0,16815,0.0010000000000000009
868998,6560,13103,129388,-8123,9892,120117,377,19177,1544,1,16816,0.0010000000000000009
869998,-7988,-1698,125097,11432,-4779,127522,258,19193,1057,1,16817,0.0010000000000000009
870998,1867,1895,126795,-20668,3217,127683,379,19175,1552,0,16818,0.0010000000000000009
871998,-1365,8574,128949,-3480,3323,124751,413,19175,1552,1,16819,0.0010000000000000009
872998,-3710,3527,129301,7190,-247,128204,233,19165,1692,1,16820,0.0010000000000000009
873998,3876,-1781,135111,-19672,-7882,140308,233,19196,954,0,16821,0.0010000000000000009
874998,-3838,-14740,134728,478,-14664,144122,342,19173,1401,0,16822,0.0010000000000000009
875998,-1659,3435,134943,6100,2881,129740,432,19182,1769,1,16823,0.0010000000000000009
877001,-1590,-4996,132763,-15712,-10185,140786,295,19178,1208,0,16824,0.0010029999999999761
878000,10121,-3383,128224,16939,-6057,131178,385,19178,1208,0,16825,0.0009990000000000832
878998,-2197,13643,131500,-3304,8663,124837,372,19176,1577,1,16826,0.0009979999999999434
879998,14055,-6516,129941,-16583,-5434,133016,372,19206,1524,1,16827,0.0010000000000000009
880998,-3271,13385,134494,37168,10460,122873,322,19161,1319,0,16828,0.0010000000000000009
881998,-1250,-29076,117484,-11839,-31983,142459,387,19170,1585,1,16829,0.0010000000000000009
882998,-6604,20876,130069,-16647,17727,108743,400,19206,1638,1,16830,0.0010000000000000009
883998,10599,1402,123623,11692,-1673,129746,315,19206,1290,0,16831,0.0010000000000000009
884999,10504,18353,120983,12040,18454,91105,411,19183,1290,0,16832,0.0010010000000000296
886001,-6090,21724,127790,-10085,20745,134196,371,19166,1683,1,16833,0.0010019999999999474
887000,6436,-19936,117015,-9972,-23283,121934,371,19192,1520,0,16834,0.0009990000000000832
888000,-5271,10608,125081,14303,5625,121357,431,19190,1765,0,16835,0.0010000000000000009
888998,85,3209,127935,-14142,3253,122951,389,19195,1593,1,16836,0.0009979999999999434
889998,1219,12041,127522,-633,4223,118517,303,19195,1241,1,16837,0.0010000000000000009
890998,-74,-5798,127007,-675,-7904,137540,448,19181,1241,0,16838,0.0010000000000000009
891998,4036,5696,129455,-9932,9186,120534,449,19175,1835,1,16839,0.0010000000000000009
892998,-9036,7871,130658,-646,-8122,137258,449,19200,1839,1,16840,0.0010000000000000009
893998,2020,-9797,133421,-5965,-9923,138260,268,19188,1098,0,16841,0.0010000000000000009
894998,-4925,174,136026,-2155,-7093,139262,362,19171,1483,0,16842,0.0010000000000000009
895998,-2154,-12483,132234,-10781,-10134,138747,491,19171,2011,1,16843,0.0010000000000000009
896998,9144,6785,134241,6532,6387,126003,324,19198,2011,0,16844,0.0010000000000000009
897998,2920,-253,128214,16535,-6548,135404,381,19180,1327,0,16845,0.0010000000000000009
899000,3187,812,128570,-31447,1562,124247,381,19181,1560,1,16846,0.0010019999999999474
899998,15621,4790,134549,11341,3215,131908,243,19197,995,1,16847,0.0009980000000000544
900998,-2068,1052,130627,34353,-3970,128239,397,19166,1626,0,16848,0.0010000000000000009
901998,-6516,-7870,123112,-43236,-10892,123289,415,19166,1700,1,16849,0.0010000000000000009
902998,-5152,1183,127120,4863,-3674,129724,246,19166,1700,1,16850,0.0010000000000000009
903998,14220,9569,122480,28906,11236,109868,352,19197,1008,0,16851,0.0010000000000000009
904998,2109,29177,123677,-7002,29228,99824,352,19180,1442,0,16852,0.0010000000000000009
905998,-3119,10714,125497,-12669,-2665,126793,437,19177,1790,1,16853,0.0010000000000000009
906998,2795,-17267,117410,131,-16496,128018,288,19179,1180,0,16854,0.0010000000000000009
908000,-4718,8727,126220,412,7943,119786,374,19176,1532,0,16855,0.0010019999999999474
909000,3495,11467,128460,-5300,4258,119178,355,19176,1532,1,16856,0.0010000000000000009
909998,-2915,-3434,124792,203,-6929,127500,346,19195,1454,1,16857,0.0009980000000000544
910998,6964,-2169,127840,-19861,-1103,132382,346,19153,1417,0,16858,0.0010000000000000009
911998,-431,9801,128766,6195,8570,122791,390,19171,1597,1,16859,0.0010000000000000009
912998,-7087,11736,129617,-1451,2686,127550,365,19206,1495,1,16860,0.0010000000000000009
913998,2533,-7983,134050,-20982,-16009,143856,312,19181,1278,0,16861,0.0010000000000000009
914998,-4251,-13559,135203,11232,-12783,144014,412,19181,1278,1,16862,0.0010000000000000009
916000,-2671,-968,134480,-3234,-592,131169,356,19162,1687,1,16863,0.0010019999999999474
916998,3336,1732,132416,-12249,-2626,132957,356,19184,1458,0,16864,0.0009980000000000544
917998,1146,3950,131669,18102,-16,130545,431,19180,1765,0,16865,0.0010000000000000009
918998,11955,3217,128362,-25446,-1562,128032,388,19191,1589,1,16866,0.0010000000000000009
919998,9853,10533,137211,15903,10696,125996,303,19171,1241,1,16867,0.0010000000000000009
920999,-2002,-7477,128851,24800,-13459,133414,440,19171,1241,0,16868,0.0010010000000000296
921998,-9331,-16537,121647,-37551,-17373,128152,456,19177,1802,1,16869,0.0009989999999999721
922998,-643,16254,129996,3771,10646,120937,456,19204,1868,1,16870,0.0010000000000000009
923999,16622,13017,119668,24098,8851,115366,296,19183,1212,0,16871,0.0010009999999999186
924998,-1348,24881,123632,-534,25160,99098,374,19176,1532,1,16872,0.0009990000000000832
925998,2654,2029,123863,-15884,-1948,126620,524,19200,2146,1,16873,0.0010000000000000009
926999,1795,-10992,118493,3870,-13109,125798,343,19200,1405,0,16874,0.0010009999999999186
927998,-2497,9714,128334,6866,4058,120679,384,19174,1405,0,16875,0.0009990000000000832
928998,-113,1374,124086,-15403,-3668,126541,225,19174,1573,1,16876,0.0010000000000000009
929998,342,3926,125065,2991,2422,120239,225,19192,922,0,16877,0.0010000000000000009
930999,6479,6318,128151,-7368,5113,129640,401,19170,1642,0,16878,0.0010009999999999186
931998,-2856,8146,126950,-8152,4741,123158,408,19178,1671,1,16879,0.0009990000000000832
932998,528,6694,130954,-3057,307,139080,244,19178,999,1,16880,0.0010000000000000009
933998,1615,-12003,132155,-3146,-16559,141684,340,19195,999,0,16881,0.0010000000000000009
934998,-5155,-8765,135383,446,-9844,139701,442,19172,1393,1,16882,0.0010000000000000009
935998,-4412,-6520,134507,-12180,-3875,135879,442,19178,1810,1,16883,0.0010000000000000009
936998,8820,6985,133349,-1025,2105,130355,283,19181,1159,0,16884,0.0010000000000000009
937998,1463,9734,130663,24683,3953,126527,358,19181,1466,1,16885,0.0010000000000000009
938998,3655,3126,129658,-25694,-6467,131398,329,19181,1347,1,16886,0.0010000000000000009
940001,16242,-2030,133129,-3162,-2501,133653,333,19206,1347,0,16887,0.0010029999999999761
941000,-7749,-4698,130647,6564,-12078,128827,397,19161,1364,0,16888,0.0009989999999999721
942000,-4194,-3709,123259,-39719,990,120364,397,19172,1626,1,16889,0.0010000000000000009
942999,-4031,16078,128006,18877,7328,123758,359,19204,1470,0,16890,0.0009989999999999721
943998,20862,7919,117804,16098,11017,108178,321,19181,1315,0,16891,0.0009990000000000832
944998,-1128,26230,124029,-2801,23231,103694,412,19157,1687,1,16892,0.0010000000000000009
945998,-1753,68,124517,-17072,-16625,133242,296,19157,1687,1,16893,0.0010000000000000009
946998,2872,-14516,118944,10421,-7987,122609,409,19192,1212,0,16894,0.0010000000000000009
947998,-6798,13428,128227,-2169,7690,123200,409,19179,1675,1,16895,0.0010000000000000009
948998,2971,7301,124494,-5805,4635,117773,386,19203,1581,1,16896,0.0010000000000000009
949998,-7866,4739,123463,-7860,-243,124404,302,19176,1237,0,16897,0.0010000000000000009
950998,11610,-1167,127153,-13784,-290,132516,440,19175,1802,0,16898,0.0010000000000000009
951999,-2274,10810,128632,18623,10310,120256,458,19175,1802,1,16899,0.0010009999999999186
953001,-625,7570,130424,-19759,-6476,136449,275,19209,1876,0,16900,0.0010020000000000584
953998,4494,-14518,132054,-8374,-17818,145175,275,19184,1126,0,16901,0.0009969999999999146
954998,-5545,-8278,135898,11490,-10186,140661,381,19172,1560,1,16902,0.0010000000000000009
955998,-3664,-1728,134472,-18208,-1553,133313,447,19199,1831,1,16903,0.0010000000000000009
956998,3343,5638,133196,11215,611,129900,334,19171,1368,0,16904,0.0010000000000000009
957998,1765,6463,129706,8742,-4227,132959,381,19171,1368,1,16905,0.0010000000000000009
958998,10574,486,128368,-32436,45,125683,230,19177,1560,1,16906,0.0010000000000000009
959998,1909,14315,137346,35529,8244,129166,230,19188,942,0,16907,0.0010000000000000009
961001,-3643,-17958,123688,3305,-23470,135716,426,19174,1745,0,16908,0.0010030000000000872
961998,-10676,-3073,124940,-32422,-674,120711,423,19173,1732,1,16909,0.0009969999999999146
962998,6965,13850,125927,16308,6089,126002,259,19194,1061,0,16910,0.0010000000000000009
963998,18257,16937,117778,15286,18760,102661,351,19194,1061,0,16911,0.0010000000000000009
964998,-3652,23705,126632,-4757,17653,108981,459,19169,1438,1,16912,0.0010000000000000009
965998,4289,-12571,120110,-15475,-17294,132618,459,19180,1880,1,16913,0.0010000000000000009
966998,-1791,124,122311,10700,1044,117832,298,19173,1221,0,16914,0.0010000000000000009
968000,-2608,12602,127638,-2213,5198,124619,356,19180,1458,1,16915,0.0010020000000000584
968998,-1721,5735,123339,-16329,3082,118139,318,19199,1302,1,16916,0.0009979999999999434
969998,-3242,260,125582,4130,-2874,127833,345,19199,1413,0,16917,0.0010000000000000009
970998,4476,2869,127403,-10201,1560,128401,401,19163,1413,0,16918,0.0010000000000000009
971998,-5174,10205,129598,-6910,6852,123137,352,19171,1642,1,16919,0.0010000000000000009
972998,5493,3742,130745,-2078,-4119,136696,352,19205,1442,0,16920,0.0010000000000000009
973998,2530,-8790,130318,1246,-12938,138993,327,19177,1339,0,16921,0.0010000000000000009
974998,-4334,-6570,134529,-3639,-9387,139287,414,19159,1696,1,16922,0.0010000000000000009
975998,-2155,-7655,133578,-14072,-10420,139434,278,19159,1139,1,16923,0.0010000000000000009
976998,6967,216,131786,10258,-3089,134081,408,19192,1139,0,16924,0.0010000000000000009
977998,-1468,15476,129929,12154,8874,122693,390,19180,1671,1,16925,0.0010000000000000009
978998,5583,5633,129318,-37327,2446,134543,390,19198,1597,1,16926,0.0010000000000000009
979998,8241,-4431,131376,22977,-7352,132139,292,19177,1196,0,16927,0.0010000000000000009
980998,-8540,-8559,125387,26879,-9938,127460,442,19180,1810,0,16928,0.0010000000000000009
981998,-4747,-1763,124375,-42488,-6934,117584,476,19180,1950,1,16929,0.0010000000000000009
982998,6191,17339,127263,9141,5011,124063,287,19209,1950,0,16930,0.0010000000000000009
983999,17060,3746,115975,23155,13910,107380,393,19184,1175,0,16931,0.0010010000000000296
984998,-4477,28708,125440,-3529,22577,106554,393,19168,1610,1,16932,0.0009989999999999721
985998,-293,-2669,122393,-16154,-21256,135714,470,19200,1925,1,16933,0.0010000000000000009
986998,1584,-10669,120763,2142,-1190,118897,341,19180,1397,0,16934,0.0010000000000000009
987998,-1658,15094,129000,-5306,6905,123572,388,19175,1589,1,16935,0.0010000000000000009
988998,-3403,5021,124321,-957,2693,120781,251,19175,1589,1,16936,0.0010000000000000009
989998,-4694,2065,125927,-13700,-1749,127806,441,19192,1028,0,16937,0.0010000000000000009
990999,5427,683,129304,-420,122,133199,441,19170,1806,0,16938,0.0010010000000000296
991998,-4586,12242,129025,6135,11056,118309,414,19181,1696,1,16939,0.0009989999999999721
992998,2403,6535,131755,-25706,-7734,139578,272,19188,1114,0,16940,0.0010000000000000009
993998,3412,-16901,132962,3009,-18640,146944,359,19177,1470,0,16941,0.0010000000000000009
994998,-4665,-8569,132669,9455,-5321,134921,456,19177,1470,1,16942,0.0010000000000000009
995998,661,-2747,132141,-17518,-8256,136480,297,19180,1868,1,16943,0.0010000000000000009
996998,4437,6516,132890,23090,7657,126244,297,19171,1216,0,16944,0.0010000000000000009
997998,4576,3313,125502,-10236,-7926,136558,355,19173,1454,1,16945,0.0010000000000000009
998998,9005,4762,130074,-12806,15373,118541,325,19206,1331,1,16946,0.0010000000000000009
1000018,1380,11318,134856,39546,-4334,134138,328,19166,1343,0,16947,0.0010199999999999099
1000998,-2771,-31105,119489,-12271,-28842,136590,401,19166,1343,0,16948,0.000980000000000203
1001998,-7064,4993,129827,-21395,7241,118222,355,19169,1642,1,16949,0.0009999999999998899
1002998,11448,12916,122369,16925,11002,122247,355,19197,1454,0,16950,0.001000000000000112
1003998,7860,35351,121395,3312,36641,90760,354,19178,1450,0,16951,0.0009999999999998899
1004998,3281,10905,124964,-6821,-3070,127611,423,19156,1732,1,16952,0.001000000000000112
1005998,-1825,-19427,117274,7138,-20177,129217,285,19189,1167,1,16953,0.0009999999999998899
1006998,-837,3380,125897,-2918,2231,117088,393,19189,1167,0,16954,0.001000000000000112
1007998,-502,13238,130189,-5069,8594,124020,400,19179,1610,1,16955,0.0009999999999998899
1008998,-6056,4308,124763,1484,1521,119931,400,19205,1638,1,16956,0.001000000000000112
1010000,-1535,1354,128425,-19588,299,130799,301,19171,1233,0,16957,0.0010019999999999474
1010998,-2698,5113,129229,1383,2000,127430,457,19173,1872,0,16958,0.0009980000000000544
1011998,-6948,3037,126596,6863,-235,125022,458,19208,1876,1,16959,0.0009999999999998899
1012998,7889,2089,131499,-23601,-2773,135812,283,19208,1876,0,16960,0.001000000000000112
1013998,2859,-3825,133591,10982,-4378,138417,399,19183,1159,0,16961,0.0009999999999998899
1014998,5721,-4094,132568,-4611,-7702,137773,399,19169,1634,1,16962,0.0009999999999998899
1015998,-10515,-9859,135498,-12890,-12594,139206,445,19200,1823,1,16963,0.001000000000000112
1016998,9776,-6283,130106,20388,-10470,137896,347,19174,1421,0,16964,0.0009999999999998899
1017998,-9056,6520,128312,-1609,3379,127725,383,19182,1569,1,16965,0.001000000000000112
1018998,14737,5265,130592,-35565,4670,126433,255,19182,1044,1,16966,0.0009999999999998899
1019998,6797,15324,132515,47812,13147,124793,464,19186,1044,0,16967,0.001000000000000112
1020998,-3182,-16695,121390,6133,-19126,129839,426,19179,1900,1,16968,0.0009999999999998899
1021998,-4161,1590,128196,-37943,-2509,122851,426,19180,1745,1,16969,0.001000000000000112
1022998,4763,-2504,122785,21533,-6468,132252,257,19192,1053,0,16970,0.0009999999999998899
1023998,12787,27450,122743,11809,26982,99066,351,19177,1438,0,16971,0.001000000000000112
1024998,-11212,21724,126246,-13524,20884,109971,463,19177,1896,1,16972,0.0009999999999998899
1025998,10644,-17940,116663,-9733,-21188,123621,300,19185,1896,0,16973,0.001000000000000112
1026998,-2135,4013,123808,16733,-664,120037,355,19171,1229,0,16974,0.0009999999999998899
1027998,4310,11322,129079,-7016,7507,118869,355,19185,1454,1,16975,0.001000000000000112
1028998,-3744,7413,126116,-4589,7723,126098,306,19197,1253,1,16976,0.0009999999999998899
1029998,-4529,-7784,127021,-7523,-4539,134870,337,19165,1380,0,16977,0.001000000000000112
1030998,3543,8237,130063,-9739,6259,122138,403,19165,1651,1,16978,0.0009999999999998899
1031998,-13237,7816,128337,9262,-242,128811,303,19165,1651,1,16979,0.001000000000000112
1032998,7563,272,134079,-20780,-8368,140267,333,19200,1241,0,16980,0.0009999999999998899
1033999,789,-10693,135424,-4503,-11902,143411,333,19177,1364,0,16981,0.0010010000000000296
1034998,-2600,-6427,133425,-1957,-4132,133133,420,19160,1720,1,16982,0.0009989999999999721
1036000,3000,-3222,132299,-11257,-7564,135203,261,19186,1069,0,16983,0.0010020000000001694
1036998,-984,-1659,130019,16313,-986,133698,392,19175,1606,0,16984,0.0009979999999998324
1037999,8147,2850,127935,-24111,1598,125683,403,19175,1606,1,16985,0.0010010000000000296
1039000,10004,19035,136358,10313,21559,119226,322,19202,1651,1,16986,0.0010010000000000296
1039998,639,1243,131903,27336,-17823,137784,322,19172,1319,0,16987,0.0009980000000000544
1040998,-6776,-26193,121160,-31972,-21041,129432,454,19175,1859,1,16988,0.0009999999999998899
1041998,-5840,6334,130281,1708,3360,125851,493,19207,2019,1,16989,0.001000000000000112
1042998,13605,11657,122482,21001,15176,110143,290,19181,1188,0,16990,0.0009999999999998899
1043998,2272,32951,123913,-9165,30539,98802,397,19181,1188,0,16991,0.001000000000000112
1044998,2003,1135,123305,-4886,-11254,132830,419,19167,1626,1,16992,0.0009999999999998899
1045998,1543,-12048,117425,7570,-8616,120327,419,19197,1716,0,16993,0.001000000000000112
1046999,-1656,6858,124114,-1470,2937,121516,360,19186,1474,0,16994,0.0010010000000000296
1047998,1277,10315,128088,-10915,8777,118314,384,19187,1573,1,16995,0.0009989999999999721
1049000,-73,7723,128209,-8043,2276,125334,268,19183,1098,1,16996,0.0010019999999999474
1049998,5988,-6456,127891,5405,-6720,134292,482,19183,1098,0,16997,0.0009980000000000544
1050998,-9449,401,127019,1425,-3241,125314,426,19182,1974,1,16998,0.0009999999999998899
1051998,-4682,1982,127810,-30752,-1896,130410,426,19191,1745,1,16999,0.001000000000000112
1052998,2756,9787,137305,7987,7671,133836,255,19196,1044,0,17000,0.0009999999999998899
1053998,3213,-123,134387,4737,-4173,138922,342,19171,1401,0,17001,0.001000000000000112
1055000,-4923,-11059,133320,-18101,-13546,135845,468,19189,1917,1,17002,0.0010019999999999474
1055998,61,-11658,133973,12815,-14391,140960,323,19189,1917,0,17003,0.0009980000000000544
1056998,3586,-3845,128155,7444,-7351,134134,369,19168,1323,0,17004,0.0009999999999998899
1057998,7516,14353,134199,-34106,14838,119889,369,19175,1511,1,17005,0.001000000000000112
1058998,11490,23570,139121,25542,20456,125827,311,19197,1274,1,17006,0.0009999999999998899
1059999,-1121,-15381,123554,22526,-19517,133740,351,19167,1438,0,17007,0.0010010000000000296
1060999,-10623,-12672,128025,-35493,-14919,128662,411,19163,1683,1,17008,0.001000000000000112
1062000,1934,-5440,124125,5128,-10274,131201,285,19163,1167,1,17009,0.0010010000000000296
1063000,8995,25741,125223,25212,26426,101883,333,19199,1167,0,17010,0.0009999999999998899
1063998,1955,25234,126421,-13405,22351,110998,333,19175,1364,0,17011,0.0009980000000000544
1064998,1382,-5700,117786,-5709,-7615,125109,424,19163,1737,1,17012,0.0009999999999998899
1065998,-813,203,120985,8883,-1764,118784,256,19188,1049,0,17013,0.001000000000000112
1066998,3905,3644,124443,-5023,-1317,124121,384,19176,1573,0,17014,0.0009999999999998899
1067998,-1032,8133,127274,-1814,4511,118848,412,19176,1687,1,17015,0.001000000000000112
1068998,3079,-7765,125530,-3918,-8395,132966,332,19207,1687,1,17016,0.0009999999999998899
1069998,2148,11446,128848,-7924,9840,121814,433,19167,1360,0,17017,0.001000000000000112
1070998,-4162,4650,127137,1989,2224,128814,433,19173,1773,1,17018,0.0009999999999998899
1071998,-738,1867,128012,-12894,-3941,128852,412,19209,1687,1,17019,0.001000000000000112
1072998,936,2300,136304,-5780,-940,144208,290,19182,1188,0,17020,0.0009999999999998899
1073998,4104,-11657,134342,1851,-12297,139084,414,19182,1696,0,17021,0.001000000000000112
1074998,-11234,-5529,135226,-795,-7662,132991,412,19165,1696,1,17022,0.0009999999999998899
1075998,9534,-4391,133062,-10420,-7398,140466,375,19193,1687,0,17023,0.001000000000000112
1076998,-2846,6444,130109,24677,5525,124474,375,19179,1536,0,17024,0.0009999999999998899
1077998,7960,5663,129860,-20173,-724,129793,385,19180,1577,1,17025,0.001000000000000112
1078999,15944,9923,135767,-6412,9659,124947,275,19181,1126,1,17026,0.0010010000000000296
1079998,-3489,-3306,130344,47853,-17086,132143,482,19174,1974,0,17027,0.0009989999999999721
1080998,-1866,-17064,124260,-29286,-14238,130097,434,19174,1974,1,17028,0.0009999999999998899
1081998,-7092,4085,127545,19665,2160,123769,263,19183,1778,1,17029,0.001000000000000112
1082998,15334,19595,122207,11874,23625,104051,263,19189,1077,0,17030,0.0009999999999998899
1083998,-1623,33333,125155,-7790,23356,104256,346,19175,1417,0,17031,0.001000000000000112
1084998,2306,-3863,121563,-7711,-16428,132737,475,19189,1945,1,17032,0.0009999999999998899
1085998,2214,-14076,117583,6891,-8573,121567,316,19172,1294,0,17033,0.001000000000000112
1086999,-3157,10826,127175,-5097,8454,118663,368,19172,1294,0,17034,0.0010010000000000296
1088000,4111,10759,127941,-3025,1429,123959,295,19178,1507,1,17035,0.0010009999999998076
1089001,-4934,-6994,123404,-3423,-7637,127904,295,19197,1208,1,17036,0.0010010000000000296
1089998,6597,7343,128773,-19178,8986,126578,355,19165,1454,0,17037,0.0009970000000001367
1090998,-4124,5652,126571,8679,1814,124928,406,19172,1663,1,17038,0.0009999999999998899
1091998,145,9269,130279,-7186,1718,128496,247,19200,1012,1,17039,0.001000000000000112
1092998,4640,-8990,134059,-10313,-19191,149239,325,19200,1012,0,17040,0.0009999999999998899
1093998,-3478,-11687,134779,8806,-9092,137155,423,19180,1331,1,17041,0.001000000000000112
1094998,-6505,890,135574,-10211,-1342,133414,423,19161,1732,1,17042,0.0009999999999998899
1095998,5484,-5571,131033,-6660,-8758,138099,266,19189,1089,0,17043,0.001000000000000112
1096998,1635,12771,131882,18966,10975,121953,389,19184,1593,0,17044,0.0009999999999998899
1097998,8236,263,128181,-27119,-9194,135201,405,19213,1659,1,17045,0.001000000000000112
1098998,12659,8956,135658,18539,11138,121739,314,19213,1659,0,17046,0.0009999999999998899
1099998,-7512,-7226,129381,17175,-17082,136821,419,19173,1286,0,17047,0.001000000000000112
1100998,-5791,-13003,121222,-34307,-8825,124321,419,19169,1716,1,17048,0.0009999999999998899
1101998,-2719,19829,129888,9722,10883,119967,441,19209,1806,1,17049,0.001000000000000112
1102998,18312,3847,116456,17924,2594,117531,292,19183,1196,0,17050,0.0009999999999998899
1103998,336,36070,126371,-1152,35247,92584,401,19165,1642,1,17051,0.001000000000000112
1104999,843,-8778,122107,-11322,-16432,137656,388,19165,1642,1,17052,0.0010009999999998076
1105998,3800,-10558,118391,1352,-9343,120112,376,19196,1589,0,17053,0.0009990000000001942
1106998,-5630,12115,128821,1256,4897,123898,376,19182,1540,0,17054,0.0009999999999998899
1107998,3007,5450,123490,-9575,1658,122354,382,19194,1565,1,17055,0.001000000000000112
1108998,-2636,5781,124360,-122,2564,119371,280,19182,1147,0,17056,0.0009999999999998899
1109998,3615,1388,128751,-12301,503,134477,455,19180,1864,0,17057,0.001000000000000112
1111001,277,8351,127227,-9119,4185,121888,430,19180,1761,1,17058,0.0010029999999998651
1111998,-4241,2756,130707,6494,-4914,134802,262,19189,1761,1,17059,0.0009970000000001367
1113002,4521,-7433,131857,-7105,-12750,138085,344,19186,1073,0,17060,0.0010040000000000049
1113998,-7476,-5833,135210,-5818,-7036,138142,344,19174,1409,1,17061,0.0009959999999999969
1114998,1858,-582,136867,-6383,-2665,138752,494,19206,2023,1,17062,0.0009999999999998899
1115998,3696,-997,131475,501,-4324,133067,311,19175,1274,0,17063,0.001000000000000112
1116998,-2893,5393,131650,16849,-1879,128664,372,19175,1524,1,17064,0.0009999999999998899
1117998,6226,4552,130739,-26534,1046,127533,281,19174,1524,1,17065,0.001000000000000112
1118998,11063,-3831,131510,3898,-7578,135432,374,19193,1151,0,17066,0.0009999999999998899
1119998,-2626,11122,131815,39755,11241,124236,374,19162,1532,0,17067,0.001000000000000112
1120998,-7319,-5670,121074,-38184,-9811,121196,414,19164,1696,1,17068,0.0009999999999998899
1121998,2163,14153,128563,-5553,7677,125252,234,19200,958,0,17069,0.001000000000000112
1122998,17870,-6311,116419,30686,-10273,117238,337,19200,1380,0,17070,0.0009999999999998899
1123998,-3138,24633,123714,-80,32072,97092,440,19172,1380,1,17071,0.001000000000000112
1124998,-2307,12580,127149,-18581,-10314,134131,279,19170,1802,1,17072,0.0009999999999998899
1125998,2375,-15537,117075,-2941,-7299,123360,279,19181,1143,0,17073,0.001000000000000112
1126999,-862,14706,125789,10039,9573,118711,385,19173,1577,1,17074,0.0010009999999998076
1127998,-1848,6689,123430,-9077,4239,119849,395,19204,1618,1,17075,0.0009990000000001942
1128998,43,2972,123929,-8267,-2445,125756,325,19163,1331,0,17076,0.0009999999999998899
1129998,7570,-2959,129237,156,-1863,135284,404,19163,1331,0,17077,0.001000000000000112
1130998,-4015,8672,128724,2521,7072,121422,415,19180,1655,1,17078,0.0009999999999998899
1131998,-1681,7516,129934,-20055,-3637,134269,415,19209,1700,0,17079,0.001000000000000112
1132998,5403,-7228,133944,-2800,-14044,146203,288,19176,1180,0,17080,0.0009999999999998899
1133998,-4201,-12320,133265,11558,-11127,138303,404,19167,1655,1,17081,0.0009999999999998899
1134998,-349,-526,134320,-15053,-4983,133835,383,19196,1569,1,17082,0.001000000000000112
1136000,437,4819,133683,19939,1407,129604,397,19196,1569,0,17083,0.0010019999999999474
1136998,3092,-408,125298,-6211,-12846,137804,383,19178,1626,1,17084,0.0009980000000000544
1138000,9201,7083,130521,-16160,15252,119811,383,19193,1569,1,17085,0.0010019999999999474
1139000,-928,13193,133754,37550,139,131701,270,19183,1106,0,17086,0.001000000000000112
1139998,-2048,-21734,120867,-12035,-21172,133149,442,19179,1810,0,17087,0.0009979999999998324
1141000,-7117,-2359,128296,-21042,-2256,124042,442,19194,1810,1,17088,0.0010020000000001694
1142000,13756,7156,121651,22143,5862,123417,275,19194,1810,0,17089,0.0009999999999998899
1143000,9164,32653,121392,1636,33587,93466,356,19180,1126,0,17090,0.001000000000000112
1144000,2769,11953,125110,-14524,991,123782,356,19164,1458,1,17091,0.0009999999999998899
1145000,-1603,-8471,119138,11204,-9713,126133,507,19201,2077,1,17092,0.001000000000000112
1146000,-5878,814,122537,-1153,-1438,119184,311,19175,1274,0,17093,0.0009999999999998899
1146998,1298,14347,128299,-13439,10118,118790,379,19172,1552,1,17094,0.0009980000000000544
1147999,-6393,7343,126630,-1905,704,123171,268,19172,1552,1,17095,0.0010010000000000296
1148998,5771,-7569,126634,-3506,-8190,131389,383,19194,1098,0,17096,0.0009989999999999721
1149998,-8492,5094,129643,2594,1969,127913,383,19166,1569,0,17097,0.0009999999999998899
1150998,-5794,107,124887,-18477,-1062,126469,410,19162,1679,1,17098,0.001000000000000112
1152001,6877,17060,132139,-5528,11418,128510,244,19194,999,0,17099,0.0010030000000000872
1152998,6636,606,133387,9727,-4591,140654,349,19169,1429,0,17100,0.0009969999999999146
1153998,2017,-17628,129913,-11428,-21535,139396,431,19169,1765,1,17101,0.0009999999999998899
1154998,-7847,-10030,136213,-3232,-12300,140022,282,19172,1765,1,17102,0.001000000000000112
1155998,7068,-6685,129261,20573,-9068,138114,380,19184,1155,0,17103,0.0009999999999998899
1156998,-3331,15787,128605,-21232,10928,121968,380,19180,1556,1,17104,0.001000000000000112
1157998,15665,17189,135019,-13607,13747,126339,409,19204,1675,1,17105,0.0009999999999998899
1158998,1256,-5264,127496,47791,-7860,132693,309,19165,1266,0,17106,0.001000000000000112
1159998,-6326,-17080,125576,-23567,-19211,128969,381,19165,1560,0,17107,0.0009999999999998899
1160998,-1441,-1159,128269,-15392,-5016,128392,401,19173,1560,1,17108,0.001000000000000112
1161998,8523,16534,120947,26066,11053,116605,325,19201,1642,0,17109,0.0009999999999998899
1162998,9516,29555,124038,-2239,27062,104180,325,19181,1331,0,17110,0.001000000000000112
1163998,-4766,4264,121228,-8054,2930,121235,419,19158,1716,1,17111,0.0009999999999998899
1164998,2920,-7165,118756,-6118,-9816,121395,395,19199,1618,1,17112,0.001000000000000112
1165998,354,4786,127776,8250,1743,123188,403,19199,1651,0,17113,0.0009999999999998899
1166998,3967,5657,125456,-3019,-137,124517,391,19180,1651,1,17114,0.001000000000000112
1167998,-4327,-2171,123420,-5307,-5149,123170,296,19193,1601,1,17115,0.0009999999999998899
1168998,-325,11094,128583,-10354,8367,125683,296,19183,1212,0,17116,0.001000000000000112
1169998,-2307,5258,126399,-4193,4705,128259,460,19174,1884,0,17117,0.0009999999999998899
1170998,-6234,5581,128627,1237,5076,125058,437,19193,1790,1,17118,0.001000000000000112
1171998,5138,2124,132608,-17955,-10088,143737,277,19184,1135,0,17119,0.0009999999999998899
1172998,5110,-11502,133129,2884,-9929,138127,371,19184,1135,0,17120,0.001000000000000112
1173998,-5213,-5824,134799,8617,-8915,137044,525,19173,1520,1,17121,0.0009999999999998899
1174998,-1749,-11700,131295,-10024,-13724,141455,525,19203,2150,1,17122,0.001000000000000112
1175998,3498,6891,131446,17605,11626,125020,318,19183,1302,0,17123,0.0009999999999998899
1176998,2269,8735,128219,-23748,595,130329,380,19177,1556,1,17124,0.001000000000000112
1177998,12330,13008,132486,9746,18880,117431,244,19186,999,1,17125,0.0009999999999998899
1178998,300,-2396,132497,28305,-20909,141180,398,19186,999,0,17126,0.001000000000000112
1179998,-1443,-29656,121960,-24282,-21594,131591,419,19173,1630,0,17127,0.0009999999999998899
1180998,-6952,10566,130407,-2570,9001,119989,419,19162,1716,1,17128,0.001000000000000112
1181998,11624,16530,121696,10943,18014,112570,233,19195,954,0,17129,0.0009999999999998899
1182998,7175,36034,123680,-2362,31848,97109,338,19174,1384,0,17130,0.001000000000000112
1183998,898,-2457,121354,-359,-15655,135238,435,19174,1782,1,17131,0.0009999999999998899
1184998,3662,-15129,117465,8206,-11818,120400,288,19174,1782,1,17132,0.001000000000000112
1186001,-6375,6204,127410,-3652,2470,121569,387,19187,1180,0,17133,0.0010029999999998651
1186998,3945,11595,127918,-15366,8453,121639,387,19177,1585,1,17134,0.0009970000000001367
1188000,-4163,6233,125393,14592,1516,123398,386,19207,1581,1,17135,0.0010019999999999474
1188998,-4014,-1556,125429,-10292,-805,129494,314,19165,1286,0,17136,0.0009980000000000544
1189998,-426,7355,127365,-20282,3024,122826,384,19164,1573,0,17137,0.0009999999999998899
1190998,-3771,4293,130730,12554,1984,130389,364,19164,1573,1,17138,0.001000000000000112
1191998,7035,4305,134219,-10133,-3342,137453,309,19201,1491,0,17139,0.0009999999999998899
1192999,-3922,-17046,133238,-14149,-18229,143907,309,19181,1266,0,17140,0.0010010000000000296
1194000,-2968,-4235,135041,9959,-4300,135595,412,19167,1687,1,17141,0.0010010000000000296
1194998,-1003,-3244,131737,-7838,-8132,137368,317,19197,1298,1,17142,0.0009980000000000544
1195998,7880,2216,130553,8582,1035,128679,410,19185,1679,0,17143,0.0009999999999998899
1196998,846,19274,133044,-2421,12227,124400,391,19185,1679,1,17144,0.001000000000000112
1197998,9602,-13112,126580,-13478,-12757,135551,292,19189,1601,1,17145,0.0009999999999998899
1198998,-3547,10623,136264,34702,7643,125401,292,19181,1196,0,17146,0.001000000000000112
1199998,-1995,-28283,119323,-10139,-32435,142435,455,19170,1864,1,17147,0.0009999999999998899
1200998,-6367,16085,127816,-15299,16578,109557,449,19199,1839,1,17148,0.001000000000000112
1201998,11864,14709,125374,9019,9421,124489,275,19181,1126,0,17149,0.0009999999999998899
1202998,11115,13709,118699,12686,15180,105944,372,19181,1524,0,17150,0.001000000000000112
1203998,-5201,19301,126594,-7115,15811,108516,515,19175,1524,1,17151,0.0009999999999998899
1204998,4244,-20857,118300,-11827,-24070,138729,323,19205,2109,0,17152,0.001000000000000112
1205998,-3355,10535,125547,13465,6601,114251,323,19174,1323,0,17153,0.0009999999999998899
1206998,-881,5889,128341,-10891,2542,127561,374,19177,1532,1,17154,0.001000000000000112
1207998,-1169,8747,125975,-4190,9188,115696,228,19193,934,1,17155,0.0009999999999998899
1208998,-773,-2128,126501,-1402,-3955,128701,407,19193,1667,0,17156,0.001000000000000112
1209998,4384,5730,129958,-9142,3396,127846,423,19167,1667,1,17157,0.0009999999999998899
1210998,-8503,7008,130641,1793,3585,126042,239,19174,1732,1,17158,0.001000000000000112
1211998,359,-6936,133194,-10556,-10432,140752,239,19195,979,0,17159,0.0009999999999998899
1212999,-2949,-1335,136202,-7187,-2547,141017,337,19170,1380,0,17160,0.0010010000000000296
1213998,-3856,-14078,131982,2003,-16228,138762,434,19182,1778,1,17161,0.0009989999999999721
1214999,9154,1765,132893,-6477,-2301,128174,289,19178,1184,0,17162,0.0010010000000000296
1216000,3037,4341,129654,20030,-804,131898,385,19178,1184,0,17163,0.0010010000000000296
1216998,3819,1821,128663,-5509,-996,126577,364,19175,1577,1,17164,0.0009980000000000544
1217998,13058,4826,134370,-28031,7240,128181,364,19203,1491,1,17165,0.0009999999999998899
1218999,-2287,181,131130,47491,-10161,133004,327,19159,1339,0,17166,0.0010010000000000296
1219999,-4911,-14212,122197,-9707,-12925,124516,387,19177,1585,1,17167,0.001000000000000112
1220998,-7443,3363,128479,-27966,-740,127633,385,19202,1577,1,17168,0.0009989999999999721
1221998,15919,12194,123203,26926,17050,108654,320,19202,1577,0,17169,0.0009999999999998899
1222998,3521,32081,123627,-2621,28942,99565,412,19180,1311,0,17170,0.001000000000000112
1223998,-1354,2514,123211,-14732,-12253,131788,412,19162,1687,1,17171,0.0009999999999998899
1224998,660,-15982,117719,2069,-11857,124028,335,19198,1372,0,17172,0.001000000000000112
1225998,-3678,9897,125908,-550,8312,120069,419,19182,1716,0,17173,0.0009999999999998899
1226998,3896,12298,129586,-4986,5739,119839,387,19194,1585,1,17174,0.001000000000000112
1227998,-3545,-2761,124540,-2077,-7627,127984,318,19194,1585,1,17175,0.0009999999999998899
1229000,6825,-339,126787,-13870,2838,128031,448,19179,1302,0,17176,0.0010019999999999474
1229998,-894,11580,129566,5627,6918,123070,448,19171,1835,1,17177,0.0009980000000000544
1230998,-5883,4433,129155,-8688,-3656,132039,450,19197,1843,1,17178,0.001000000000000112
1231998,1224,-4540,135342,-12230,-10723,141573,273,19185,1118,0,17179,0.0009999999999998899
1232998,-3912,-9979,135040,7873,-9395,141722,373,19173,1528,0,17180,0.001000000000000112
1233998,-1510,-2551,133969,-6839,-3609,132973,491,19173,1528,1,17181,0.0009999999999998899
1234998,3171,-4795,133148,-8947,-9243,137554,342,19196,2011,0,17182,0.001000000000000112
1235998,7710,1894,128442,24119,1988,128727,342,19177,1401,0,17183,0.0009999999999998899
1236998,534,8715,129365,-20369,3622,126970,383,19177,1569,1,17184,0.001000000000000112
1237998,14305,3647,134154,-4263,6120,127560,254,19192,1040,1,17185,0.0009999999999998899
1238998,-955,592,130714,39407,-6435,131440,419,19169,1716,0,17186,0.001000000000000112
1240001,-5522,-20011,120937,-27753,-20020,130860,426,19169,1716,1,17187,0.0010029999999998651
1240998,-1461,12180,129747,-11621,7707,119568,255,19172,1745,1,17188,0.0009970000000001367
1241998,10683,6609,122123,26553,3766,121059,255,19193,1044,0,17189,0.0009999999999998899
1242998,5826,32338,123295,-3378,34067,94322,349,19171,1429,0,17190,0.001000000000000112
1243998,-2105,11041,125750,-9386,3588,123904,445,19176,1823,1,17191,0.0009999999999998899
1244998,1812,-22133,116537,4746,-24134,133405,306,19177,1253,0,17192,0.001000000000000112
1245998,-1467,5763,124898,-2498,2452,117075,371,19177,1520,0,17193,0.0009999999999998899
1246998,595,14389,130085,-7583,9904,121759,343,19178,1520,1,17194,0.001000000000000112
1247998,3195,3741,125775,4749,1966,121091,335,19202,1405,1,17195,0.0009999999999998899
1248998,-2324,-2871,128251,-14237,-4011,133636,335,19163,1372,0,17196,0.001000000000000112
1250000,-130,3549,128752,-9969,523,129388,393,19171,1610,1,17197,0.0010019999999999474
1250999,-7542,2591,126783,9652,-2747,126282,354,19205,1450,1,17198,0.0009989999999999721
1251998,4591,4579,135094,-13620,795,132879,310,19205,1270,0,17199,0.0009989999999999721
1253000,-233,-7326,135028,-6661,-8111,142918,402,19182,1270,0,17200,0.0010019999999999474
1253998,-221,-5954,134949,6321,-7784,137772,305,19164,1646,1,17201,0.0009980000000000544
1254998,4260,-5941,133390,-9672,-9118,135779,305,19193,1249,0,17202,0.0009999999999998899
1255998,-5420,144,130480,19637,-5379,131159,408,19173,1671,0,17203,0.001000000000000112
1256998,-132,-417,127686,-14879,-4077,134855,384,19197,1573,1,17204,0.0009999999999998899
1257998,20532,9191,132759,-20991,5570,125667,284,19197,1163,1,17205,0.001000000000000112
1258998,1007,21809,133531,55496,24000,117387,428,19182,1163,0,17206,0.0009999999999998899
1259998,-129,-22623,117945,-17331,-25851,128082,462,19174,1753,1,17207,0.001000000000000112
1260998,-8310,-3103,128693,-26933,-9616,132283,462,19203,1892,1,17208,0.0009999999999998899
1261998,14060,-689,121785,24836,-6076,112446,289,19184,1184,0,17209,0.001000000000000112
1262998,-708,44685,125483,6897,42476,90086,383,19167,1569,0,17210,0.0009999999999998899
1263998,-4963,8357,125051,-16307,14645,139201,510,19202,2089,1,17211,0.001000000000000112
1264998,7726,-21198,114431,-8163,-11208,120275,332,19202,2089,0,17212,0.0009999999999998899
1265998,-1825,13786,126573,15519,9814,117539,385,19170,1360,0,17213,0.001000000000000112
1266998,4478,9853,128154,-4316,2543,121967,385,19173,1577,1,17214,0.0009999999999998899
1267998,-3037,-4637,123963,-6298,-9946,129529,230,19185,942,1,17215,0.001000000000000112
1268999,4008,-1873,129345,-13577,3536,134074,417,19176,1708,0,17216,0.0010010000000000296
1269998,-4526,11983,128006,9340,8094,119907,407,19178,1667,1,17217,0.0009989999999999721
1270998,-5498,9940,128200,-13400,-168,128947,247,19178,1667,1,17218,0.0009999999999998899
1271998,9455,-6146,134194,-10480,-15339,147142,344,19192,1012,0,17219,0.001000000000000112
1272998,-2677,-11252,135215,14635,-9932,138918,344,19169,1409,1,17220,0.0009999999999998899
1273998,-2118,-1704,135618,-15048,-5312,134033,456,19180,1868,1,17221,0.001000000000000112
1274998,-141,-4924,132531,4464,-7045,136205,292,19177,1196,0,17222,0.0009999999999998899
1275998,263,6774,130483,6976,-553,131841,358,19180,1466,0,17223,0.001000000000000112
1276998,10868,5840,128663,-28730,4088,125695,352,19180,1466,1,17224,0.0009999999999998899
1277998,8170,19934,137414,30989,14245,122585,324,19205,1442,0,17225,0.001000000000000112
1279007,728,-15383,125542,6547,-24852,136531,324,19169,1327,0,17226,0.0010090000000000376
1279998,-9292,-12594,124224,-31426,-9845,125224,397,19171,1626,1,17227,0.0009909999999999641
1280998,2407,7060,127024,19113,520,128807,363,19202,1487,1,17228,0.0009999999999998899
1281998,11926,17750,119002,13228,20584,103688,331,19178,1356,0,17229,0.001000000000000112
1282998,-2611,31754,126894,-13930,25292,104312,416,19178,1356,1,17230,0.0009999999999998899
1283998,3341,-8366,120258,-3373,-14211,132146,323,19160,1704,1,17231,0.001000000000000112
1285001,1571,-5014,119131,8563,-4430,117737,323,19193,1323,0,17232,0.0010029999999998651
1285998,-2849,9099,127369,-10892,3262,122299,400,19183,1638,0,17233,0.0009970000000001367
1286998,2092,9820,125267,-10647,5395,119570,391,19199,1601,1,17234,0.0009999999999998899
1287998,-1942,-3063,125069,11251,-6441,130846,297,19169,1216,0,17235,0.001000000000000112
1288998,560,1427,127513,-21530,1368,128746,446,19169,1216,0,17236,0.0009999999999998899
1289998,-2937,7111,126414,-8826,4081,122984,455,19175,1827,1,17237,0.001000000000000112
1290998,5120,13204,130976,11462,5895,128853,455,19210,1864,1,17238,0.0009999999999998899
1291998,7217,-6633,131942,-8998,-14056,142383,278,19183,1139,0,17239,0.001000000000000112
1292999,-4853,-14909,134690,-3526,-16116,141833,392,19172,1606,1,17240,0.0010010000000000296
1293998,-6525,-1800,135331,-4016,-3462,135137,485,19205,1986,1,17241,0.0009989999999999721
1294998,2693,-3288,130802,-1236,-6857,137879,334,19205,1368,0,17242,0.0009999999999998899
1296006,-336,13201,132048,7895,6964,123958,384,19179,1368,1,17243,0.00100800000000012
1296998,11529,4472,128694,-24986,-471,130122,237,19178,1573,1,17244,0.0009919999999998819
1297998,9504,7332,133419,22667,5235,125304,237,19193,971,0,17245,0.001000000000000112
1298998,-5392,-6298,128777,17811,-8496,130422,438,19177,1794,0,17246,0.0009999999999998899
1299998,-6654,-15015,121660,-35606,-18955,130652,424,19173,1737,1,17247,0.001000000000000112
1300998,322,21347,129208,7434,14541,116326,253,19173,1036,0,17248,0.0009999999999998899
1302000,17313,7302,117640,18251,3163,120885,350,19196,1036,0,17249,0.0010020000000001694
1302999,-2882,26089,124995,781,25174,98130,449,19166,1433,1,17250,0.0009989999999999721
1303998,1524,-4099,122333,-14541,-4573,126989,449,19182,1839,1,17251,0.0009989999999999721
1304998,3606,-6216,120002,172,-11249,124796,295,19174,1208,0,17252,0.0009999999999998899
1305998,-3399,15510,128581,8147,8892,118436,369,19173,1511,1,17253,0.001000000000000112
1306998,-1458,-1221,122612,-11072,-5415,120960,334,19195,1368,1,17254,0.0009999999999998899
1307998,-4314,4561,124947,-4443,1810,126372,329,19195,1368,0,17255,0.001000000000000112
1308998,5151,3451,128164,-9625,539,129640,399,19171,1347,0,17256,0.0009999999999998899
1309998,-2325,12210,129391,-3127,8572,122036,399,19171,1634,1,17257,0.001000000000000112
1310998,2247,-695,129878,-4341,-4951,142344,335,19204,1372,0,17258,0.0009999999999998899
1311998,3936,-11581,130564,-2751,-9170,137293,332,19180,1360,0,17259,0.001000000000000112
1312998,-5019,-3816,134933,129,-8597,141359,419,19158,1716,1,17260,0.0009999999999998899
1313998,-2772,-4119,134766,-12383,-2361,135093,250,19158,1716,1,17261,0.001000000000000112
1314998,7386,5291,132600,177,612,129463,392,19195,1024,0,17262,0.0009999999999998899
1315998,-1961,9949,130378,-1454,1144,129354,392,19177,1606,1,17263,0.001000000000000112
1316998,7859,-3493,128668,-30120,-9693,132535,395,19199,1618,1,17264,0.0009999999999998899
1317998,7035,23,133535,44103,475,132296,304,19170,1245,0,17265,0.001000000000000112
1318998,-6505,-1511,127142,-1242,-6137,124850,459,19177,1880,0,17266,0.0009999999999998899
1319998,-6636,4074,125326,-36060,4839,119601,478,19177,1880,1,17267,0.001000000000000112
1320998,4949,7182,125239,22537,-2702,129410,280,19205,1958,0,17268,0.0009999999999998899
1321999,17704,6427,116524,13221,13349,105048,280,19183,1147,0,17269,0.0010010000000000296
1322998,-4521,30068,126680,-10155,23956,104862,391,19167,1601,1,17270,0.0009989999999999721
1323998,2544,-6761,122033,-10772,-17641,134385,446,19196,1827,1,17271,0.001000000000000112
1324998,-1595,-7829,120955,10877,-3831,121226,346,19174,1417,0,17272,0.0009999999999998899
1325998,-2016,15862,127705,-5802,10288,121349,387,19174,1417,1,17273,0.001000000000000112
1326998,-3011,7328,123806,-6413,4545,117874,257,19181,1585,1,17274,0.0009999999999998899
1327998,-2632,-1834,125223,-6456,-5270,129321,257,19183,1053,0,17275,0.001000000000000112
1328998,7997,1634,129121,-6073,1792,131067,452,19182,1851,0,17276,0.0009999999999998899
1329999,-5941,9404,128949,9546,6477,121962,424,19175,1737,1,17277,0.0010010000000000296
1331000,2441,3733,130244,-20866,-5270,135890,280,19186,1147,0,17278,0.0010010000000000296
1331999,1042,-10661,132621,-5429,-13528,144544,355,19186,1147,0,17279,0.0009989999999999721
1332998,-3412,-6244,133379,10084,-7671,138774,458,19171,1454,1,17280,0.0009989999999999721
1333998,-497,-2208,133139,-15009,-5800,133606,458,19187,1876,1,17281,0.001000000000000112
1334998,3699,3484,132951,16932,290,129654,300,19177,1229,0,17282,0.0009999999999998899
1335998,5614,696,125734,-811,-7828,135436,356,19180,1458,1,17283,0.001000000000000112
1336998,6771,5875,130804,-20946,6167,123342,315,19199,1290,1,17284,0.0009999999999998899
1337998,1225,8847,133581,35069,3408,130670,347,19199,1421,0,17285,0.001000000000000112
1338998,-7037,-19443,121212,-6618,-21243,133979,406,19156,1421,0,17286,0.0009999999999998899
1339998,-5143,3900,128132,-25000,1970,120796,311,19173,1663,1,17287,0.001000000000000112
1340998,14965,7939,121725,21781,3111,126270,311,19200,1274,0,17288,0.0009999999999998899
1341998,8741,26534,121013,8361,26218,96503,352,19178,1442,0,17289,0.001000000000000112
1342998,2887,12334,124979,-16011,8602,116473,418,19156,1712,1,17290,0.0009999999999998899
1343998,-1963,-11148,118777,4929,-14137,130790,263,19156,1077,1,17291,0.001000000000000112
1344998,-2701,2936,124176,4003,186,118650,382,19190,1077,0,17292,0.0009999999999998899
1345998,-2799,13183,128086,-15486,8587,120801,398,19178,1565,1,17293,0.001000000000000112
1346998,-3266,9332,126833,-6223,6994,118819,398,19201,1630,1,17294,0.0009999999999998899
1347998,4248,-7847,127102,2004,-9839,131641,314,19169,1286,0,17295,0.001000000000000112
