t_us,ax,ay,az,ax1,ay1,az1,shunt_raw,bus_raw,curr_raw,pg_rpm,seq,dt
0,8315,-616,128656,10381,-187,125393,84,19234,405,0,65517,
999,16741,-81,128883,-6191,-763,125399,97,19235,344,1,65518,0.0009989999999999999
1999,6237,-441,129103,10555,-3433,131635,97,19226,397,1,65519,0.001
2999,10851,-8622,128982,-1710,-11017,135932,79,19236,324,1,65520,0.001
3999,5296,-7785,130036,-3672,5645,120295,84,19235,344,1,65521,0.001
4999,8862,11865,130002,-5382,7267,129627,108,19229,442,0,65522,0.001
5999,14225,2050,127693,10734,1558,125206,95,19229,389,0,65523,0.001
6999,-249,3961,130655,1578,-1677,129965,76,19236,389,0,65524,0.001
7999,16284,-8976,131332,-3239,-7537,127619,126,19234,311,1,65525,0.0009999999999999992
8999,565,-3415,130916,29122,-7044,137554,126,19236,516,1,65526,0.0010000000000000009
9999,2656,-13735,129259,-30198,-8530,130263,89,19235,365,1,65527,0.0009999999999999992
10999,-2340,6976,129000,-14575,15666,118753,88,19229,360,0,65528,0.0010000000000000009
12000,1072,13561,129576,-2441,6179,133099,113,19229,463,0,65529,0.0010010000000000002
12999,10887,9759,126714,-2156,9303,113069,88,19235,463,0,65530,0.0009989999999999999
13999,5680,356,128543,-5149,-13165,138900,87,19235,360,0,65531,0.0009999999999999992
14999,3260,-14425,127666,-5061,-6461,126574,87,19227,356,1,65532,0.0010000000000000009
15999,205,453,130205,-5560,-2797,133438,116,19237,475,1,65533,0.0009999999999999992
16999,2633,-4102,127918,-7518,5088,125165,82,19236,336,1,65534,0.0010000000000000009
17999,181,18815,128931,-21252,17025,113990,97,19236,397,0,65535,0.0009999999999999974
18999,8857,3181,124236,8442,-11363,137961,98,19227,397,0,0,0.0010000000000000009
19999,-2003,-6545,125047,-910,1256,119631,83,19235,401,0,1,0.0010000000000000009
20999,10709,9697,125886,-18740,4367,124105,83,19235,340,1,2,0.0010000000000000009
21999,6026,7829,127026,17092,11959,119071,117,19236,479,1,3,0.0009999999999999974
22999,10771,5666,126426,-13121,-10746,135913,89,19237,365,1,4,0.0010000000000000009
23999,8773,-17784,125777,947,-9754,128212,87,19232,356,1,5,0.0010000000000000009
24999,3094,5366,127589,6760,10836,122386,133,19232,356,0,6,0.0010000000000000009
25999,6927,6570,125908,-11571,5706,122555,90,19232,545,0,7,0.0009999999999999974
26999,10494,9951,126225,990,7789,122507,90,19236,369,0,8,0.0010000000000000009
27999,17056,-1806,124028,13262,-7410,134062,77,19233,315,1,9,0.0010000000000000009
29000,10027,-2308,123419,9203,332,114468,91,19235,373,1,10,0.0010009999999999984
30001,11867,1554,126923,-5275,-2801,130823,99,19236,405,1,11,0.0010010000000000019
31001,12312,-6243,124923,12139,-6622,129442,98,19236,405,0,12,0.0009999999999999974
31999,15661,10302,130267,1178,14889,120924,95,19224,401,0,13,0.0009980000000000024
32999,12212,8485,124513,2905,1368,125062,95,19234,389,0,14,0.0010000000000000009
33999,14606,-6250,125232,6435,-8105,126109,83,19233,340,0,15,0.0010000000000000009
34999,14459,-8477,126745,9406,-9257,133970,101,19228,414,1,16,0.000999999999999994
35999,14099,-4138,126964,5880,-980,123421,91,19231,373,1,17,0.0010000000000000009
36999,15061,7340,129327,6621,6449,122687,83,19231,373,1,18,0.0010000000000000009
37999,9895,1854,126484,3852,-3256,132284,110,19236,340,0,19,0.0010000000000000009
38999,15080,-4275,127695,-4577,-3155,126411,110,19234,451,0,20,0.0010000000000000009
39999,8261,98,127432,15284,-2032,129546,91,19237,373,0,21,0.0010000000000000009
40999,16427,-1680,128760,-29,-1267,123213,75,19234,307,1,22,0.0010000000000000009
41999,9347,2183,130734,1301,1324,126845,132,19236,541,1,23,0.000999999999999994
42999,10205,-15068,129754,-294,-9212,138363,94,19236,541,1,24,0.0010000000000000009
43999,5147,608,131318,1182,1524,122713,85,19234,385,1,25,0.0010000000000000009
44999,6475,-4837,129070,-5146,-8423,134592,85,19228,348,0,26,0.0010000000000000009
45999,8126,8508,130841,2612,14635,124785,114,19237,467,0,27,0.0010000000000000009
47000,9000,3525,125989,5754,-6743,138236,83,19238,340,0,28,0.0010010000000000019
48001,11032,-6152,131007,-22795,2,112803,87,19228,356,1,29,0.001000999999999995
48999,6490,9671,128494,8650,1442,144782,75,19228,307,1,30,0.0009980000000000058
49999,3934,-17804,128268,10209,-16476,126183,84,19236,307,1,31,0.000999999999999994
50999,-9078,1698,128408,-29793,-6038,134743,102,19233,344,0,32,0.0010000000000000009
51999,6396,-3575,129162,-14505,24180,115099,102,19229,418,0,33,0.0010000000000000009
52999,3501,33542,127743,9974,16191,119830,97,19235,397,0,34,0.0010000000000000009
54000,11711,-6652,125974,-6838,-15095,136134,79,19233,324,0,35,0.0010010000000000019
54999,2214,-11834,126604,-2722,-8567,125927,124,19233,508,1,36,0.0009989999999999999
55999,2534,-7671,131984,-2954,-1721,133952,87,19230,508,1,37,0.0010000000000000009
56999,2519,8841,130798,-7342,12379,117927,83,19238,356,1,38,0.000999999999999994
57999,-729,6594,126734,-10960,-9628,137908,83,19234,340,0,39,0.0010000000000000009
58999,967,-5264,125020,-13221,12004,116373,119,19232,487,0,40,0.0010000000000000009
59999,1141,17481,125441,-391,4376,124187,89,19240,365,0,41,0.0010000000000000009
60999,16326,-2814,125490,7099,3080,124658,85,19240,348,1,42,0.0010000000000000009
61999,3163,8681,126486,-2784,-1160,125856,78,19228,348,1,43,0.0010000000000000009
62999,11067,-11746,125771,-13515,-7425,131160,92,19240,319,1,44,0.0010000000000000009
63999,3556,8574,128352,12955,8539,121830,92,19232,377,1,45,0.0010000000000000009
65001,7576,-1015,124741,-5472,-15529,136166,97,19228,397,0,46,0.0010020000000000029
65999,5778,7738,127267,-6604,18021,110145,98,19236,401,0,47,0.0009979999999999989
66999,8359,11624,122195,1052,-5445,134133,77,19238,315,0,48,0.0010000000000000009
67999,19899,-4107,125342,12448,5173,119094,102,19238,315,1,49,0.000999999999999987
68999,7066,3860,123499,7225,-8120,129832,89,19235,418,1,50,0.0010000000000000009
69999,16417,-13554,126132,-2380,-170,124018,89,19235,365,1,51,0.0010000000000000009
70999,5570,11655,127626,11613,4927,123895,90,19233,369,0,52,0.0010000000000000009
71999,17836,-5803,126581,-6375,-4111,133889,124,19235,508,0,53,0.0010000000000000009
73000,12107,8201,125659,14211,10092,113077,92,19238,377,0,54,0.0010010000000000019
74000,12457,1845,126725,-875,-5749,133333,78,19238,377,0,55,0.0010000000000000009
74999,18914,-7742,125704,6415,-4230,123362,115,19232,319,1,56,0.0009989999999999999
75999,9371,-5203,129441,13476,-7569,134527,115,19234,471,1,57,0.0010000000000000009
77000,16857,-1385,128162,-1599,6910,121205,88,19235,360,1,58,0.0010010000000000019
77999,7875,8286,128580,3792,1201,125297,88,19230,360,0,59,0.0009989999999999999
78999,15967,-7829,126496,2287,-8253,134870,98,19236,401,0,60,0.0010000000000000009
79999,8971,4029,127568,10266,6307,119174,81,19236,401,0,61,0.0010000000000000009
80999,15055,2431,128438,-6937,-2610,129863,95,19236,332,0,62,0.0010000000000000009
81999,8711,-1606,129442,13401,-3617,125305,95,19223,389,1,63,0.0010000000000000009
82999,6734,-10977,128560,-4285,-14076,138471,89,19236,365,1,64,0.000999999999999987
83999,7459,-9090,129993,-6798,-2386,125656,89,19231,365,1,65,0.0010000000000000009
84999,7097,13265,130000,-837,11626,123579,108,19229,442,0,66,0.0010000000000000009
85999,16018,66,128057,12107,-2453,131617,94,19229,442,0,67,0.0010000000000000009
86999,-15,7039,130176,-6228,5088,122160,75,19236,385,0,68,0.0010000000000000009
87999,16517,-14517,127965,-33307,-10918,135013,75,19235,307,1,69,0.0010000000000000009
88999,4385,-1838,131532,36133,-3008,126286,128,19235,524,1,70,0.0010000000000000009
90002,-1171,-11895,130373,-12008,-15162,140067,92,19235,377,1,71,0.0010030000000000039
90999,-1164,2888,129305,-33490,10190,118234,90,19232,369,0,72,0.0009969999999999979
91999,872,15674,128509,4766,10648,129737,118,19232,369,0,73,0.0010000000000000009
92999,10934,6807,127685,-1021,9361,111647,89,19232,483,0,74,0.0010000000000000009
93999,6046,7728,127751,-12203,734,139069,89,19235,365,0,75,0.0010000000000000009
94999,4249,-20146,127591,-888,-19862,129543,89,19227,365,1,76,0.0010000000000000009
95999,1193,839,130309,-4077,1721,130656,118,19236,483,1,77,0.0010000000000000009
96999,1382,-1593,128528,-8026,6616,123066,84,19238,344,1,78,0.0010000000000000009
97999,-1113,18482,128762,-19100,16879,117291,96,19238,393,0,79,0.000999999999999987
98999,9179,-796,122469,-4174,-15186,141970,98,19232,393,0,80,0.0010000000000000009
99999,-718,-7168,125491,12613,11561,113183,83,19236,401,0,81,0.0010000000000000009
100999,9345,14707,126785,-22384,4105,124754,83,19236,340,1,82,0.0010000000000000009
101999,8053,1527,127762,17617,8487,122418,113,19232,463,1,83,0.0010000000000000009
102999,10194,5493,128105,-14106,-12726,136390,89,19232,365,1,84,0.0010000000000000009
103999,9716,-19775,125390,4815,-6512,127531,88,19232,360,1,85,0.0010000000000000009
105000,3177,11173,128376,1080,14938,117519,131,19232,360,0,86,0.0010010000000000019
105999,7446,6153,124166,-10843,-1543,129188,95,19234,537,0,87,0.0009989999999999999
106999,8653,4525,127477,3112,10430,120105,95,19236,389,0,88,0.0010000000000000009
107999,17799,3861,123511,15574,-8014,132750,77,19233,315,1,89,0.0010000000000000009
108999,7893,-5014,123598,3780,4037,114582,91,19236,373,1,90,0.0010000000000000009
109999,12952,5919,125041,-3522,-11911,131748,90,19236,369,1,91,0.0010000000000000009
110999,10874,-11507,126619,16362,-1985,128460,95,19231,369,0,92,0.0010000000000000009
111999,15892,13831,128985,-3549,16702,117238,95,19229,389,0,93,0.0010000000000000009
112999,10913,5375,125531,4678,-5701,129527,95,19232,389,0,94,0.000999999999999987
113999,14307,-5327,125585,4947,-3717,124895,83,19235,340,0,95,0.0010000000000000009
114999,15571,-8246,126932,10958,-9495,134605,97,19226,397,1,96,0.0010000000000000009
116023,12436,-2490,126973,4181,4979,119443,85,19235,348,1,97,0.001024000000000011
117000,15576,7025,129058,6954,1711,126962,85,19235,348,1,98,0.0009769999999999918
117999,8108,-2840,127699,2234,-6387,133265,111,19236,348,0,99,0.0009989999999999999
118999,17781,-500,128457,-454,1246,124219,111,19232,455,0,100,0.0010000000000000009
119999,7258,-367,127272,13828,-2960,130388,96,19233,393,0,101,0.0010000000000000009
120999,16999,-697,127638,-3155,2419,120727,76,19238,311,0,102,0.0010000000000000009
121999,8679,1172,129795,6185,-4463,134012,129,19238,528,1,103,0.0010000000000000009
122999,10578,-9825,128811,-5936,-7048,131658,86,19238,528,1,104,0.0010000000000000009
123999,7656,679,131154,1926,2460,124395,84,19233,352,1,105,0.0010000000000000009
124999,3891,-3057,126142,-6529,-10342,136961,84,19231,344,0,106,0.0010000000000000009
125999,11434,5058,130765,3762,14303,113211,121,19234,496,0,107,0.0010000000000000009
126999,4805,9098,128290,7948,-5600,141067,84,19239,344,0,108,0.0010000000000000009
127999,12779,-11041,129605,-30260,326,117935,84,19225,344,1,109,0.0010000000000000009
128999,7551,9958,130897,14972,-609,127492,74,19225,344,1,110,0.0010000000000000009
130001,5963,-17303,128124,10746,-17544,144492,88,19233,303,1,111,0.0010020000000000029
130999,-9253,-916,129879,-33456,-1736,120902,88,19237,360,1,112,0.0009979999999999989
131999,1764,-665,130505,-15253,4147,133943,105,19230,430,0,113,0.0010000000000000009
132999,4874,24034,128431,11367,25546,108978,97,19235,397,0,114,0.0010000000000000009
134001,9095,6653,127841,-6234,-6726,132850,79,19235,324,0,115,0.0010019999999999751
134999,5569,-14757,124789,-17622,-14213,129218,117,19235,324,1,116,0.0009979999999999989
135999,401,-8211,128305,5471,-9198,132856,86,19230,479,1,117,0.0010000000000000009
136999,4562,5210,130815,-9740,8912,125465,86,19241,352,1,118,0.0010000000000000009
137999,-1363,9806,129924,-4197,4477,126595,81,19231,332,0,119,0.0010000000000000009
139000,198,-6173,124825,-18763,-4359,131191,123,19234,504,0,120,0.0010010000000000019
140000,1903,15164,126025,-4512,14928,121298,94,19237,385,0,121,0.0010000000000000009
140999,15244,1861,125168,3256,-861,127322,83,19237,340,1,122,0.0009989999999999999
141999,6958,5452,126370,7241,5139,122332,89,19229,340,1,123,0.0010000000000000009
142999,8397,-5945,126567,-15285,-7594,132849,88,19238,365,1,124,0.0010000000000000009
143999,7155,2501,128066,1284,5155,124448,88,19243,360,1,125,0.0010000000000000009
144999,7059,4750,127177,12897,-7467,131943,97,19227,397,0,126,0.0010000000000000009
145999,6550,-849,125096,-17625,12624,114477,111,19239,455,0,127,0.0010000000000000009
146999,7275,14411,127126,-1080,1725,129160,79,19239,324,0,128,0.0010000000000000009
147999,19886,-2348,124677,10267,356,123156,100,19235,324,1,129,0.0010000000000000009
148999,9754,2128,124948,6323,-4142,126473,86,19237,410,1,130,0.0010000000000000009
149999,12963,-10343,124921,-3160,-3766,126796,86,19233,352,1,131,0.0010000000000000009
150999,7643,5589,126625,11136,6906,124014,89,19236,365,1,132,0.0010000000000000009
151999,16407,1046,127854,-3484,-2219,131846,120,19233,491,0,133,0.0010000000000000009
152999,12505,3358,126443,10504,8626,115404,93,19233,381,0,134,0.0010000000000000009
153999,12221,3902,125845,244,-4103,130751,77,19237,381,0,135,0.0010000000000000009
154999,19266,-8043,125621,8992,-8126,125588,122,19235,315,1,136,0.0010000000000000009
155999,11660,-3711,125070,13898,-6463,132679,122,19234,500,1,137,0.0010000000000000009
156999,13885,-5345,127973,-2359,4280,122620,85,19236,348,1,138,0.0010000000000000009
158000,9355,9413,128277,2140,1228,126161,85,19231,348,0,139,0.0010010000000000019
158999,15055,-6742,129137,6779,-6197,134324,104,19234,426,0,140,0.0009989999999999999
160001,9710,3719,127544,6645,2643,120467,82,19234,426,0,141,0.0010020000000000029
161001,14535,2874,128847,-8109,-1191,128689,90,19240,336,0,142,0.0010000000000000009
162001,9999,-2647,128610,13144,-4980,127063,90,19225,369,1,143,0.0010000000000000009
162999,8059,-7820,130832,-2670,-12705,137251,80,19237,328,1,144,0.0009979999999999989
163999,6504,-10844,128273,-7982,-2436,125335,87,19230,356,1,145,0.0010000000000000009
164999,6743,9264,131452,-1525,9138,125719,104,19229,426,0,146,0.0009999999999999731
165999,15593,3694,127598,15108,1440,128856,94,19229,426,0,147,0.0010000000000000009
166999,1228,3601,130540,-10967,7442,123735,75,19235,385,0,148,0.0010000000000000009
167999,14853,-6208,128538,-25887,-13181,131944,75,19236,307,1,149,0.0010000000000000009
168999,2626,-5848,128855,32642,-3732,129138,123,19232,504,1,150,0.0010000000000000009
169999,2524,-9735,128619,-14056,-13760,138043,87,19236,356,1,151,0.0010000000000000009
171001,-3637,198,131271,-26206,11772,117619,84,19231,344,1,152,0.0010020000000000029
172001,1385,17306,129048,-2514,10732,130478,118,19231,344,0,153,0.0010000000000000009
172999,9399,5141,128684,2017,8609,118917,91,19234,483,0,154,0.0009979999999999989
174000,5420,7808,127228,-12584,-2382,125890,91,19238,373,0,155,0.0010010000000000019
174999,6899,-17561,128658,-2436,-15317,136082,85,19230,348,1,156,0.0009989999999999999
175999,229,-1438,130241,660,-1659,127914,123,19234,504,1,157,0.0010000000000000009
176999,1646,-932,129363,-13580,-1652,132295,91,19234,373,1,158,0.0010000000000000009
177999,-2498,16770,128724,-14291,13078,112709,98,19234,373,0,159,0.0010000000000000009
178999,9078,8713,129468,-8508,-2666,134093,97,19224,401,0,160,0.0010000000000000009
179999,2056,-8440,124318,13826,-6232,126946,97,19236,397,0,161,0.0010000000000000009
180999,6862,8360,126923,-19186,7769,121495,83,19238,340,0,162,0.0010000000000000009
181999,9125,4649,125874,3210,5241,122261,112,19234,459,1,163,0.0010000000000000009
182999,9556,5388,127015,7089,5431,126666,89,19236,365,1,164,0.0010000000000000009
183999,9893,-13543,126358,-18549,-15612,136429,87,19236,365,1,165,0.0010000000000000009
184999,6540,2564,125954,8617,7152,117563,123,19233,356,0,166,0.0010000000000000009
185999,6351,6569,126337,4593,641,130174,123,19232,504,0,167,0.0010000000000000009
186999,5282,3590,126831,-11895,6039,118571,93,19240,381,0,168,0.0010000000000000009
187999,17722,7454,124963,-2605,4838,131912,80,19232,328,1,169,0.0010000000000000009
188999,10767,919,123584,26785,-1125,117819,95,19239,389,1,170,0.0010000000000000009
189999,13422,3959,124885,-4833,1472,129946,91,19239,373,1,171,0.0010000000000000009
190999,7382,-11287,126293,-4625,-6311,131881,92,19233,373,1,172,0.0010000000000000009
191999,15697,2948,128042,9647,14021,120510,97,19232,377,0,173,0.0010000000000000009
192999,12493,11628,129906,7453,5677,123784,97,19235,397,0,174,0.0010000000000000009
194000,13395,724,126071,2161,-6277,126317,81,19238,332,0,175,0.0010009999999999741
195000,15467,-12033,123615,5024,-13701,132348,95,19231,389,1,176,0.0010000000000000009
195999,11912,-5507,126113,3696,3379,124962,92,19231,377,1,177,0.0009989999999999999
197000,19200,6920,128307,6755,5397,122310,87,19231,377,1,178,0.0010010000000000019
197999,8324,4050,128923,5384,-1689,130952,105,19235,356,0,179,0.0009989999999999999
199000,14868,-4282,127888,-5933,-5820,129320,105,19229,430,0,180,0.0010010000000000019
199999,8308,-4052,126876,15672,-5301,127490,93,19237,381,0,181,0.0009989999999999999
200999,15756,-1595,127292,-892,5506,124239,77,19232,315,0,182,0.0010000000000000009
201999,11016,5093,129004,-314,433,124116,134,19233,549,1,183,0.0010000000000000009
202999,8905,-5846,129631,-2427,-9223,136280,86,19233,549,1,184,0.0010000000000000009
203999,8735,-5364,131204,6108,-3874,129751,84,19237,352,1,185,0.0010000000000000009
204999,2203,-5329,128502,-11000,-11671,130187,84,19234,344,0,186,0.0010000000000000009
205999,11391,7099,130530,4953,22630,115422,116,19234,475,0,187,0.0010000000000000009
207000,6577,15479,128921,6126,-9219,139234,86,19239,352,0,188,0.0010010000000000019
207999,12255,-14456,127495,-27252,703,119662,83,19229,340,1,189,0.0009989999999999999
208999,6452,7422,132537,14355,-5080,131293,80,19229,340,1,190,0.0010000000000000009
209999,6228,-16471,129279,5991,-12940,137410,87,19234,328,1,191,0.0010000000000000009
210999,-6747,-151,130836,-30651,-2281,127560,87,19238,356,1,192,0.0010000000000000009
211999,3592,-5981,129692,-10714,7371,130368,100,19225,410,0,193,0.0010000000000000009
213002,4668,29821,127979,8491,30373,107347,98,19236,401,0,194,0.0010030000000000039
213999,8623,8002,127885,-9682,-12725,136018,80,19239,328,0,195,0.0009969999999999979
214999,6322,-19057,125732,-11542,-15054,129512,115,19239,328,1,196,0.0010000000000000009
215999,1114,-6241,131119,3661,-6494,133557,87,19228,471,1,197,0.0010000000000000009
216999,4036,4007,131396,-12648,12711,121997,87,19236,356,1,198,0.0010000000000000009
218000,-831,12800,130231,-3080,-623,130067,82,19232,336,0,199,0.0010010000000000019
219000,748,-10769,124989,-17332,-4481,130529,122,19236,500,0,200,0.0010000000000000009
219999,683,17810,126297,-4073,18402,112136,94,19236,385,0,201,0.0009989999999999999
221000,15264,1140,125492,2897,-4263,131173,82,19236,385,0,202,0.0010010000000000019
221999,7275,6733,126245,6783,6964,119190,96,19230,336,1,203,0.0009989999999999999
222999,7487,-6903,127399,-14974,-17214,134023,96,19230,393,1,204,0.0010000000000000009
223999,5725,1554,127286,1343,8136,120849,90,19235,369,1,205,0.0010000000000000009
224999,5156,6247,128364,6586,-3272,131984,95,19226,389,0,206,0.0009999999999999731
225999,9165,-4985,124188,-12932,2601,121890,112,19232,459,0,207,0.0010000000000000009
226999,5897,19002,127025,1304,13735,118198,83,19232,459,0,208,0.0010000000000000009
228000,19915,-7448,123288,8637,-7519,132601,96,19238,340,1,209,0.0010010000000000019
229001,9258,4422,125081,9296,2872,117463,96,19234,393,1,210,0.0010010000000000019
229999,14879,-9330,124564,-589,-11307,135820,85,19239,348,1,211,0.0009979999999999989
230999,7064,5107,126501,5720,8950,117167,89,19232,365,1,212,0.0010000000000000009
231999,15843,2412,127328,251,-2641,134477,115,19230,471,0,213,0.0010000000000000009
233000,12590,-1156,125995,6968,4521,120270,96,19230,393,0,214,0.0010010000000000019
233999,13053,10363,127253,9212,7456,131924,77,19234,393,0,215,0.0009989999999999999
234999,18047,-10442,125761,-413,-9474,124305,124,19233,315,1,216,0.0010000000000000009
235999,11602,-2521,126436,13913,-3152,133732,124,19237,508,1,217,0.0010000000000000009
236999,15253,-6556,127881,6545,-5269,122266,87,19236,356,1,218,0.0010000000000000009
238001,8125,10405,127446,-560,1294,126562,84,19232,344,0,219,0.0010020000000000029
238999,15316,-8262,128117,1176,-7754,134460,104,19232,426,0,220,0.0009979999999999989
239999,10274,3323,128019,9481,8340,118234,83,19236,426,0,221,0.0010000000000000009
240999,15186,5213,129477,-2892,-4381,130925,87,19236,340,0,222,0.0010000000000000009
241999,10362,-2999,128975,11708,-3823,125252,87,19224,356,1,223,0.0010000000000000009
242999,6599,-6654,129103,-6603,-14643,139142,81,19235,332,1,224,0.0010000000000000009
243999,8921,-14257,128054,-4997,1837,122635,85,19234,348,1,225,0.0010000000000000009
244999,5667,13018,131187,1183,11120,126205,101,19234,414,0,226,0.0010000000000000009
245999,12442,-2157,128415,13413,2466,131056,94,19223,414,0,227,0.0010000000000000009
246999,2285,5128,129071,-13360,2562,122936,74,19236,385,0,228,0.0010000000000000009
247999,13775,-4842,129800,-19442,-9474,132690,74,19236,303,1,229,0.0010000000000000009
248999,4404,-4738,131083,26338,-5110,128055,117,19238,479,1,230,0.0010000000000000009
249999,4525,-5578,130762,-11202,-11722,135088,88,19233,360,1,231,0.0010000000000000009
251000,-3668,-2546,129991,-24181,8107,121463,88,19232,360,1,232,0.0010010000000000019
251999,844,13942,128145,-5794,10097,128309,124,19232,360,0,233,0.0009989999999999721
252999,7960,8048,128524,3192,10209,119455,90,19232,508,0,234,0.0010000000000000009
253999,3993,7117,128314,-11863,-4145,127937,90,19238,369,0,235,0.0010000000000000009
254999,6737,-12918,128241,-3204,-14015,133861,82,19230,336,1,236,0.0010000000000000009
255999,697,-3845,128741,560,-3797,130787,125,19231,512,1,237,0.0010000000000000009
257002,5792,-2350,128730,-15259,-1010,128287,86,19243,352,1,238,0.0010030000000000316
258001,-2821,16818,128514,-15920,14676,116519,93,19243,352,0,239,0.0009989999999999721
259001,9827,6690,124648,-5850,-6140,134482,96,19228,381,0,240,0.0010000000000000009
259999,669,-4530,124564,13914,147,124677,96,19235,393,0,241,0.0009979999999999989
261000,5798,6281,125951,-23889,6182,121761,83,19239,340,0,242,0.0010010000000000296
261999,10067,6540,125443,5918,9571,118687,103,19235,422,1,243,0.0009989999999999721
262999,6580,5100,127903,4536,-4746,133890,94,19230,385,1,244,0.0010000000000000009
263999,12679,-14255,125762,-11081,-11555,131029,93,19230,385,1,245,0.0010000000000000009
265000,1397,3754,125861,9005,7256,119609,123,19237,381,0,246,0.0010010000000000296
265999,7651,7467,127035,-12343,3682,126950,123,19228,504,0,247,0.0009989999999999721
266999,8418,6645,124851,-319,7054,121054,98,19243,401,0,248,0.0010000000000000009
267999,17026,3003,125608,10103,-1477,131008,73,19233,299,1,249,0.0010000000000000009
268999,11777,1190,122671,13552,1110,117937,95,19236,389,1,250,0.0010000000000000009
269999,11623,-1601,124844,-8985,-2483,126382,93,19236,389,1,251,0.0010000000000000009
270999,14551,-4604,128751,9296,-5075,131459,92,19237,381,1,252,0.0010000000000000009
271999,13387,4336,126622,10754,8460,123179,92,19233,377,0,253,0.0010000000000000009
272999,12754,9541,130368,-4738,4490,122425,97,19231,397,0,254,0.0010000000000000009
273999,10384,-3664,125268,8468,-8171,128955,83,19237,340,0,255,0.0010000000000000009
275000,17914,-10108,126454,7744,-9349,131488,89,19223,365,1,256,0.0010009999999999741
275999,11941,-391,127004,9268,761,124278,84,19223,365,1,257,0.0009990000000000276
276999,14727,3147,127160,442,1889,124253,88,19230,344,1,258,0.0010000000000000009
277999,9896,2139,128832,8036,494,128829,88,19236,360,0,259,0.0010000000000000009
278999,15712,-4269,127325,-2687,-5206,131386,102,19227,418,0,260,0.0010000000000000009
279999,10245,246,128021,8207,5607,124473,92,19241,377,0,261,0.0010000000000000009
280999,14599,-2193,127385,4930,-5448,126960,77,19231,315,0,262,0.0010000000000000009
281999,11748,-2113,126774,-350,198,128641,124,19231,508,1,263,0.0010000000000000009
283001,8627,-5098,128343,2201,-8424,133908,87,19236,508,1,264,0.0010020000000000029
283999,7085,-3067,130710,-1962,-139,123694,82,19232,356,1,265,0.0009979999999999989
284999,3081,7273,126442,-1862,-10477,134720,82,19233,336,0,266,0.0010000000000000009
285999,10681,-7727,128019,-4561,13033,118727,116,19233,475,0,267,0.0010000000000000009
286999,8037,18886,127334,13675,-5771,137882,87,19237,356,0,268,0.0010000000000000009
287999,10296,-17553,125835,-17449,278,118096,79,19237,324,1,269,0.0010000000000000009
288999,7163,14289,132253,-9113,492,130213,99,19229,324,1,270,0.0010000000000000009
289999,8387,-15391,128388,5130,-16745,141005,92,19235,405,1,271,0.0010000000000000009
290999,-5712,-7195,130771,-33046,4900,123367,92,19232,377,1,272,0.0010000000000000009
292001,736,-1595,128923,-12407,943,132001,101,19229,414,0,273,0.0010020000000000029
293001,2676,20461,129211,10942,32101,106628,98,19236,401,0,274,0.0010000000000000009
294000,8236,17977,128184,-7834,-13698,139642,80,19236,328,0,275,0.0009989999999999721
295000,7066,-19669,125433,-13327,-12195,123937,111,19241,328,1,276,0.0010000000000000009
295999,956,-2410,130926,1844,-6254,135271,85,19229,455,1,277,0.0009990000000000276
296999,6811,-3256,131617,-7068,7791,122998,85,19236,348,1,278,0.0010000000000000009
297999,-1529,16044,129174,-6349,3180,127297,82,19235,336,0,279,0.0010000000000000009
298999,2903,-9823,126279,-17132,-5071,132823,123,19231,504,0,280,0.0009999999999999454
299999,-2173,14436,125070,-3382,18178,110133,95,19239,389,0,281,0.0010000000000000009
300999,15286,6637,126618,2322,-5868,134652,80,19239,389,0,282,0.0010000000000000009
301999,6632,1501,124752,9797,3074,116920,101,19232,328,1,283,0.0010000000000000009
302999,6330,2332,129072,-15933,-10441,134687,101,19236,414,1,284,0.0010000000000000009
303999,7153,-5506,126621,3834,5662,121875,91,19235,373,1,285,0.0010000000000000009
304999,3735,8801,129330,2492,-2603,132140,94,19227,385,0,286,0.0010000000000000009
305999,10446,-8684,123510,-10856,1421,122685,123,19236,504,0,287,0.0010000000000000009
306999,2885,16375,125823,-1729,14996,117353,83,19236,504,0,288,0.0010000000000000009
307999,22083,-1298,124370,10866,-6186,132126,94,19239,340,1,289,0.0010000000000000009
308999,8722,2799,124084,10201,2462,118512,94,19228,385,1,290,0.0010000000000000009
309999,16273,-7820,124806,-5317,-12162,134669,93,19235,381,1,291,0.0010000000000000009
310999,7830,1929,125143,10511,9506,116520,96,19231,393,1,292,0.0010000000000000009
312001,14056,6565,127249,-888,-1100,135152,115,19231,471,0,293,0.0010020000000000029
312999,13074,-3782,127504,6174,2276,120229,96,19231,471,0,294,0.0009979999999999989
313999,9243,11035,126178,5361,4461,125107,77,19234,393,0,295,0.0010000000000000009
314999,19174,-7999,126449,3108,-8201,129694,77,19234,315,1,296,0.0010000000000000009
315999,10626,-4200,125983,12388,-3875,126823,131,19238,537,1,297,0.0010000000000000009
316999,18141,-8965,128929,4755,-5799,133968,83,19235,340,1,298,0.0010000000000000009
317999,6985,9199,127950,2053,8168,114994,83,19233,340,0,299,0.0010000000000000009
318999,15831,-1794,128421,755,-8160,137681,105,19233,340,0,300,0.0010000000000000009
319999,9550,-747,128712,10729,2813,122167,85,19232,430,0,301,0.0010000000000000009
320999,13218,4182,129234,-6125,133,127692,85,19239,348,0,302,0.0010000000000000009
321999,12739,-2301,129161,5585,-1599,125820,85,19233,348,1,303,0.0010000000000000009
322999,5388,-3453,129845,7494,-7991,132122,88,19237,360,1,304,0.0010000000000000009
323999,9874,-15744,129444,-9097,-13086,135464,84,19232,344,1,305,0.0010000000000000009
325000,3376,6680,130871,-891,12798,117612,97,19232,397,0,306,0.0010010000000000296
325999,17266,4460,129349,3647,2085,131459,95,19232,397,0,307,0.0009989999999999721
327000,3137,6795,128164,8379,4972,122089,76,19238,389,0,308,0.0010010000000000296
327999,11729,-5062,129599,-34281,-9971,132734,76,19238,311,1,309,0.0009989999999999721
328999,8044,-3533,129533,16978,-4640,127020,111,19232,455,1,310,0.0010000000000000009
329999,972,-7095,130975,10401,-11355,136753,88,19239,360,1,311,0.0010000000000000009
330999,-563,-4435,129549,-32129,-1357,117393,85,19239,348,1,312,0.0010000000000000009
331999,-982,13743,131059,-7872,6692,132382,123,19236,348,0,313,0.0010000000000000009
332999,9092,6109,128131,-784,10777,118092,94,19233,504,0,314,0.0010000000000000009
333999,4231,8991,127671,-2811,-6047,128773,94,19237,385,0,315,0.0010000000000000009
334999,6426,-10689,128430,-8429,-9136,133684,84,19226,344,1,316,0.0010000000000000009
335999,-220,-5941,128646,-2912,-4192,132157,133,19236,545,1,317,0.0010000000000000009
337000,3933,-2236,128501,-11652,2361,126934,92,19236,377,1,318,0.0010009999999999741
338001,-2569,15366,128495,-13675,16218,115989,92,19235,377,1,319,0.0010010000000000296
339000,8427,8508,125283,-256,-7173,136146,102,19228,377,0,320,0.0009989999999999721
339999,405,-4980,125864,2257,1404,121402,102,19233,418,0,321,0.0009990000000000276
340999,6534,5955,125921,-19049,5941,124649,86,19237,352,0,322,0.0010000000000000009
342000,10861,5826,127837,12097,11010,118172,104,19232,426,1,323,0.0010009999999999741
342999,7423,6030,126271,-2189,-9141,135304,86,19234,352,1,324,0.0009990000000000276
343999,8790,-16410,125518,-4681,-10652,130206,85,19234,352,1,325,0.0010000000000000009
344999,1306,4306,127209,-2120,11196,118641,115,19235,348,0,326,0.0010000000000000009
345999,10121,9045,126660,-5532,8483,125218,115,19228,471,0,327,0.0010000000000000009
347000,7925,11788,125562,6220,1787,121021,97,19237,397,0,328,0.0010009999999999741
347999,19023,-2176,124367,3111,-8122,132769,76,19231,311,1,329,0.0009990000000000276
348999,8582,-2654,123762,8901,2493,117161,98,19238,401,1,330,0.0010000000000000009
349999,14491,2185,126888,-1713,-4483,130057,91,19238,401,1,331,0.0010000000000000009
351000,13383,-4985,125617,11409,58,127662,87,19236,373,1,332,0.0010009999999999741
352000,9959,7025,127483,-1613,6370,123911,87,19232,356,0,333,0.0010000000000000009
352999,13483,5118,126100,1035,4149,122868,106,19236,434,0,334,0.0009990000000000276
353999,10900,1704,125662,11247,-3786,127477,83,19239,340,0,335,0.0010000000000000009
354999,19577,-10895,126175,6850,-11514,132219,89,19224,365,1,336,0.0010000000000000009
356000,10735,-1351,128027,7935,2346,121779,73,19224,365,1,337,0.0010009999999999741
356999,17364,859,128583,1886,-993,128584,80,19238,299,1,338,0.0009990000000000276
357999,10186,355,128101,10835,1860,127031,80,19235,328,0,339,0.0009999999999999454
358999,12379,-4116,129461,-1970,1577,130894,96,19229,393,0,340,0.0010000000000000009
359999,10032,456,127662,7546,-1571,124139,94,19235,385,0,341,0.0010000000000000009
360999,13562,-1199,129702,5962,-422,125456,78,19237,319,0,342,0.0010000000000000009
361999,13873,215,129121,1552,-1585,129436,122,19237,319,1,343,0.0010000000000000009
363001,7488,-7271,129498,-2737,-8986,130036,86,19231,500,1,344,0.0010020000000000029
363999,9771,1057,130817,4075,265,129024,86,19236,352,1,345,0.0009979999999999989
364999,499,238,126587,-2184,-6669,132870,81,19235,332,0,346,0.0010000000000000009
365999,12429,-5394,130931,-8376,3413,120137,126,19232,516,0,347,0.0010000000000000009
366999,5854,18381,128168,16759,10066,130767,89,19239,365,0,348,0.0010000000000000009
367999,11642,-13232,128171,-22852,-12694,128774,80,19239,328,0,349,0.0010000000000000009
368999,7715,11505,132809,-4662,8551,118313,94,19230,328,1,350,0.0010000000000000009
369999,7253,-16308,127660,20932,-24198,148036,87,19236,385,1,351,0.0010000000000000009
370999,-6585,-3589,131123,-23710,-42,120350,87,19236,356,1,352,0.0010000000000000009
372000,-565,-1933,130628,-25640,-4086,136308,96,19229,393,0,353,0.0010010000000000296
372999,4927,18501,128803,6796,25441,113297,98,19234,401,0,354,0.0009989999999999721
374001,5833,19390,128280,4214,8072,135462,81,19234,332,0,355,0.0010020000000000029
375001,7785,-15792,125007,-21998,-14766,126286,108,19234,332,1,356,0.0010000000000000009
375999,856,-9777,129827,2828,-11200,136854,86,19221,442,1,357,0.0009979999999999989
376999,6431,-3299,132269,-7148,578,119847,86,19237,352,1,358,0.0010000000000000009
377999,221,16163,127860,-5946,12195,131215,84,19235,344,1,359,0.0010000000000000009
378999,2562,-6345,126507,-12826,-138,126661,121,19230,496,0,360,0.0010000000000000009
379999,-607,12360,126942,-10616,13069,115745,95,19230,389,0,361,0.0010000000000000009
381001,12005,8573,125755,919,-4385,131776,81,19240,389,0,362,0.0010020000000000029
381999,10263,6888,127095,9294,4221,119409,99,19231,332,1,363,0.0009979999999999989
383000,4089,-4002,122783,-18980,-14528,136786,99,19236,405,1,364,0.0010010000000000296
383999,10022,-4680,128438,5929,11017,119515,90,19234,369,1,365,0.0009989999999999721
385001,2347,9382,125305,5707,-5826,133356,94,19229,385,0,366,0.0010020000000000029
385999,11317,-8358,125946,-15279,9960,117817,125,19230,512,0,367,0.0009979999999999989
386999,2906,15123,126460,3239,5903,122981,83,19230,512,0,368,0.0010000000000000009
387999,19910,-1522,123916,9278,-587,128056,93,19235,340,1,369,0.0010000000000000009
388999,12450,4463,125513,10689,-1652,121621,93,19230,381,1,370,0.0010000000000000009
389999,12432,-8602,125605,-4984,-9886,132289,80,19235,328,1,371,0.0010000000000000009
390999,10722,1635,127028,9056,8996,118591,91,19235,373,1,372,0.0010000000000000009
391999,10975,5083,128513,861,-3743,133901,111,19232,455,0,373,0.0010000000000000009
392999,17087,830,126626,5256,9307,116204,97,19232,455,0,374,0.0010000000000000009
393999,8047,6163,126317,8021,-2589,127895,76,19234,397,0,375,0.0010000000000000009
394999,19368,-7553,125580,-78,-5735,126963,76,19234,311,1,376,0.0010000000000000009
395999,11813,-1906,126664,16276,-5332,129550,129,19234,528,1,377,0.0010000000000000009
396999,14821,-8950,127686,2054,-4150,130223,93,19235,381,1,378,0.0010000000000000009
397999,8308,9790,128092,2213,7995,118838,89,19231,365,1,379,0.0010000000000000009
398999,13111,-2993,127193,1221,-9714,137876,109,19231,365,0,380,0.0010000000000000009
399999,13004,-506,128679,10113,5671,119754,87,19232,446,0,381,0.0010000000000000009
401000,11434,5761,128922,-5397,-729,128658,87,19238,356,0,382,0.0010009999999999741
401999,15004,-2945,129826,5899,-2156,125577,85,19229,348,1,383,0.0009990000000000276
402999,4762,-4282,130163,7281,-9942,135087,102,19239,418,1,384,0.0010000000000000009
403999,11823,-19985,128389,-12834,-8076,134878,85,19238,348,1,385,0.0010000000000000009
404999,2322,8458,131864,336,13317,115381,97,19238,348,0,386,0.0010000000000000009
405999,16186,6584,129369,2367,1864,134384,94,19225,397,0,387,0.0010000000000000009
407015,5674,3085,129079,11720,3327,121993,94,19236,385,0,388,0.0010159999999999614
407999,7096,785,129450,-37858,-9983,131780,78,19237,319,0,389,0.0009840000000000404
408999,14544,-6951,129712,19526,-5813,128709,108,19232,442,1,390,0.0010000000000000009
409999,-2703,-3921,130445,11906,-11957,137443,88,19235,360,1,391,0.0010000000000000009
410999,46,-9528,129296,-38116,-2207,126151,87,19235,360,1,392,0.0010000000000000009
411999,-2258,18206,130344,-4593,18175,121427,121,19231,356,0,393,0.0010000000000000009
412999,8913,6252,128150,2475,4172,129672,121,19232,496,0,394,0.0010000000000000009
413999,4489,12205,128117,-9035,8756,115250,93,19240,381,0,395,0.0010000000000000009
414999,6317,-14950,126430,-4543,-23707,140079,82,19232,336,1,396,0.0010000000000000009
415999,1769,-7630,129067,1809,-2841,126183,146,19241,598,1,397,0.0010000000000000009
416999,3200,1827,128107,-9958,-2240,133840,87,19241,356,1,398,0.0010000000000000009
417999,-1335,5475,129315,-13211,11333,117793,90,19237,356,1,399,0.0009999999999999454
418999,6749,17600,127922,-17387,10029,122993,102,19229,369,0,400,0.0010000000000000009
419999,4446,-12413,124025,10246,-13709,136604,102,19236,418,0,401,0.0010000000000000009
420999,2204,10607,127554,-3026,11952,120607,84,19238,344,0,402,0.0010000000000000009
422000,10529,3991,124337,-14254,1556,123219,97,19233,397,1,403,0.0010010000000000296
422999,5315,7371,128580,14858,7199,128362,83,19233,340,1,404,0.0009989999999999721
424000,10609,-8740,124435,-12977,-13352,134723,87,19232,340,1,405,0.0010010000000000296
425001,6522,-6473,127063,893,-892,115544,114,19232,356,0,406,0.0010009999999999741
426000,5654,14549,124625,7505,-5166,130397,114,19229,467,0,407,0.0009990000000000276
426999,4572,-2194,125499,-9833,8119,117785,96,19239,393,0,408,0.0009989999999999721
427999,13936,12730,125886,-9511,2818,129515,75,19238,307,0,409,0.0010000000000000009
428999,14826,-3816,123137,20070,-3753,123676,98,19238,401,1,410,0.0010000000000000009
429999,14895,3220,125577,-1763,2061,120228,96,19235,401,1,411,0.0010000000000000009
430999,8930,-8811,125539,-3419,-12314,138457,93,19233,393,1,412,0.0010000000000000009
431999,13745,-3530,127813,8499,13639,117355,93,19232,381,0,413,0.0010000000000000009
432999,13963,16402,128795,6884,6713,127397,109,19234,446,0,414,0.0010000000000000009
433999,9385,1442,123968,-51,-4512,123655,85,19239,348,0,415,0.0010000000000000009
434999,15584,-7000,125413,8353,-11955,131377,83,19228,340,1,416,0.0010000000000000009
435999,11265,-10842,127095,8958,-2799,130480,84,19228,340,1,417,0.0010000000000000009
436999,21065,3637,128846,2817,6755,118251,85,19235,344,1,418,0.0010000000000000009
437999,9534,4204,129411,11667,1351,134641,85,19239,348,1,419,0.0010000000000000009
438999,13201,-1731,128070,-8955,-3315,125973,97,19232,397,0,420,0.0010000000000000009
439999,11455,-1763,128208,11250,-3634,129650,91,19236,373,0,421,0.0010000000000000009
440999,11057,-2679,128558,6005,-95,128172,76,19231,311,0,422,0.0010000000000000009
441999,15982,4457,127835,-2340,185,119103,114,19231,311,1,423,0.0010000000000000009
442999,5490,-1601,131822,-44,-6120,136567,87,19233,467,1,424,0.0010000000000000009
443999,11841,-5681,129130,5212,-4763,129242,87,19233,356,1,425,0.0010000000000000009
444999,-578,-3573,128077,-5530,-8370,133268,84,19236,344,0,426,0.0010000000000000009
445999,11134,-4213,130558,-6358,11797,117467,125,19228,512,0,427,0.0010000000000000009
446999,8544,21879,128077,15895,8066,129991,88,19238,360,0,428,0.0010000000000000009
447999,12520,-11938,130301,-22297,-11826,131901,78,19238,360,0,429,0.0010000000000000009
448999,6340,1219,131966,-2553,2596,119294,101,19231,319,1,430,0.0010000000000000009
450003,5455,-9715,129961,19613,-17496,143419,101,19232,414,1,431,0.0010040000000000049
451001,-4092,-1751,130749,-22283,503,122250,89,19233,365,1,432,0.0009979999999999989
452000,-2253,-3625,129719,-22439,-2934,137149,95,19228,389,0,433,0.0009989999999999721
452999,5024,15781,129440,1535,28198,110612,93,19233,381,0,434,0.0009990000000000276
453999,3724,22604,128799,6726,6500,126095,82,19233,381,0,435,0.0010000000000000009
454999,11204,-16461,125178,-18701,-18093,133336,102,19236,336,0,436,0.0010000000000000009
455999,2043,-10435,129195,3280,-10039,130077,102,19219,418,1,437,0.0010000000000000009
456999,4027,-1713,130952,-12037,3457,130005,92,19236,377,1,438,0.0010000000000000009
457999,736,16158,128515,-5527,10676,119304,88,19232,360,1,439,0.0010000000000000009
458999,760,-5053,125472,-10498,-8457,137879,116,19232,475,0,440,0.0010000000000000009
460000,1661,11200,125783,-12479,10897,113442,97,19232,475,0,441,0.0010009999999999741
460999,10409,10497,125386,3004,1896,126824,78,19240,397,0,442,0.0009990000000000276
461999,13370,1068,126157,7137,3838,123258,78,19233,319,1,443,0.0010000000000000009
462999,3209,-680,125892,-6192,-6286,128793,109,19240,446,1,444,0.0010000000000000009
463999,8546,-4744,128121,-9248,590,127847,91,19236,373,1,445,0.0010000000000000009
465000,1855,9210,125811,11746,3642,124944,90,19232,369,0,446,0.0010009999999999741
465999,10732,-7297,125000,-10565,-5949,130944,125,19232,512,0,447,0.0009990000000000276
466999,5065,14307,125970,-4633,15259,112677,84,19235,512,0,448,0.0010000000000000009
467999,17175,813,124527,7212,-3433,129348,87,19240,344,0,449,0.0010000000000000009
468999,14649,904,125409,10389,1406,122076,87,19226,356,1,450,0.0010000000000000009
469999,11047,-6176,125244,3616,-9987,131847,92,19232,377,1,451,0.0010000000000000009
470999,10996,25,127744,656,5086,117777,95,19239,389,1,452,0.0010000000000000009
471999,9659,6551,128448,9281,6397,134362,107,19239,438,0,453,0.0010000000000000009
472999,16296,-5346,126311,-3678,5341,118721,97,19230,438,0,454,0.0010000000000000009
473999,9752,8735,126331,15747,31,125359,76,19233,397,0,455,0.0010000000000000009
474999,17237,-4378,126177,-920,-5647,128964,76,19234,311,1,456,0.0010000000000000009
475999,13540,-4921,126408,9351,-7312,130034,119,19231,487,1,457,0.0010000000000000009
477001,14163,-7430,127893,3027,-1986,129873,89,19235,365,1,458,0.0010019999999999474
477999,10360,6508,127577,4677,7904,119194,78,19234,319,1,459,0.0009979999999999989
478999,13315,2234,127600,12,-6142,134434,106,19234,319,0,460,0.0010000000000000009
479999,12752,-2776,127633,8811,-248,124357,90,19236,434,0,461,0.0010000000000000009
480999,10727,2274,128438,-2460,-20,127357,90,19241,369,0,462,0.0010000000000000009
481999,15125,327,128461,5801,1636,124613,82,19226,336,1,463,0.0010000000000000009
482999,4600,-6727,130273,5859,-7478,134059,103,19235,422,1,464,0.0010000000000000009
483999,9481,-10174,128238,-7504,-11467,134289,79,19236,324,1,465,0.0010000000000000009
484999,2390,-2414,132840,668,10691,117973,89,19236,324,0,466,0.0010000000000000009
485999,15687,12432,128213,537,4163,130865,92,19228,365,0,467,0.0010000000000000009
486999,6829,503,129574,13869,2035,124004,92,19237,377,0,468,0.0010000000000000009
487999,3579,3772,129108,-39807,-8017,131372,76,19236,311,0,469,0.0010000000000000009
488999,15339,-10120,130508,17955,-4812,127352,104,19231,426,1,470,0.0010000000000000009
489999,-781,582,129890,14628,-9496,137185,81,19235,332,1,471,0.0010000000000000009
490999,913,-13212,128416,-36876,-4305,127655,82,19235,332,1,472,0.0010000000000000009
491999,-2759,13163,129540,-7971,14523,121352,122,19235,336,0,473,0.0010000000000000009
492999,6021,10300,128355,3614,6011,130502,122,19234,500,0,474,0.0010000000000000009
493999,7266,10559,126530,-7604,4643,115918,95,19235,389,0,475,0.0010000000000000009
494999,5053,-2870,128168,-6074,-16907,140128,81,19232,332,0,476,0.0010000000000000009
495999,1507,-15149,126328,-5263,-6891,128287,147,19232,602,1,477,0.0010000000000000009
496999,2699,3870,131029,-6083,1193,131654,84,19232,602,1,478,0.0010000000000000009
498001,-531,1711,128060,-13950,8100,119586,86,19230,344,1,479,0.0010020000000000029
498999,8344,18118,129469,-15069,15407,120338,86,19229,352,0,480,0.0009979999999999989
500003,2377,-7982,123183,15087,-16161,138926,107,19234,438,0,481,0.0010040000000000049
500999,1948,3469,127813,-16844,12059,114671,86,19237,352,0,482,0.0009959999999999969
501999,12200,9149,125377,-6555,2820,125957,97,19232,397,1,483,0.0010000000000000009
502999,2102,6385,128538,15485,7938,122348,80,19232,397,1,484,0.0010000000000000009
503999,14146,-4242,123179,-15649,-14403,136827,85,19232,328,1,485,0.0010000000000000009
504999,-1779,-10827,126622,8338,-3578,123483,85,19234,348,0,486,0.0010000000000000009
506000,10055,19771,126187,-8222,15319,118645,112,19229,459,0,487,0.0010010000000000296
506999,6671,1983,124281,-365,2083,126592,99,19234,405,0,488,0.0009989999999999721
507999,14722,8086,124948,-1268,5250,123418,78,19235,319,0,489,0.0010000000000000009
508999,13967,-8406,121643,16906,-10063,131227,102,19235,418,1,490,0.0010000000000000009
509999,10441,2554,126489,-1302,3734,116150,94,19235,418,1,491,0.0010000000000000009
511000,14206,-2052,126099,958,-6865,133777,90,19233,385,1,492,0.0010010000000000296
511999,10473,-2888,126988,14781,2678,124845,90,19232,369,0,493,0.0009989999999999721
513002,16839,14847,128139,-10172,13965,119869,113,19233,463,0,494,0.0010029999999999761
514001,6996,-1758,124095,14083,-6433,128321,90,19240,369,0,495,0.0009989999999999721
514999,18536,-3419,127091,3851,-4349,133016,87,19240,356,1,496,0.0009980000000000544
515999,11834,-11283,125801,9935,-10293,124322,87,19233,356,1,497,0.0010000000000000009
516999,16926,498,130552,-1002,8886,122894,85,19242,356,1,498,0.0010000000000000009
517999,12501,4017,128081,9419,-971,131792,85,19235,348,1,499,0.0010000000000000009
518999,11772,-3753,128546,-1683,-2879,125415,94,19228,385,0,500,0.0010000000000000009
519999,13189,3068,127341,2308,-1638,129215,95,19240,389,0,501,0.0010000000000000009
520999,8461,-2628,127347,11801,-1422,124718,79,19240,324,0,502,0.0010000000000000009
521999,18808,2962,129624,-1452,-414,125893,115,19238,324,1,503,0.0010000000000000009
523001,4345,-5091,130080,-2776,-8250,135080,85,19230,471,1,504,0.0010019999999999474
523999,11828,-4755,130507,-2828,-1259,125905,85,19237,348,1,505,0.0009980000000000544
524999,432,1635,130095,1627,-4258,134225,85,19234,348,0,506,0.0010000000000000009
525999,9715,-8350,129388,-7557,7011,119195,128,19232,524,0,507,0.0010000000000000009
526999,8658,17563,129266,14277,9632,130679,90,19232,369,0,508,0.0010000000000000009
527999,9393,-10877,127389,-24065,-13388,133860,77,19232,369,0,509,0.0010000000000000009
528999,14124,1339,132348,-2685,10180,114684,104,19232,315,1,510,0.0010000000000000009
530001,5011,-1285,130588,20608,-15863,146971,104,19237,426,1,511,0.0010019999999999474
530999,-1445,-12493,130493,-22027,-3162,122721,89,19232,365,1,512,0.0009980000000000544
531999,-5332,-623,130430,-25606,-2888,134300,95,19226,389,0,513,0.0010000000000000009
532999,5138,9387,130557,4401,26369,115462,94,19238,385,0,514,0.0010000000000000009
533999,6207,28985,128713,8711,9063,121704,83,19238,385,0,515,0.0010000000000000009
534999,9297,-12633,125415,-23475,-19940,136828,102,19239,340,0,516,0.0010000000000000009
535999,1232,-13214,127486,826,-8598,127222,102,19218,418,1,517,0.0010000000000000009
536999,4159,-3593,130709,-4876,1717,131891,82,19237,336,1,518,0.0010000000000000009
537999,2317,13617,129560,-7017,12254,119071,85,19234,348,1,519,0.0010000000000000009
538999,658,1563,123687,-11943,-13790,134256,112,19232,459,0,520,0.0010000000000000009
539999,-1716,2328,126105,-11523,12824,116204,97,19232,459,0,521,0.0010000000000000009
540999,8675,16585,125386,2721,6205,123258,77,19236,397,0,522,0.0010000000000000009
542000,12980,-3158,125172,9348,-1815,127547,77,19235,315,1,523,0.0010009999999999186
542999,3085,3678,127287,-10455,-320,124953,109,19234,446,1,524,0.0009990000000000832
544001,8859,-10431,126739,-7870,-4451,131470,93,19236,381,1,525,0.0010019999999999474
544999,3425,10142,127966,13700,8465,122219,93,19230,381,1,526,0.0009980000000000544
545999,10725,-4261,123555,-8793,-8377,132774,124,19230,381,0,527,0.0010000000000000009
546999,2318,5988,126441,-8229,13608,113541,85,19235,508,0,528,0.0010000000000000009
547999,17509,9029,124610,6705,-46,130376,85,19240,348,0,529,0.0010000000000000009
548999,14972,-2294,125275,16007,1182,122362,87,19231,356,1,530,0.0010000000000000009
549999,11384,1353,123721,-1298,-6981,128839,78,19238,319,1,531,0.0010000000000000009
551002,10247,-7243,126858,3330,-236,127213,90,19234,369,1,532,0.0010029999999999761
551999,9935,11551,127404,5701,8168,123188,105,19234,369,0,533,0.0009970000000000256
552999,17803,-4150,126704,-59,-4271,131746,97,19230,430,0,534,0.0010000000000000009
553999,7158,7479,125835,12729,8146,116350,97,19237,397,0,535,0.0010000000000000009
554999,17895,-2418,125531,-1181,-8095,131089,76,19234,311,1,536,0.0010000000000000009
555999,13497,-6078,126784,9377,-4495,125870,117,19233,479,1,537,0.0010000000000000009
556999,15587,-4623,127798,10110,-7029,133461,97,19236,397,1,538,0.0010000000000000009
557999,8959,937,128060,589,5465,121430,86,19236,352,1,539,0.0010000000000000009
558999,13431,7000,128056,-2179,1462,127393,113,19232,352,0,540,0.0010000000000000009
559999,13171,-7397,127445,10088,-8090,132923,89,19227,463,0,541,0.0010000000000000009
560999,10858,5783,130078,4082,4656,121411,89,19236,365,0,542,0.0010000000000000009
561999,13816,-4946,128813,-3487,-4102,128708,81,19236,332,1,543,0.0010000000000000009
562999,5269,-3666,130266,10096,-5459,132770,110,19235,451,1,544,0.0010000000000000009
563999,12008,-10717,128163,-4591,-13789,133229,84,19235,344,1,545,0.0010000000000000009
564999,439,575,131535,-3645,4623,120094,89,19236,344,1,546,0.0010000000000000009
565999,15955,11239,128378,-5891,7593,129316,98,19230,365,0,547,0.0010000000000000009
566999,5678,1310,129119,19583,2762,127036,98,19239,401,0,548,0.0009999999999998899
567999,4541,1287,129666,-18742,-9375,130352,78,19235,319,0,549,0.0010000000000000009
568999,14750,-8725,129582,-17316,-4587,126820,101,19239,414,1,550,0.0010000000000000009
570001,-872,-331,129160,27748,-9857,138332,84,19239,344,1,551,0.0010020000000000584
570999,3653,-9228,127900,-26285,121,123951,84,19234,344,1,552,0.0009979999999999434
571999,-5454,11741,128344,-11866,10037,126708,117,19233,344,0,553,0.0010000000000000009
572999,7632,8535,128501,-1286,9294,125933,117,19236,479,0,554,0.0010000000000000009
573999,5813,14570,127565,-1592,3268,120709,95,19237,389,0,555,0.0010000000000000009
574999,9097,-6158,127145,-10834,-14888,136415,79,19229,324,0,556,0.0010000000000000009
575999,1344,-9054,128447,1179,-4429,127794,150,19235,614,1,557,0.0010000000000000009
576999,1454,-3445,128388,-9439,-3904,133572,86,19235,614,1,558,0.0010000000000000009
578000,1131,4096,129299,-15004,16267,114987,86,19236,352,1,559,0.0010010000000000296
578999,4188,18210,127653,-11794,2099,128436,86,19226,352,0,560,0.0009989999999999721
579999,5105,-5443,124241,11997,-5332,130394,110,19234,451,0,561,0.0010000000000000009
580999,172,3457,126649,-12586,4274,121548,90,19238,369,0,562,0.0010000000000000009
581999,11689,3245,125643,-7945,4983,122146,95,19231,389,1,563,0.0010000000000000009
582999,3994,11435,128282,11175,8305,123768,78,19231,389,1,564,0.0010000000000000009
583999,13898,-5948,126781,-6889,-18472,137736,86,19235,319,1,565,0.0010000000000000009
584999,2296,-5692,125568,3381,5300,118995,86,19232,352,1,566,0.0010000000000000009
585999,6895,7688,126205,-12307,6027,125239,105,19226,430,0,567,0.0010000000000000009
586999,8979,6092,124183,3996,6447,120834,98,19237,401,0,568,0.0010000000000000009
587999,13115,6456,125598,2975,-23,130363,76,19233,311,0,569,0.0010000000000000009
588999,15681,-7378,122091,10447,-5152,124100,110,19233,311,1,570,0.0010000000000000009
589999,7130,2992,125625,-459,1209,121908,95,19234,451,1,571,0.0010000000000000009
590999,15884,-5068,125603,3003,-6050,132022,95,19235,389,1,572,0.0010000000000000009
591999,10803,3664,127913,13675,7885,121843,89,19232,365,0,573,0.0010000000000000009
592999,14638,7168,126897,-9528,3235,127461,107,19236,438,0,574,0.0010000000000000009
593999,7496,1477,126239,11793,625,121742,88,19237,360,0,575,0.0010000000000000009
594999,18679,-5539,125382,6358,-8705,134049,83,19237,360,0,576,0.0010000000000000009
596003,13167,-10616,127668,10052,-158,124504,99,19228,340,1,577,0.0010040000000000049
597000,14262,4410,127942,939,1151,124138,99,19237,405,1,578,0.0009970000000000256
597999,13474,-2684,129544,7077,860,128513,83,19234,340,1,579,0.0009989999999999721
598999,12573,3134,127615,3075,-1285,128102,91,19228,373,0,580,0.0010000000000000009
599999,11070,58,128032,327,-1004,127893,94,19235,385,0,581,0.0010000000000000009
601000,9000,-98,126930,9867,-3303,125355,77,19235,315,0,582,0.0010010000000000296
602000,15688,-2233,129650,1438,-792,127373,109,19239,315,1,583,0.0010000000000000009
602999,7759,-1512,128355,564,-4592,129512,85,19228,446,1,584,0.0009989999999999721
604000,10612,-5396,131421,-3883,-3469,128987,85,19236,348,1,585,0.0010010000000000296
604999,2567,2176,129366,2141,125,129214,84,19235,344,1,586,0.0009989999999999721
605999,8464,-9435,129594,-8546,-6711,130314,119,19232,487,0,587,0.0010000000000000009
607002,9833,11984,128602,11993,11569,121852,92,19232,377,0,588,0.0010029999999999761
608001,9692,-3943,126813,-3217,-11904,136011,75,19239,377,0,589,0.0009990000000000832
608999,12137,1189,132563,-25150,5011,120032,111,19229,307,1,590,0.0009979999999999434
609999,5507,-1324,129971,22836,-10274,146886,111,19232,455,1,591,0.0010000000000000009
610999,-1990,-13764,130255,-2022,-12766,119983,88,19233,360,1,592,0.0010000000000000009
611999,-5579,832,130601,-34828,1564,134952,92,19228,377,0,593,0.0010000000000000009
612999,5355,7327,130124,-5656,28162,112244,100,19228,410,0,594,0.0010000000000000009
613999,5818,28021,129115,11854,1186,128270,85,19235,410,0,595,0.0010000000000000009
614999,11042,-11557,125685,-16235,-15293,131722,100,19237,348,0,596,0.0010000000000000009
615999,180,-10831,127336,-7898,-8208,129109,100,19231,410,1,597,0.0010000000000000009
616999,5929,-5968,130466,2855,1650,131050,78,19236,319,1,598,0.0010000000000000009
617999,-1166,13479,129232,-4361,7774,121611,85,19231,348,1,599,0.0010000000000000009
618999,1235,4090,125107,-13922,-6618,134798,109,19231,446,0,600,0.0010000000000000009
619999,-2380,3295,124314,-10636,14736,114634,98,19231,446,0,601,0.0010000000000000009
620999,6962,13523,124999,614,-745,128847,77,19237,401,0,602,0.0010000000000000009
621999,15479,-2576,125365,11527,3496,121374,77,19229,315,1,603,0.0010000000000000009
622999,2851,4003,127402,-13125,-3863,129134,122,19236,500,1,604,0.0010000000000000009
624000,11897,-8931,127297,-3541,-1314,127296,91,19235,373,1,605,0.0010010000000000296
624999,937,9100,127251,11271,3875,126801,92,19230,377,1,606,0.0009989999999999721
625999,11570,-4922,124541,-12726,-3813,128464,133,19230,377,0,607,0.0010000000000000009
626999,1729,9487,126313,-3255,15253,112879,90,19232,545,0,608,0.0010000000000000009
627999,15928,5414,124498,5118,-3533,134447,90,19240,369,0,609,0.0010000000000000009
628999,16385,-1196,124025,16366,-862,117443,85,19230,348,1,610,0.0010000000000000009
629999,8647,173,125826,-1656,-7725,133621,74,19234,303,1,611,0.0010000000000000009
630999,13845,-6115,125592,3499,4424,119446,95,19237,389,1,612,0.0010000000000000009
631999,6059,9491,127757,5300,1206,130293,107,19237,389,0,613,0.0010000000000000009
632999,19190,-4714,125932,-1859,472,127726,96,19225,438,0,614,0.0010000000000000009
633999,6419,10605,125819,14023,4568,116143,96,19235,393,0,615,0.0010000000000000009
635001,18136,-2638,126524,-2197,-7746,133639,78,19238,319,0,616,0.0010019999999999474
635999,14013,-4209,125957,13384,-3504,123496,111,19230,455,1,617,0.0009980000000000544
637002,14006,-8629,127855,6839,-10103,136981,89,19235,365,1,618,0.0010029999999999761
637999,12319,2761,127883,502,9675,116917,85,19235,365,1,619,0.0009970000000000256
638999,11102,5751,127799,468,-4855,132968,119,19235,348,0,620,0.0010000000000000009
640000,14881,-7261,128780,8853,-799,128620,119,19235,487,0,621,0.0010010000000000296
641001,9103,3159,129000,2406,3757,123504,93,19238,381,0,622,0.0010009999999999186
641999,18008,-2266,129815,-3543,-1834,127157,78,19229,319,1,623,0.0009980000000000544
642999,5331,1883,129267,12789,-4304,126244,117,19235,479,1,624,0.0010000000000000009
643999,10467,-13131,129216,-10815,-14654,141706,88,19235,479,1,625,0.0010000000000000009
644999,5060,-4816,129371,-661,1491,118709,91,19236,360,1,626,0.0010000000000000009
645999,9073,12282,130670,-2384,9827,129000,91,19230,373,0,627,0.0010000000000000009
646999,13115,2953,126577,14673,196,126332,109,19233,446,0,628,0.0010000000000000009
647999,-719,2320,130142,-18118,-532,127665,79,19235,324,0,629,0.0010000000000000009
648999,17596,-9462,129396,-20559,-9815,130606,93,19230,381,1,630,0.0010000000000000009
649999,-169,785,130652,38075,-1851,127034,82,19230,336,1,631,0.0010000000000000009
651001,1200,-13093,128159,-24327,-15909,140868,88,19235,336,1,632,0.0010019999999999474
651999,-3292,6085,128541,-23882,7569,113581,116,19233,360,0,633,0.0009980000000000544
652999,3480,15411,129155,2215,10567,134072,116,19232,475,0,634,0.0010000000000000009
654001,10265,13927,128340,-3223,14897,111625,98,19237,401,0,635,0.0010019999999999474
654999,7017,-2780,126805,-8622,-12556,133996,80,19232,328,0,636,0.0009980000000000544
655999,2128,-17590,129102,-637,-13824,122924,135,19232,553,1,637,0.0010000000000000009
656999,1590,2197,128668,-6809,2326,135050,89,19232,553,1,638,0.0010000000000000009
657999,234,-475,129466,-7551,1313,115610,87,19242,365,1,639,0.0010000000000000009
658999,4312,21133,127237,-20219,18621,126663,87,19239,356,0,640,0.0010000000000000009
659999,4954,-6931,124002,5302,-11033,134915,113,19228,463,0,641,0.0010000000000000009
660999,-110,1134,125901,2550,11442,114478,88,19238,360,0,642,0.0010000000000000009
662000,11812,8087,126744,-22370,2896,126322,88,19226,360,1,643,0.0010009999999999186
662999,5454,8849,126226,18223,3799,121731,74,19226,360,1,644,0.0009990000000000832
663999,12706,111,127189,-9215,-18451,138372,90,19234,303,1,645,0.0010000000000000009
664999,3962,-14641,124659,10976,3260,120169,90,19236,369,1,646,0.0010000000000000009
665999,5301,11283,127902,-8233,8428,124442,105,19222,430,0,647,0.0010000000000000009
666999,8836,4636,124550,-4229,6458,121652,100,19234,410,0,648,0.0010000000000000009
667999,10745,8942,126778,4043,1943,128025,77,19236,315,0,649,0.0010000000000000009
668999,18534,-4832,122083,14859,-8097,126802,112,19236,315,1,650,0.0010000000000000009
669999,5583,1029,125682,-1444,3753,118258,91,19236,459,1,651,0.0010000000000000009
670999,15977,-1983,125445,2220,-10044,135727,91,19233,373,1,652,0.0010000000000000009
672000,9827,-3695,127250,12564,7623,121392,90,19231,369,0,653,0.0010009999999999186
672999,15410,11885,128511,-8417,7734,124884,115,19235,471,0,654,0.0009990000000000832
674000,9571,1470,125957,14471,1044,123037,89,19238,365,0,655,0.0010009999999999186
674999,14207,-7075,126789,6748,-5873,132330,80,19238,365,0,656,0.0009990000000000832
675999,14681,-11857,126623,7549,-7193,128270,110,19231,328,1,657,0.0010000000000000009
676999,12776,1048,128981,4129,6095,121009,110,19239,451,1,658,0.0010000000000000009
677999,14252,4007,128796,6204,46,130200,91,19236,373,1,659,0.0010000000000000009
679001,11235,-1430,126923,-323,-5578,127383,93,19227,381,0,660,0.0010019999999999474
680000,13462,2076,129215,3755,292,128399,92,19234,377,0,661,0.0009989999999999721
680999,8501,-1141,125857,9215,-5083,126801,80,19234,377,0,662,0.0009990000000000832
681999,16487,39,130072,404,3463,122677,100,19237,328,1,663,0.0010000000000000009
682999,7038,-755,128572,1683,-7677,134850,100,19229,410,1,664,0.0010000000000000009
683999,11563,-10272,128922,-6254,-6232,128526,80,19237,328,1,665,0.0010000000000000009
685000,4782,4996,131531,5899,3045,128612,83,19236,340,1,666,0.0010009999999999186
685999,7257,-9609,126461,-12794,-13436,131842,112,19228,459,0,667,0.0009989999999999721
686999,8898,14569,131508,8331,20271,116385,93,19228,459,0,668,0.0010000000000000009
687999,7997,701,125181,-152,-17997,143943,75,19236,381,0,669,0.0010000000000000009
688999,12764,-5576,131984,-24976,8938,111553,75,19230,307,1,670,0.0010000000000000009
689999,6418,7817,130227,19816,-9445,138005,118,19234,483,1,671,0.0010000000000000009
690999,2365,-18533,128209,-575,-10681,134148,89,19236,365,1,672,0.0010000000000000009
691999,-7516,823,129259,-32646,-4174,127922,89,19227,365,0,673,0.0010000000000000009
692999,5234,432,130309,-7289,11423,126579,107,19227,438,0,674,0.0010000000000000009
693999,5733,33195,127985,11628,25529,110066,85,19232,438,0,675,0.0010000000000000009
694999,10966,-4796,127627,-16020,-14998,138735,93,19238,348,0,676,0.0010000000000000009
695999,1865,-13760,125828,-8302,-9724,125160,93,19226,381,1,677,0.0010000000000000009
696999,3520,-5067,132374,3948,-8875,135604,90,19238,369,1,678,0.0010000000000000009
697999,3395,12598,130022,-9775,16106,118759,83,19234,340,1,679,0.0010000000000000009
698999,648,4105,123631,-6265,-4828,133065,102,19234,418,0,680,0.0010000000000000009
699999,516,-2770,125698,-17249,3737,123774,96,19230,418,0,681,0.0010000000000000009
700999,2914,18204,124423,-948,14022,117301,79,19233,393,0,682,0.0010000000000000009
701999,15842,-4309,125136,4292,-5200,130295,79,19236,324,1,683,0.0010000000000000009
702999,3041,5966,126472,3477,3716,130698,123,19236,504,1,684,0.0010000000000000009
703999,11547,-11352,125602,-17485,-12141,124728,90,19231,369,1,685,0.0010000000000000009
705002,4160,10947,129031,7709,12627,127274,88,19231,360,1,686,0.0010030000000000872
706009,8257,-5186,124121,2262,-6101,129982,138,19229,360,0,687,0.0010069999999999801
706999,4763,4648,127012,-12683,16507,112688,92,19235,565,0,688,0.0009899999999999354
707999,11016,9585,124912,2045,-5218,132696,92,19242,377,0,689,0.0010000000000000009
708999,19189,-1981,125603,10879,4053,117209,80,19221,328,1,690,0.0010000000000000009
709999,8132,-849,124316,9343,-13131,135547,68,19237,279,1,691,0.0010000000000000009
710999,14660,-9989,126029,-3512,5956,117659,95,19231,389,1,692,0.0010000000000000009
711999,5571,13384,126912,7514,1243,131609,100,19231,389,0,693,0.0010000000000000009
712999,17417,-6831,126702,-2584,182,126688,95,19230,410,0,694,0.0010000000000000009
713999,10094,10347,126308,15492,7226,118345,95,19234,389,0,695,0.0010000000000000009
714999,14724,-3496,126151,-2904,-8943,133072,77,19236,315,0,696,0.0010000000000000009
715999,16804,-2987,126687,12513,-1176,121853,105,19229,430,1,697,0.0010000000000000009
716999,11587,-7217,127286,7990,-11883,139043,85,19234,348,1,698,0.0010000000000000009
718000,14309,-2214,127899,-772,11184,115558,82,19234,348,1,699,0.0010010000000000296
718999,8608,10987,127369,76,-4344,133488,117,19234,336,0,700,0.0009989999999999721
719999,17831,-14223,126917,5761,2612,128089,117,19235,479,0,701,0.0010000000000000009
720999,8387,8021,128323,4415,1999,122517,92,19237,377,0,702,0.0010000000000000009
721999,15254,-2728,129793,-5678,-2446,129171,76,19230,311,1,703,0.0010000000000000009
722999,8071,-170,129769,15060,-5772,126700,114,19238,467,1,704,0.0010000000000000009
723999,8141,-10606,129047,-8037,-15851,139683,89,19238,467,1,705,0.0010000000000000009
724999,6785,-4320,129562,-5578,6114,118026,89,19234,365,1,706,0.0010000000000000009
726007,8716,11728,129849,1815,5877,131733,89,19233,365,0,707,0.0010080000000000089
727000,12883,952,128183,14973,3376,124541,110,19242,451,0,708,0.0009930000000000216
727999,262,6504,130137,-25339,-2225,126821,80,19238,328,0,709,0.0009989999999999721
728999,15010,-11290,130392,-8240,-8383,130643,91,19224,373,1,710,0.0010000000000000009
729999,1086,-791,129416,31518,-7774,130941,78,19224,373,1,711,0.0010000000000000009
730999,1110,-12440,126776,-23782,-14944,134336,85,19236,319,1,712,0.0010000000000000009
731999,-5369,11590,129310,-19576,16347,116891,85,19234,348,0,713,0.0010000000000000009
732999,4696,11690,126765,1757,3684,135240,110,19232,451,0,714,0.0010000000000000009
733999,7564,7398,128584,-3077,11933,114346,98,19234,401,0,715,0.0010000000000000009
735000,8056,1589,128234,-13828,-10603,133123,81,19231,332,0,716,0.0010010000000000296
735999,4550,-17659,129193,2903,-10851,132878,133,19231,332,1,717,0.0009989999999999721
736999,273,1719,130222,-3874,-816,129539,96,19232,545,1,718,0.0010000000000000009
737999,2286,-1266,127426,-14369,3138,127003,96,19236,393,1,719,0.0010000000000000009
738999,-1288,20565,128947,-14074,17399,114917,88,19233,360,0,720,0.0010000000000000009
739999,9338,-1860,124283,-5026,-10246,137596,120,19230,491,0,721,0.0010000000000000009
740999,786,-3150,125860,10308,3235,120365,93,19237,381,0,722,0.0010000000000000009
741999,7206,9453,125004,-18430,4680,124262,89,19237,365,1,723,0.0010000000000000009
742999,6725,5380,126852,8289,8428,122214,76,19226,365,1,724,0.0010000000000000009
743999,9693,3977,125942,-1540,-3620,131551,86,19236,311,1,725,0.0010000000000000009
744999,8656,-12439,125731,-14415,-10014,130386,86,19232,352,1,726,0.0010000000000000009
745999,6799,8877,127234,13396,10123,118759,98,19228,401,0,727,0.0010000000000000009
746999,4834,-284,124613,-821,-4219,130898,96,19236,393,0,728,0.0010000000000000009
747999,8477,4992,127046,-13084,7851,117796,76,19236,311,0,729,0.0010000000000000009
748999,16573,4692,125430,8311,1880,130924,107,19236,311,1,730,0.0010000000000000009
749999,12203,153,123042,22472,28,116679,95,19234,438,1,731,0.0010000000000000009
751000,12235,-173,126077,-7212,-2850,133766,95,19232,389,1,732,0.0010010000000000296
752000,8797,-9416,126447,1578,-8896,126840,91,19232,373,0,733,0.0010000000000000009
753001,17058,7700,130495,7830,10651,121582,119,19235,487,0,734,0.0010009999999999186
754002,11720,6424,126736,6535,1487,127664,93,19236,381,0,735,0.0010010000000000296
754999,14752,-2951,125206,1328,-9151,126122,79,19236,381,0,736,0.0009970000000000256
755999,13071,-9601,125905,8267,-8412,132753,114,19233,324,1,737,0.0010000000000000009
756999,13481,-3680,128028,7671,4115,122456,114,19236,467,1,738,0.0010000000000000009
757999,17172,7737,127932,5528,4530,124073,91,19242,373,1,739,0.0010000000000000009
758999,8503,2461,128477,-2158,-4179,131891,85,19228,348,0,740,0.0010000000000000009
759999,15867,-4088,126657,1833,-4711,126818,97,19229,397,0,741,0.0010000000000000009
760999,8261,-4288,128127,14912,-3976,130548,83,19229,397,0,742,0.0010000000000000009
761999,16329,1169,128668,-4325,3454,121354,98,19237,340,1,743,0.0010000000000000009
763001,8108,3463,130070,-876,-3374,128753,98,19228,401,1,744,0.0010019999999999474
763999,12455,-5084,130370,2288,-4903,134580,78,19234,319,1,745,0.0009980000000000544
764999,3880,-6940,129304,280,-4295,130343,79,19234,324,1,746,0.0010000000000000009
765999,6384,-6377,127525,-10998,-3835,125504,106,19223,434,0,747,0.0010000000000000009
766999,9756,15609,131189,15950,20813,119481,94,19223,434,0,748,0.0010000000000000009
768002,7701,4664,125719,-6955,-17205,141225,75,19237,385,0,749,0.0010029999999999761
768999,12618,-8990,131527,-24945,6007,114283,75,19233,307,1,750,0.0009970000000000256
769999,6167,4375,128732,25296,-13407,141104,117,19240,479,1,751,0.0010000000000000009
770999,3529,-14112,129994,-7139,-6922,127802,86,19236,352,1,752,0.0010000000000000009
771999,-6507,1933,128443,-29823,-6138,133942,85,19233,348,0,753,0.0010000000000000009
772999,4818,-3201,130053,-5939,15858,122081,113,19233,348,0,754,0.0010000000000000009
773999,6032,33375,128099,8829,23088,112212,88,19230,463,0,755,0.0010000000000000009
774999,10172,-2626,126764,-14867,-17105,138402,88,19236,360,0,756,0.0010000000000000009
775999,5347,-12678,125011,-6004,-14471,125633,89,19228,365,1,757,0.0010000000000000009
776999,2202,-7171,131640,-446,-5019,136029,105,19236,430,1,758,0.0010000000000000009
777999,3310,11555,130010,-12436,16617,115588,82,19238,336,1,759,0.0010000000000000009
778999,-425,5381,125813,-1916,-9608,137720,99,19238,336,0,760,0.0010000000000000009
779999,-25,-6696,124966,-17543,5977,121198,97,19229,405,0,761,0.0010000000000000009
780999,3081,18001,125186,-3278,11170,117694,97,19236,397,0,762,0.0010000000000000009
781999,15677,-973,125116,6501,-784,129081,81,19235,332,1,763,0.0010000000000000009
782999,5778,7527,126241,1670,1807,121407,119,19234,487,1,764,0.0010000000000000009
784000,9375,-12673,125367,-16020,-11515,135308,97,19232,397,1,765,0.0010009999999999186
784999,3620,9167,129061,6477,12200,118213,91,19232,373,1,766,0.0009990000000000832
785999,7610,-3073,124487,1851,-11620,137052,138,19233,373,0,767,0.0010000000000000009
786999,6771,2782,127895,-10365,16925,112819,92,19232,565,0,768,0.0010000000000000009
787999,8384,10192,125365,6743,6104,128339,92,19236,377,0,769,0.0010000000000000009
789001,17971,-5074,124887,9518,-1842,124892,79,19229,324,1,770,0.0010019999999999474
789999,9378,2256,124657,7590,-3470,124661,82,19236,336,1,771,0.0009980000000000544
790999,14232,-11179,125100,-305,-5975,130692,89,19236,365,1,772,0.0010000000000000009
791999,7156,12202,127586,8978,10395,116725,94,19236,365,0,773,0.0010000000000000009
792999,16438,-3424,126310,-2901,-6866,138045,94,19228,385,0,774,0.0010000000000000009
793999,11616,4892,125410,9798,8062,114539,94,19236,385,0,775,0.0010000000000000009
794999,13393,2801,126807,5631,-2182,129206,78,19234,319,0,776,0.0010000000000000009
795999,16365,-5602,125773,389,-4800,126352,101,19228,414,1,777,0.0010000000000000009
797001,11231,-7239,127805,15530,-10265,136267,86,19236,352,1,778,0.0010019999999999474
798001,14389,-2084,127629,3188,1434,115614,82,19236,352,1,779,0.0010000000000000009
799002,8215,7194,127463,-654,2116,132176,110,19236,336,0,780,0.0010010000000000296
799999,14429,-5921,127675,582,-7935,128382,110,19231,451,0,781,0.0009970000000000256
801000,9546,1800,129603,8586,2532,122915,92,19238,377,0,782,0.0010009999999999186
801999,15287,1739,129543,-3270,152,128059,77,19240,315,0,783,0.0009990000000000832
802999,7960,187,129836,8458,-6841,128115,118,19234,483,1,784,0.0010000000000000009
803999,9460,-11404,128233,686,-13715,138872,85,19234,483,1,785,0.0009999999999998899
805002,6481,-9292,130475,-7731,4193,120596,87,19236,348,1,786,0.0010030000000000872
805999,7932,11105,130221,-3548,8121,127778,87,19234,356,0,787,0.0009969999999999146
807000,14254,4449,128562,18411,1196,127455,109,19235,446,0,788,0.0010010000000000296
807999,224,5077,130284,-24725,-1795,127315,80,19238,328,0,789,0.0009989999999999721
809000,13551,-7197,130169,-14964,-8581,129049,86,19229,352,1,790,0.0010010000000000296
809999,4840,-280,129905,36897,-7717,133738,75,19229,352,1,791,0.0009989999999999721
810999,929,-8747,128851,-26329,-13237,134952,85,19237,307,1,792,0.0010000000000000009
812002,-2004,815,127415,-24327,13456,118396,85,19234,348,0,793,0.0010030000000000872
813001,412,15668,130913,2847,9035,132811,107,19231,438,0,794,0.0009989999999999721
813999,10599,6675,126829,-1030,9403,114525,95,19236,389,0,795,0.0009979999999999434
814999,5880,4476,129478,-14544,-6685,132038,78,19230,319,0,796,0.0010000000000000009
815999,4775,-16747,126590,2665,-15453,134801,128,19230,319,1,797,0.0010000000000000009
816999,1191,-2131,130620,-3557,2400,127090,88,19232,524,1,798,0.0010000000000000009
818001,3210,2647,128739,-12189,2885,128121,88,19236,360,1,799,0.0010020000000000584
819001,-2556,13973,129421,-18246,17007,113473,84,19231,344,0,800,0.0010000000000000009
819999,10690,3960,124758,904,-9793,138591,117,19231,479,0,801,0.0009979999999999434
820999,-2000,-10080,127236,9412,-1358,121452,89,19238,365,0,802,0.0010000000000000009
821999,9426,15134,126596,-22738,9755,119740,83,19238,365,1,803,0.0010000000000000009
822999,6954,4223,126480,13650,6281,122773,80,19228,340,1,804,0.0010000000000000009
823999,11224,7716,124751,-5368,-3970,130684,80,19234,328,1,805,0.0010000000000000009
824999,9172,-15664,124768,-12081,-13790,133148,91,19234,373,1,806,0.0010000000000000009
825999,5980,4272,127332,15135,9793,117422,101,19224,414,0,807,0.0010000000000000009
826999,4509,7426,126454,-3336,1791,129698,99,19237,405,0,808,0.0010000000000000009
827999,7039,2885,125999,-17250,6910,120109,76,19237,311,0,809,0.0010000000000000009
829000,17331,6227,125464,16088,1877,129479,107,19236,311,1,810,0.0010010000000000296
829999,11973,-2579,121328,22102,-3607,121606,92,19235,438,1,811,0.0009989999999999721
830999,12741,1471,127595,-14686,-300,121774,92,19234,377,1,812,0.0010000000000000009
832000,8809,-9680,125648,8082,-10120,137056,91,19232,373,0,813,0.0010010000000000296
832999,20334,-2740,130914,5086,16859,120252,124,19236,508,0,814,0.0009989999999999721
834000,11563,15855,127050,3032,6057,122578,94,19236,385,0,815,0.0010010000000000296
834999,11074,-4548,125856,933,-7130,127209,77,19233,385,0,816,0.0009989999999999721
835999,16757,-10732,126094,10576,-12121,131973,115,19232,315,1,817,0.0010000000000000009
836999,11804,-3595,128150,9723,646,126432,115,19237,471,1,818,0.0010000000000000009
837999,19826,9273,127922,4662,6162,120499,89,19235,365,1,819,0.0010000000000000009
838999,5636,1356,128721,8538,-1950,130637,89,19228,365,0,820,0.0010000000000000009
839999,15920,-5089,126587,-11162,-6431,130263,98,19228,401,0,821,0.0010000000000000009
840999,7930,-3601,128187,18742,-2194,127295,79,19234,401,0,822,0.0010000000000000009
841999,15698,4272,129029,720,4198,123104,94,19241,324,0,823,0.0010000000000000009
842999,10122,1672,129291,-2135,-2371,124235,94,19223,385,1,824,0.0010000000000000009
843999,11127,-11433,129068,2446,-14029,136053,79,19236,324,1,825,0.0010000000000000009
845000,7039,-3202,130403,6576,-2694,126565,85,19232,348,1,826,0.0010010000000000296
846001,3150,-4078,127048,-10088,-8211,125858,110,19228,451,0,827,0.0010010000000000296
846999,11147,9338,133311,-3489,15406,122735,93,19228,451,0,828,0.0009979999999999434
847999,7604,10661,126246,16362,-18035,138458,75,19239,381,0,829,0.0010000000000000009
848999,11527,-11905,130891,-26505,7657,115674,75,19235,307,1,830,0.0010000000000000009
849999,7703,8484,128620,2038,-14240,138990,131,19236,537,1,831,0.0010000000000000009
850999,5777,-16901,129092,18942,-7421,132318,92,19234,377,1,832,0.0010000000000000009
851999,-6936,1200,128854,-28837,-5122,132695,87,19231,356,1,833,0.0010000000000000009
852999,2017,-2277,129178,-6169,15875,120042,113,19231,356,0,834,0.0010000000000000009
853999,5019,29120,127282,10467,22722,114740,88,19233,463,0,835,0.0010000000000000009
854999,9222,6693,125273,-13063,-20060,135272,88,19241,360,0,836,0.0010000000000000009
855999,5081,-15987,125909,-4833,-11075,126369,89,19228,365,1,837,0.0010000000000000009
856999,1723,-6988,130378,-2100,-3264,133991,121,19234,496,1,838,0.0010000000000000009
857999,1863,5276,130800,-10275,12285,119645,85,19235,348,1,839,0.0010000000000000009
858999,356,9508,126897,-4545,-5578,135101,98,19235,348,0,840,0.0010000000000000009
859999,414,-9026,124868,-16330,5273,122057,98,19231,401,0,841,0.0010000000000000009
860999,1457,18260,126888,-3625,12412,116465,98,19233,401,0,842,0.0010000000000000009
861999,16676,513,123755,8404,-2852,130619,83,19236,340,1,843,0.0010000000000000009
862999,5984,3630,127438,1900,1513,122052,117,19233,479,1,844,0.0010000000000000009
863999,9529,-7577,124344,-17511,-9050,133031,90,19236,369,1,845,0.0010000000000000009
864999,3222,3404,129542,6606,12235,120668,88,19236,369,1,846,0.0010000000000000009
865999,7356,2321,125041,1845,-11312,136096,131,19234,360,0,847,0.0010000000000000009
866999,7760,-4053,127462,-8842,12263,117704,131,19231,537,0,848,0.0010000000000000009
867999,6768,17898,126213,369,7572,122755,93,19233,381,0,849,0.0010000000000000009
868999,20892,-4454,124297,13453,-4197,127839,77,19232,315,1,850,0.0010000000000000009
869999,8698,1725,124322,8113,-3226,124878,83,19232,340,1,851,0.0010000000000000009
870999,14201,-9822,124828,-3086,-7069,129315,94,19232,340,1,852,0.0010000000000000009
872002,5045,7568,128007,8779,10697,118749,97,19234,385,1,853,0.0010029999999999761
872999,17099,2228,126766,-3016,-3989,135285,97,19226,397,0,854,0.0009970000000000256
873999,12453,-357,125051,10960,5809,116944,93,19233,381,0,855,0.0010000000000000009
874999,13028,5909,126468,2412,-375,127826,80,19237,328,0,856,0.0010000000000000009
875999,18260,-7336,126041,4636,-6935,126465,96,19227,393,1,857,0.0010000000000000009
876999,11039,-4208,129725,13813,-7010,131898,82,19227,336,1,858,0.0010000000000000009
877999,12758,-8963,128822,4775,-620,128335,83,19236,336,1,859,0.0010000000000000009
878999,6863,9813,128356,-1838,6308,120278,109,19233,340,0,860,0.0010000000000000009
879999,16609,-3990,126770,2564,-7878,134950,109,19232,446,0,861,0.0010000000000000009
880999,8215,2966,129395,11814,4111,121991,93,19235,381,0,862,0.0010000000000000009
881999,16505,3159,128152,-8422,-2617,128546,75,19235,307,0,863,0.0010000000000000009
882999,8566,-3614,130238,10470,-1231,125145,127,19235,520,1,864,0.0010000000000000009
883999,9484,-7767,127141,4159,-13749,136853,89,19235,520,1,865,0.0010000000000000009
884999,6978,-7416,131085,-9608,-716,125969,85,19240,365,1,866,0.0010000000000000009
886000,7610,10328,128055,-2662,4766,127443,85,19230,348,0,867,0.0010010000000000296
886999,12178,1339,129325,6560,3945,126798,113,19233,463,0,868,0.0009989999999999721
887999,3387,10107,129918,1078,4273,124551,84,19238,344,0,869,0.0010000000000000009
889000,11448,-10755,128996,-24867,-16389,134878,85,19238,348,1,870,0.0010010000000000296
889999,4087,-2505,130070,11054,-4753,124582,74,19227,348,1,871,0.0009989999999999721
890999,6803,-4645,130352,3934,-5347,128666,85,19234,303,1,872,0.0010000000000000009
892000,-5428,4086,128694,-22973,6013,124228,85,19234,348,1,873,0.0010010000000000296
892999,2802,7416,130136,-15325,6283,129993,104,19230,426,0,874,0.0009989999999999721
894000,5782,7511,126614,6694,9168,120041,97,19238,397,0,875,0.0010009999999999186
894999,6293,6529,128575,-4750,-5710,128833,77,19235,315,0,876,0.0009990000000000832
895999,8642,-8650,127554,-14656,-11774,131705,120,19235,315,1,877,0.0010000000000000009
896999,21,-9890,129367,6948,-7036,135279,84,19231,491,1,878,0.0010000000000000009
898001,5226,-601,130157,-14629,13073,118458,84,19238,344,1,879,0.0010019999999999474
898999,-3784,17810,127619,-9552,9145,123678,83,19235,340,0,880,0.0009980000000000544
899999,7841,1443,126442,-9538,-6720,129611,123,19231,504,0,881,0.0010000000000000009
900999,1824,2390,127913,5917,3075,122887,95,19237,389,0,882,0.0010000000000000009
901999,8105,123,126284,-12034,2404,124433,82,19237,389,0,883,0.0010000000000000009
902999,11038,7323,126525,7092,4632,120099,88,19231,336,1,884,0.0010000000000000009
903999,8893,-2507,124932,1364,-9860,137411,88,19234,360,1,885,0.0010000000000000009
904999,7833,-6160,126838,-13239,4768,121044,92,19235,377,1,886,0.0010000000000000009
905999,5086,7579,127649,-2923,1335,127173,97,19228,397,0,887,0.0010000000000000009
906999,7834,708,125654,11420,3370,125234,110,19235,451,0,888,0.0010000000000000009
907999,3548,7046,125402,-4757,1915,124057,76,19235,451,0,889,0.0010000000000000009
908999,16208,-892,123201,-2836,1023,124606,101,19237,311,1,890,0.0010000000000000009
909999,12231,5612,124105,20809,4407,121350,101,19234,414,1,891,0.0010000000000000009
910999,18502,-2214,125178,-1988,-4248,128778,87,19234,356,1,892,0.0010000000000000009
911999,8973,-6421,128902,8880,5871,123319,90,19233,369,1,893,0.0010000000000000009
913015,11942,-941,126773,118,-6568,133763,121,19233,496,0,894,0.0010159999999999059
914002,9524,7247,130206,3785,7215,118950,94,19233,385,0,895,0.0009870000000000712
914999,13424,11808,126719,4187,1718,128321,76,19237,385,0,896,0.0009970000000000256
916001,18603,-6582,125249,11688,-6080,125351,76,19232,311,1,897,0.0010019999999999474
916999,10226,879,126938,8507,-2466,125940,121,19235,496,1,898,0.0009980000000000544
917999,16470,-6987,127895,1096,-6460,131106,86,19236,352,1,899,0.0010000000000000009
918999,11320,2691,128843,11863,4453,122765,85,19227,348,0,900,0.0010000000000000009
919999,13785,2957,129717,-4685,1420,131359,105,19227,430,0,901,0.0010000000000000009
921001,9473,1327,127589,6422,-1378,123298,82,19233,430,0,902,0.0010019999999999474
921999,12232,-3449,128178,2904,-7356,132596,82,19236,336,0,903,0.0009980000000000544
922999,11284,-5518,126699,1828,-7574,126945,90,19224,369,1,904,0.0009999999999998899
923999,8727,0,130107,-760,-1523,127617,75,19236,307,1,905,0.0010000000000000009
924999,8795,78,129601,-1358,-1962,132297,85,19236,348,1,906,0.0010000000000000009
925999,5703,-6688,129209,-1412,-6400,128714,106,19236,434,0,907,0.0010000000000000009
927000,10612,7091,133140,-675,15441,121283,96,19227,434,0,908,0.0010010000000000296
927999,6494,4478,126637,6333,-6413,134323,70,19240,393,0,909,0.0009989999999999721
928999,12031,-7609,131750,-22276,214,121060,70,19242,287,1,910,0.0010000000000000009
929999,8719,4138,129428,9055,-4838,132583,125,19239,512,1,911,0.0010000000000000009
930999,4532,-12918,129477,5969,-12798,134568,91,19243,373,1,912,0.0010000000000000009
931999,-6746,-550,129008,-28209,-3420,128580,88,19243,360,1,913,0.0010000000000000009
932999,4943,640,129177,-11496,9028,126962,117,19231,360,0,914,0.0010000000000000009
933999,3061,33352,128862,3940,27097,112731,91,19233,479,0,915,0.0010000000000000009
935000,9985,1134,126173,-2406,-10367,134791,91,19238,373,0,916,0.0010010000000000296
935999,3978,-14369,125214,-14438,-11569,126833,85,19228,348,1,917,0.0009989999999999721
936999,1622,-8637,129832,1425,-10336,134503,121,19236,496,1,918,0.0010000000000000009
937999,3204,6372,130526,-11187,10710,120371,91,19236,373,1,919,0.0010000000000000009
938999,-135,6209,127043,-6043,-1153,135627,95,19236,373,0,920,0.0010000000000000009
939999,1420,-1741,126824,-15880,3394,113528,97,19228,389,0,921,0.0010000000000000009
940999,1367,18033,125318,-3042,13451,128514,97,19234,397,0,922,0.0010000000000000009
942000,15899,-5159,124793,701,585,123555,80,19234,328,0,923,0.0010010000000000296
942999,6681,7827,127247,6748,-2397,126876,113,19239,463,1,924,0.0009989999999999721
943999,9203,-9502,124532,-10757,-1563,128543,90,19234,369,1,925,0.0010000000000000009
944999,4244,8532,129039,-2311,2779,122579,87,19234,369,1,926,0.0010000000000000009
946001,5712,-5631,125503,5866,-8791,135916,123,19236,356,0,927,0.0010020000000000584
947002,9373,3378,127690,-4796,19472,109001,123,19232,504,0,928,0.0010010000000000296
947999,4759,14792,125966,3864,-4497,133917,93,19238,381,0,929,0.0009969999999999146
948999,21937,-6405,123198,9124,2011,120352,79,19235,324,1,930,0.0010000000000000009
949999,6955,2791,123434,8237,-10443,130979,93,19234,381,1,931,0.0010000000000000009
950999,15582,-10181,126331,-1892,3245,122115,93,19234,381,1,932,0.0010000000000000009
952001,6085,13100,128106,9425,6952,123243,93,19231,381,1,933,0.0010020000000000584
952999,14659,-4699,127168,-6113,-6214,135261,93,19229,381,0,934,0.0009979999999999434
953999,13591,4727,125543,13893,9795,113155,98,19235,401,0,935,0.0010000000000000009
954999,10672,4498,126520,1121,-8201,134387,84,19236,344,0,936,0.0010000000000000009
955999,20471,-8093,126287,5001,149,122052,98,19227,401,1,937,0.0010000000000000009
956999,10396,-6534,128489,12478,-9354,138661,79,19227,401,1,938,0.0010000000000000009
957999,17536,-5851,129409,628,6409,119175,82,19236,324,1,939,0.0010000000000000009
958999,7493,14746,127937,4498,1233,125481,82,19236,336,0,940,0.0010000000000000009
959999,15911,-11152,127596,1461,-9272,136764,102,19231,418,0,941,0.0010000000000000009
960999,11019,6198,129457,10411,8337,116227,92,19237,377,0,942,0.0010000000000000009
961999,13075,1309,128674,-8227,-5785,135270,78,19235,319,0,943,0.0010000000000000009
962999,12407,-1927,129230,13172,-696,120176,134,19235,319,1,944,0.0010000000000000009
963999,3454,-6848,128962,-2687,-14348,141567,91,19238,549,1,945,0.0010000000000000009
964999,10907,-14157,128899,-8210,-903,123220,91,19236,373,1,946,0.0010000000000000009
965999,4877,13894,129994,3062,9445,123941,85,19232,348,0,947,0.0010000000000000009
966999,16039,2054,128827,7999,1085,131477,118,19239,483,0,948,0.0010000000000000009
967999,1564,8120,128887,-5822,-750,119062,86,19238,352,0,949,0.0010000000000000009
968999,13106,-8501,129548,-24598,-13423,138049,86,19238,352,1,950,0.0010000000000000009
969999,4406,-1844,131179,25726,-824,121889,90,19231,352,1,951,0.0010000000000000009
970999,1821,-8859,130445,-8058,-13952,141001,87,19234,369,1,952,0.0010000000000000009
971999,-1562,-201,130899,-29378,11898,117843,87,19236,356,1,953,0.0010000000000000009
972999,2712,13564,129759,113,7420,130100,99,19228,405,0,954,0.0010000000000000009
974004,8330,6495,128874,490,12094,121206,97,19237,397,0,955,0.0010050000000000336
975000,3982,9338,126618,-12164,-3527,123724,80,19237,328,0,956,0.0009959999999999969
975999,6962,-18495,128776,-2898,-16882,139608,117,19236,328,1,957,0.0009989999999999721
976999,501,-1033,128962,1913,-1001,126193,85,19227,479,1,958,0.0010000000000000009
977999,4243,-2748,129481,-16906,663,130697,85,19239,348,1,959,0.0010000000000000009
978999,-1958,19239,127313,-9733,19880,114292,82,19232,336,0,960,0.0010000000000000009
979999,8358,2111,126762,-12689,-5093,137187,125,19234,512,0,961,0.0010000000000000009
980999,3498,-2830,126468,10187,1305,123683,96,19234,393,0,962,0.0010000000000000009
981999,4353,6333,126987,-9095,3518,124304,82,19236,393,0,963,0.0010000000000000009
982999,10125,3379,125763,-6509,6250,121670,101,19230,336,1,964,0.0010000000000000009
983999,4964,6471,126633,9672,917,127316,101,19233,414,1,965,0.0010000000000000009
984999,10582,-10775,125412,-15600,-9907,120264,97,19236,397,1,966,0.0010000000000000009
985999,6753,6292,127568,6852,8494,125444,97,19228,397,0,967,0.0010000000000000009
986999,6666,1459,125088,2904,-2427,127879,119,19233,487,0,968,0.0010000000000000009
987999,5271,3407,126453,-9930,5095,119741,82,19233,487,0,969,0.0010000000000000009
989001,15848,4590,125490,-2691,1133,131076,98,19238,336,1,970,0.0010019999999999474
989999,13853,2544,124388,22148,2318,116297,98,19232,401,1,971,0.0009980000000000544
990999,11721,-4311,125774,2972,-5866,132571,88,19233,360,1,972,0.0010000000000000009
991999,9597,-8343,127021,-9969,55,124785,89,19236,365,1,973,0.0010000000000000009
992999,14909,4987,127969,12499,7594,125845,112,19232,459,0,974,0.0010000000000000009
993999,11559,7254,129218,3813,6394,123111,93,19232,459,0,975,0.0010000000000000009
994999,13459,3810,123987,3036,-10649,127367,77,19236,381,0,976,0.0010000000000000009
995999,13178,-13461,126701,9173,-9267,131671,77,19231,315,1,977,0.0010000000000000009
996999,12754,-617,127184,7048,1466,125037,135,19238,553,1,978,0.0010000000000000009
997999,18569,304,129160,5700,4428,123299,85,19236,348,1,979,0.0010000000000000009
998999,9174,8920,128323,6557,2680,128130,81,19232,332,0,980,0.0010000000000000009
1000008,13183,-4056,126650,-5932,-11414,131966,102,19232,332,0,981,0.0010090000000000376
1001001,10767,-3135,128281,14870,114,125077,85,19232,418,0,982,0.0009930000000000216
1001999,13407,174,128084,-277,450,128423,85,19243,348,0,983,0.0009979999999998324
1002999,13098,3080,128730,-5947,-738,122864,88,19226,360,1,984,0.001000000000000112
1003999,8937,-1650,130491,7168,-6875,135751,79,19233,324,1,985,0.0009999999999998899
1004999,8301,-7199,129343,2053,-5470,131082,80,19241,328,1,986,0.001000000000000112
1005999,2066,-3137,126995,-12958,-8532,129175,98,19241,328,0,987,0.0009999999999998899
1007000,11453,1079,131989,5983,16681,119032,94,19232,401,0,988,0.0010010000000000296
1007999,9613,18772,127970,9973,8,133582,94,19234,385,0,989,0.0009989999999999721
1008999,12108,-13887,131277,-28030,-4890,123614,75,19236,307,1,990,0.001000000000000112
1009999,5202,7459,130764,8091,-2485,127659,116,19231,475,1,991,0.0009999999999998899
1010999,7937,-16354,130638,12233,-14740,139164,104,19237,426,1,992,0.001000000000000112
1011999,-7871,1697,130198,-30305,2717,124778,92,19237,426,1,993,0.0009999999999998899
1013005,3543,-2301,130347,-15414,-3268,132769,124,19234,377,0,994,0.0010060000000000624
1013999,4322,26857,128215,7483,31747,108652,124,19233,508,0,995,0.0009939999999999394
1014999,8761,11472,125546,-3225,-9468,134875,92,19236,377,0,996,0.001000000000000112
1015999,9109,-17374,124545,-13762,-12543,127211,83,19226,340,1,997,0.0009999999999998899
1016999,-693,-7620,129998,151,-8935,136278,131,19235,537,1,998,0.001000000000000112
1017999,5623,-100,130925,-13344,9675,121143,88,19235,360,1,999,0.0009999999999998899
1018999,-1173,16230,127800,-1117,4352,128825,91,19237,360,0,1000,0.001000000000000112
1019999,2942,-11846,124706,-15447,-7063,132566,95,19228,373,0,1001,0.0009999999999998899
1020999,126,16574,128155,-7156,18083,111070,95,19236,389,0,1002,0.001000000000000112
1022000,14669,1407,125013,954,-4326,133630,84,19239,344,0,1003,0.0010010000000000296
1022999,9762,5703,128037,10713,8989,116626,107,19234,438,1,1004,0.0009989999999999721
1023999,5618,-6670,124584,-14095,-11014,137220,85,19234,348,1,1005,0.0009999999999998899
1024999,6519,-2087,129361,-2745,12533,118069,81,19235,348,1,1006,0.001000000000000112
1025999,2982,7261,125086,9290,-5160,133273,119,19233,332,0,1007,0.0009999999999998899
1026999,11379,-8134,126685,-12552,2654,122705,119,19230,487,0,1008,0.001000000000000112
1027999,3744,20194,125823,537,13648,115493,94,19237,385,0,1009,0.0009999999999998899
1029001,20249,-6622,123280,4816,-6822,134283,77,19233,315,1,1010,0.0010020000000001694
1029999,9969,7738,125528,12982,3575,117001,98,19233,401,1,1011,0.0009979999999998324
1030999,13397,-14202,125064,-1919,-15685,139217,97,19233,401,1,1012,0.001000000000000112
1032000,8733,8942,128004,3584,13599,118224,93,19237,397,1,1013,0.0010010000000000296
1032999,11295,3459,126627,4581,-2740,138961,93,19228,381,0,1014,0.0009989999999999721
1034000,16335,-4725,125797,1283,1008,111492,99,19237,405,0,1015,0.0010010000000000296
1034999,9412,9629,125832,13980,4976,133356,83,19239,340,0,1016,0.0009989999999999721
1036000,21253,-13181,126030,-960,2805,120922,92,19227,377,1,1017,0.0010010000000000296
1036999,10602,1338,127538,14671,-11193,136393,74,19227,377,1,1018,0.0009989999999999721
1038002,16374,-13027,130542,2972,2640,123289,80,19236,303,1,1019,0.0010029999999998651
1039000,9167,13255,128331,2723,4400,122482,80,19236,328,0,1020,0.0009980000000000544
1040002,12891,-3449,128587,549,-11000,136659,101,19231,414,0,1021,0.0010019999999999474
1041001,12756,103,127409,10522,5171,119668,94,19235,385,0,1022,0.0009989999999999721
1041999,11073,3292,130067,-7558,55,130314,75,19232,307,0,1023,0.0009980000000000544
1042999,13976,1151,129057,10786,-681,122317,126,19232,307,1,1024,0.001000000000000112
1044001,4710,-5648,130029,1735,-15352,139688,84,19239,516,1,1025,0.0010019999999999474
1045001,9894,-15167,128029,-9102,-4750,125864,84,19239,344,1,1026,0.0009999999999998899
1046001,3761,8797,130461,-2168,9431,123686,83,19229,340,0,1027,0.001000000000000112
1046999,13966,4822,127690,15194,709,130612,121,19236,496,0,1028,0.0009980000000000544
1047999,2543,10719,128835,-5642,4719,122297,86,19237,352,0,1029,0.0009999999999998899
1048999,9817,-4139,126335,-32070,-13851,135639,82,19237,352,1,1030,0.001000000000000112
1049999,9407,-6606,131751,27866,-2715,125946,80,19228,336,1,1031,0.0009999999999998899
1050999,4174,-5405,129889,-2003,-12687,137962,80,19237,328,1,1032,0.001000000000000112
1051999,-1247,-6742,130868,-30162,8850,119847,85,19234,348,1,1033,0.0009999999999998899
1052999,684,15953,130131,-4712,10086,128686,102,19228,418,0,1034,0.001000000000000112
1054001,7705,4909,127684,3649,7262,124585,98,19237,401,0,1035,0.0010019999999999474
1054999,4020,10366,128698,-13548,2151,120891,79,19237,401,0,1036,0.0009980000000000544
1055999,6816,-10886,128584,-4312,-14356,136230,112,19236,324,1,1037,0.0009999999999998899
1056999,1252,-7889,128650,3567,-4358,130700,112,19229,459,1,1038,0.001000000000000112
1057999,2101,-1456,127941,-14463,-3900,129251,84,19236,344,1,1039,0.0009999999999998899
1058999,-868,14210,128710,-9316,17676,115634,86,19231,352,1,1040,0.001000000000000112
1059999,4995,12604,126129,-10950,327,129750,124,19233,508,0,1041,0.0009999999999998899
1060999,2586,-7850,125069,4112,-6691,129918,95,19233,389,0,1042,0.001000000000000112
1062000,4579,4962,126343,-9047,6789,122245,80,19236,389,0,1043,0.0010010000000000296
1063001,7828,6159,125499,-1342,6147,120833,103,19228,328,1,1044,0.0010009999999998076
1063999,7905,7050,127395,5979,3686,126130,103,19233,422,1,1045,0.0009980000000000544
1064999,9752,-8882,124815,-6266,-13640,135564,96,19234,393,1,1046,0.001000000000000112
1065999,5865,-2099,127833,-8637,4450,119872,99,19227,405,0,1047,0.0009999999999998899
1066999,11522,8735,126783,9714,4283,127441,115,19227,471,0,1048,0.001000000000000112
1067999,1701,-339,125495,3307,-282,125711,80,19240,471,0,1049,0.0009999999999998899
1068999,13748,3384,125990,-19579,5995,124028,95,19236,328,1,1050,0.001000000000000112
1069999,12160,1029,125230,20046,3961,125998,95,19233,389,1,1051,0.0009999999999998899
1070999,19873,5421,125542,10377,3682,119663,84,19234,344,1,1052,0.001000000000000112
1071999,10004,-4292,126371,-2415,-8452,128848,88,19234,360,1,1053,0.0009999999999998899
1072999,12267,-4707,127249,337,-3086,130346,114,19234,467,0,1054,0.001000000000000112
1073999,13550,4930,127241,9861,5978,124110,98,19235,467,0,1055,0.0009999999999998899
1074999,9364,6935,127264,5768,5308,125040,73,19236,401,0,1056,0.001000000000000112
1075999,18142,-4302,124207,715,-8264,126828,73,19234,299,1,1057,0.0009999999999998899
1076999,7495,-8452,127150,11519,-7105,129091,127,19236,520,1,1058,0.001000000000000112
1077999,21505,-685,128305,1410,1485,125739,86,19235,352,1,1059,0.0009999999999998899
1078999,11096,6019,128846,11938,4937,127705,82,19231,336,0,1060,0.001000000000000112
1079999,13738,2333,129806,-3712,-1752,130268,108,19231,336,0,1061,0.0009999999999998899
1080999,8548,-7570,127899,4343,-11004,132140,84,19238,442,0,1062,0.001000000000000112
1081999,12956,-934,128513,8603,-3251,126322,84,19237,344,0,1063,0.0009999999999998899
1082999,13576,3196,128314,197,-1477,123203,87,19229,356,1,1064,0.001000000000000112
1084000,5973,-1988,130564,-3567,-3858,132281,88,19239,360,1,1065,0.0010009999999998076
1084999,12563,-1445,131136,1647,-2765,129260,84,19234,344,1,1066,0.0009990000000001942
1085999,1252,-6569,125267,4576,-12437,133075,99,19234,344,0,1067,0.0009999999999998899
1087007,10926,-123,132965,-833,21200,116281,96,19227,405,0,1068,0.00100800000000012
1088000,8316,17696,126249,8614,-9893,137845,96,19232,393,0,1069,0.0009929999999997996
1089001,10089,-13152,131730,-27308,4574,119644,75,19237,307,0,1070,0.0010010000000000296
1089999,11237,10235,130288,14847,-9413,132824,115,19234,471,1,1071,0.0009980000000000544
1090999,5025,-16981,128625,4888,-14734,135988,86,19234,352,1,1072,0.001000000000000112
1091999,-5174,2184,128017,-35379,-6309,127137,85,19234,352,1,1073,0.0009999999999998899
1092999,2142,-3424,130682,-6034,9221,128170,117,19232,348,0,1074,0.001000000000000112
1093999,4988,27553,127544,3580,28641,111903,117,19233,479,0,1075,0.0009999999999998899
1094999,6768,11242,127168,-5805,-13826,135090,92,19238,377,0,1076,0.001000000000000112
1095999,6468,-16603,124956,-13290,-12163,127659,84,19228,344,1,1077,0.0009999999999998899
1097000,4100,-10652,129739,3764,-8683,135534,130,19235,532,1,1078,0.0010010000000000296
1097999,3435,2140,131051,-12690,14636,119203,84,19235,532,1,1079,0.0009989999999999721
1098999,941,13708,126996,-5027,-3266,132377,92,19234,344,1,1080,0.001000000000000112
1099999,0,-8525,126474,-14993,1653,126088,92,19230,377,0,1081,0.0009999999999998899
1100999,259,16225,127023,-6636,12350,117164,97,19236,397,0,1082,0.001000000000000112
1102001,12545,-125,124578,4428,-1307,129655,84,19233,344,0,1083,0.0010019999999999474
1103006,9594,7832,127944,5655,7410,118433,106,19231,434,1,1084,0.0010049999999999226
1103999,6023,-8755,124815,-9683,-8685,136300,86,19231,352,1,1085,0.0009930000000000216
1104999,6543,-611,128499,-268,9737,117963,87,19233,352,1,1086,0.0009999999999998899
1105999,3333,4179,125333,6044,-8459,135727,87,19235,356,0,1087,0.001000000000000112
1106999,9656,-5247,126326,-14663,7047,118275,117,19231,479,0,1088,0.0009999999999998899
1107999,4545,17002,126281,2683,8689,121421,96,19238,393,0,1089,0.001000000000000112
1108999,19138,-1566,123536,7491,-3404,129876,73,19228,299,1,1090,0.0009999999999998899
1110001,10973,3636,124379,10001,-912,120472,94,19228,385,1,1091,0.0010020000000001694
1110999,14161,-9715,125227,-281,-9779,133613,95,19236,385,1,1092,0.0009979999999998324
1111999,8792,5816,126855,3496,10264,116761,92,19232,389,1,1093,0.001000000000000112
1112999,12172,1545,127434,3736,-5611,136576,92,19230,377,0,1094,0.0009999999999998899
1113999,14949,546,126048,3697,6998,118478,101,19234,414,0,1095,0.001000000000000112
1114999,8032,4248,125754,8063,-197,126440,83,19239,340,0,1096,0.0009999999999998899
1115999,18305,-6775,125990,-2175,-6711,128580,90,19239,369,1,1097,0.001000000000000112
1116999,12467,-3778,128268,16246,-7460,129004,74,19219,369,1,1098,0.0009999999999998899
1117999,15488,-7774,129142,4003,-2215,130921,82,19234,303,1,1099,0.001000000000000112
1118999,9237,12086,128581,-1028,8092,117252,82,19238,336,1,1100,0.0009999999999998899
1119999,13669,-5895,127849,4275,-9308,137913,100,19229,410,0,1101,0.001000000000000112
1120999,11666,1590,129925,7324,4957,121111,94,19235,385,0,1102,0.0009999999999998899
1121999,11903,5184,128840,-2306,716,127309,75,19236,307,0,1103,0.001000000000000112
1122999,14224,-2977,129316,4624,-2704,125703,123,19236,307,1,1104,0.0009999999999998899
1123999,5312,-4977,129179,8227,-9202,132945,87,19235,504,1,1105,0.001000000000000112
1124999,8849,-12657,130061,-10664,-7487,131635,87,19235,356,1,1106,0.0009999999999998899
1126000,5495,13787,129044,642,7601,132663,84,19232,344,0,1107,0.0010010000000000296
1126999,13198,1026,129558,4277,1029,125938,119,19234,487,0,1108,0.0009989999999999721
1127999,7088,10487,125697,2067,7671,125913,86,19236,352,0,1109,0.001000000000000112
1128999,10481,-4822,129515,-18072,-9225,133236,81,19236,352,0,1110,0.0009999999999998899
1129999,7596,-6388,130261,148,-3809,124338,95,19230,332,1,1111,0.001000000000000112
1130999,5099,-6845,132438,11246,-7226,136487,95,19232,389,1,1112,0.0009999999999998899
1131999,-3163,-2249,129545,-16704,6637,122582,85,19231,348,1,1113,0.001000000000000112
1132999,595,9347,130777,-17473,7289,127190,96,19231,393,0,1114,0.0009999999999998899
1133999,7183,8549,129040,-5098,11686,122192,95,19233,389,0,1115,0.001000000000000112
1134999,3322,9755,129427,-9119,-2935,124935,80,19233,389,0,1116,0.0009999999999998899
1136001,11083,-8764,127108,-4504,-14385,134850,112,19235,328,1,1117,0.0010020000000001694
1137001,-761,-12299,129759,1240,-12526,132650,112,19227,459,1,1118,0.0009999999999998899
1137999,4769,2481,129458,-17738,8574,122420,86,19237,352,1,1119,0.0009980000000000544
1138999,-2139,14898,128679,-5531,11580,121948,83,19232,340,1,1120,0.0009999999999998899
1139999,5804,7036,124245,-13863,-3485,131429,119,19231,487,0,1121,0.001000000000000112
1140999,2477,-4407,125078,2679,661,124232,97,19231,487,0,1122,0.0009999999999998899
1142001,4903,4455,125726,-6058,6598,123744,82,19236,397,0,1123,0.0010020000000001694
1142999,11409,6142,127683,1998,5488,120621,82,19234,336,1,1124,0.0009979999999998324
1143999,5660,1062,125851,4099,-4677,132235,101,19236,414,1,1125,0.001000000000000112
1144999,10937,-6239,126543,-8184,-3054,126862,93,19235,381,1,1126,0.0009999999999998899
1145999,4802,5521,126246,-51,4677,121946,95,19231,389,0,1127,0.001000000000000112
1146999,9841,2350,127970,-3121,1410,128255,123,19231,389,0,1128,0.0009999999999998899
1147999,2668,3426,124973,-2652,4106,124288,84,19232,504,0,1129,0.001000000000000112
1148999,15415,-6326,126681,-6040,5598,126310,84,19234,344,0,1130,0.0009999999999998899
1150001,12074,6322,122801,24736,2127,120186,92,19234,377,1,1131,0.0010020000000001694
1150999,12861,-901,126534,-8223,-2012,125025,84,19234,344,1,1132,0.0009979999999998324
1151999,17259,570,126216,345,527,125390,93,19230,381,1,1133,0.001000000000000112
1153001,11991,3409,128511,19066,1099,128454,113,19230,463,0,1134,0.0010019999999999474
1153999,15917,2158,126566,-4190,-1332,126969,96,19232,463,0,1135,0.0009980000000000544
1154999,2677,-1959,127127,4481,-5135,127339,77,19237,393,0,1136,0.0009999999999998899
1156001,15904,-7271,125111,4822,-6233,130598,77,19233,315,1,1137,0.0010020000000001694
1156999,12248,705,127022,12413,7102,120756,132,19238,541,1,1138,0.0009979999999998324
1157999,18490,6470,127626,-1198,2897,124869,88,19239,360,1,1139,0.001000000000000112
1158999,13416,1722,126847,11236,-3718,127118,84,19239,344,1,1140,0.0009999999999998899
1159999,13994,-9570,127309,3290,-12699,132825,110,19232,344,0,1141,0.001000000000000112
1160999,12378,1297,129442,9403,2642,125282,87,19232,451,0,1142,0.0009999999999998899
1161999,7920,1754,128382,-1574,-2652,129592,87,19235,356,0,1143,0.001000000000000112
1163001,14230,-1845,131036,-5063,546,126274,86,19226,352,1,1144,0.0010019999999999474
1163999,3684,-44,129942,11348,-4042,128076,90,19236,369,1,1145,0.0009980000000000544
1164999,10185,-7506,129301,-8868,-6184,132598,88,19236,360,1,1146,0.0009999999999998899
1165999,4993,-5262,126853,3828,-8780,128358,98,19237,360,0,1147,0.001000000000000112
1166999,12671,8268,132441,-361,17389,119827,95,19226,401,0,1148,0.0009999999999998899
1167999,11123,16826,126580,3776,2939,130367,95,19233,389,0,1149,0.001000000000000112
1168999,4973,-13617,131340,-16184,-10276,128673,75,19237,307,0,1150,0.0009999999999998899
1169999,11044,-3882,128680,-1837,-7500,131078,111,19232,455,1,1151,0.001000000000000112
1170999,58,-7057,128474,16396,-9158,131728,88,19236,360,1,1152,0.0009999999999998899
1171999,-3534,4270,128310,-29086,618,129265,87,19236,360,1,1153,0.001000000000000112
1172999,3331,955,128361,-7650,4979,117680,123,19231,356,0,1154,0.0009999999999998899
1173999,3869,25742,129043,-6739,25252,124496,123,19232,504,0,1155,0.001000000000000112
1174999,9465,3251,126528,7163,-4306,130052,96,19237,393,0,1156,0.0009999999999998899
1175999,4310,-15073,126697,-13932,-15231,132612,82,19231,336,0,1157,0.001000000000000112
1176999,4108,-10125,130549,-3772,-1154,128321,147,19237,602,1,1158,0.0009999999999998899
1177999,662,7605,129276,-6491,10564,122387,88,19237,602,1,1159,0.001000000000000112
1178999,758,5872,126633,-6172,-8550,136653,91,19236,360,1,1160,0.0009999999999998899
1179999,1633,-4063,125809,-12618,12358,114946,91,19224,373,0,1161,0.001000000000000112
1180999,1101,19367,127090,-11866,8657,125648,101,19236,414,0,1162,0.0009999999999998899
1181999,12465,-418,124677,6450,-5142,125620,84,19234,344,0,1163,0.001000000000000112
1182999,9455,425,127642,19,-3125,128818,100,19236,410,1,1164,0.0009999999999998899
1183999,4891,-7290,125099,-9438,-1694,125951,84,19236,410,1,1165,0.001000000000000112
1184999,6558,8025,128747,1605,10786,120830,89,19234,344,1,1166,0.0009999999999998899
1186000,3074,999,124226,394,-10512,137920,89,19236,365,0,1167,0.0010010000000000296
1186999,10887,-3678,125821,-11141,11257,113302,113,19225,463,0,1168,0.0009989999999999721
1187999,3665,14141,126896,5047,4717,127481,97,19239,397,0,1169,0.001000000000000112
1189002,19701,-1817,124774,6831,-1812,124555,77,19228,315,0,1170,0.0010029999999998651
1190001,11983,-1697,124635,10776,-8386,129575,105,19228,315,1,1171,0.0009989999999999721
1190999,12328,-8020,124784,-4048,165,125879,104,19234,430,1,1172,0.0009980000000000544
1191999,9482,11947,127088,5189,12361,116150,104,19234,426,1,1173,0.001000000000000112
1192999,10931,3592,128266,1641,-4825,137412,96,19230,393,0,1174,0.0009999999999998899
1194002,15460,-6748,126137,6891,4293,120756,108,19236,442,0,1175,0.0010030000000000872
1194999,6838,5474,127268,8216,-822,127522,85,19239,348,0,1176,0.0009969999999999146
1195999,20814,-2721,125146,2596,-5879,126077,85,19239,348,1,1177,0.001000000000000112
1197027,10672,-5428,127338,14470,-7328,132169,92,19232,348,1,1178,0.0010279999999998068
1198001,16139,-6251,127297,-1024,-264,126154,92,19236,377,1,1179,0.0009740000000000304
1199000,8737,10993,128751,2439,9225,119478,89,19234,365,1,1180,0.0009989999999999721
1200001,15257,-3259,128030,4477,-9053,136506,97,19223,397,0,1181,0.0010010000000000296
1200999,12899,-1219,129159,8242,3370,120710,94,19236,385,0,1182,0.0009980000000000544
1201999,9121,5857,129333,-4833,-2978,131335,76,19236,311,0,1183,0.001000000000000112
1202999,16598,-6558,128528,8313,-4542,125460,117,19234,311,1,1184,0.0009999999999998899
1203999,4562,-2037,129667,6587,-6076,132480,86,19230,479,1,1185,0.001000000000000112
1204999,12413,-8621,128560,-15028,-10695,129702,86,19236,352,1,1186,0.0009999999999998899
1206000,4488,10833,129964,2314,9687,121069,82,19235,336,0,1187,0.0010010000000000296
1206999,13503,-788,129805,4155,88,131559,121,19233,496,0,1188,0.0009989999999999721
1208001,4657,8154,127137,3625,6509,122225,89,19233,365,0,1189,0.0010019999999999474
1208999,8435,-5430,129226,-24303,-11332,135390,75,19232,365,0,1190,0.0009980000000000544
1209999,13886,-6995,129000,7806,-6357,125318,104,19236,307,1,1191,0.001000000000000112
1210999,2127,-817,129964,10754,-5745,134573,104,19236,426,1,1192,0.0009999999999998899
1211999,176,-2875,128999,-25408,-656,125316,89,19236,365,1,1193,0.001000000000000112
1212999,-2168,4577,129271,-8205,1797,129841,93,19228,381,0,1194,0.0009999999999998899
1214000,6990,7551,130580,-6902,11975,125351,94,19228,385,0,1195,0.0010010000000000296
1214999,4249,14439,129318,-880,9110,116506,81,19232,385,0,1196,0.0009989999999999721
1216001,11304,-7700,128439,-5752,-8720,136582,105,19239,332,0,1197,0.0010019999999999474
1216999,-225,-12218,127887,4002,-11162,132605,105,19227,430,1,1198,0.0009980000000000544
1217999,4245,-6076,129452,-16932,-224,127210,81,19236,332,1,1199,0.001000000000000112
1218999,1681,19629,129162,-4359,20145,116449,81,19235,332,1,1200,0.0009999999999998899
1219999,3393,3827,124878,-9950,-4276,132495,115,19233,471,0,1201,0.001000000000000112
1220999,2390,-2682,125622,-5132,-1588,121026,95,19233,471,0,1202,0.0009999999999998899
1222000,1543,7565,124971,539,4566,125440,81,19236,389,0,1203,0.0010010000000000296
1222999,15408,3486,126685,-10160,5045,117824,81,19231,332,1,1204,0.0009989999999999721
1223999,5198,4453,127515,13757,-11144,138551,97,19239,397,1,1205,0.0009999999999998899
1224999,8181,-12651,124450,-9524,-814,122123,91,19235,373,1,1206,0.001000000000000112
1225999,1594,7549,127478,-7370,8935,122993,90,19227,369,1,1207,0.0009999999999998899
1226999,7835,4465,124762,4173,1971,129245,118,19227,369,0,1208,0.001000000000000112
1227999,6061,295,126128,-4835,12241,116137,84,19233,483,0,1209,0.0009999999999998899
1228999,14124,5514,125467,2687,-4782,132507,84,19236,344,0,1210,0.001000000000000112
1229999,15342,-5446,124877,18575,-471,118597,89,19230,365,1,1211,0.0009999999999998899
1231001,12807,1049,124602,-2197,-5465,130486,79,19233,324,1,1212,0.0010020000000001694
1231999,11667,-1992,127692,-2548,4546,122958,91,19235,373,1,1213,0.0009979999999998324
1232999,10615,8861,127051,7902,4329,127923,107,19235,373,0,1214,0.001000000000000112
1233999,11096,901,128853,1344,85,128287,95,19225,438,0,1215,0.0009999999999998899
1234999,7289,1451,125404,7006,-2795,124234,95,19236,389,0,1216,0.001000000000000112
1235999,16206,-8389,125288,6155,-8748,131006,75,19239,307,1,1217,0.0009999999999998899
1236999,16395,-2997,125634,14767,2789,120120,121,19233,496,1,1218,0.001000000000000112
1237999,18465,4728,127283,-488,1139,127495,86,19236,352,1,1219,0.0009999999999998899
1239000,14181,4070,127473,2767,664,126740,82,19236,352,1,1220,0.0010010000000000296
1239999,11236,1637,128938,4432,-8723,133802,109,19233,336,0,1221,0.0009989999999999721
1241001,8042,-6387,126391,2962,-4797,129750,109,19233,446,0,1222,0.0010020000000001694
1241999,7025,-1106,130377,297,-1239,126037,87,19239,356,0,1223,0.0009979999999998324
1242999,15946,-312,128188,2484,1207,125670,81,19227,332,1,1224,0.001000000000000112
1243999,10463,2074,130289,1538,2505,125420,111,19230,455,1,1225,0.0009999999999998899
1244999,11622,653,129636,-3104,-4824,131337,90,19230,369,1,1226,0.001000000000000112
1245999,4705,-12201,128147,7362,-9712,128766,96,19237,369,1,1227,0.0009999999999998899
1246999,9993,8710,131637,-6474,12201,127209,92,19227,393,0,1228,0.001000000000000112
1247999,5696,-1113,127967,3361,-10777,133396,92,19236,377,0,1229,0.0009999999999998899
1248999,8888,-2045,132045,-21553,9558,119619,77,19236,315,0,1230,0.001000000000000112
1249999,12653,7160,129536,13845,-10595,132454,104,19232,426,1,1231,0.0009999999999998899
1250999,252,-6382,127756,7798,-10620,130677,83,19232,340,1,1232,0.001000000000000112
1251999,-278,-5942,126739,-32365,-7842,133416,85,19235,340,1,1233,0.0009999999999998899
1252999,1129,4022,129790,-1179,13916,120513,125,19236,348,0,1234,0.001000000000000112
1253999,7108,27018,129917,-5167,20291,122082,125,19235,512,0,1235,0.0009999999999998899
1255000,5567,-5760,126330,28,-15157,133294,96,19240,393,0,1236,0.0010010000000000296
1255999,3685,-11319,127452,-14550,-7824,127830,79,19231,324,0,1237,0.0009989999999999721
1256999,5320,-5592,127868,685,-4700,130388,143,19231,586,1,1238,0.001000000000000112
1257999,2234,9762,130522,-8622,12757,119736,86,19245,586,1,1239,0.0009999999999998899
1258999,2907,1756,125789,-6818,-7167,136457,89,19233,352,1,1240,0.001000000000000112
1259999,-914,-2081,126970,-13066,5767,121407,89,19230,365,0,1241,0.0009999999999998899
1260999,2209,14396,126197,-11342,9202,122786,103,19235,422,0,1242,0.001000000000000112
1261999,8854,-8358,126616,6811,-478,130225,85,19235,348,0,1243,0.0009999999999998899
1262999,9924,10464,127654,-3487,7608,118900,100,19228,410,1,1244,0.001000000000000112
1263999,5256,-6681,125245,-7836,-5654,131012,80,19228,410,1,1245,0.0009999999999998899
1264999,9058,7807,128121,853,7971,120244,87,19232,328,1,1246,0.001000000000000112
1265999,3208,-5586,123528,7349,-10562,136457,87,19232,356,1,1247,0.0009999999999998899
1266999,10083,1201,127449,-12632,7221,112849,111,19231,455,0,1248,0.001000000000000112
1268001,2611,14312,125635,110,8691,134772,101,19236,414,0,1249,0.0010019999999999474
1269001,17276,-5610,124507,4752,-4705,119078,77,19237,315,0,1250,0.001000000000000112
1270000,13116,5489,123983,10172,4170,129609,110,19237,315,1,1251,0.0009989999999999721
1270999,11229,-6184,124144,5986,928,121908,91,19236,451,1,1252,0.0009989999999999721
1272000,13325,7846,127707,-1223,6186,125411,91,19232,373,1,1253,0.0010010000000000296
1272999,10915,-7397,126698,11167,-4161,137311,91,19230,373,0,1254,0.0009989999999999721
1273999,16810,3172,127545,69,12691,111517,113,19235,463,0,1255,0.0009999999999998899
1274999,4445,8805,126828,9581,-7789,135172,90,19238,369,0,1256,0.001000000000000112
1275999,20444,-9909,125863,4447,-3896,123724,85,19238,369,0,1257,0.0009999999999998899
1276999,12950,-166,126943,17265,-4626,129786,84,19226,348,1,1258,0.001000000000000112
1277999,16694,-3927,126950,-3727,4034,123763,84,19234,344,1,1259,0.0009999999999998899
1278999,11704,8324,128210,6476,-1581,124078,85,19238,348,1,1260,0.001000000000000112
1279999,12445,-7978,128415,3554,-10583,140294,96,19226,393,0,1261,0.0009999999999998899
1280999,13615,-509,128742,6203,9839,115896,96,19234,393,0,1262,0.001000000000000112
1281999,5976,8799,128678,-4310,-3407,132626,79,19234,393,0,1263,0.0009999999999998899
1282999,17350,-5608,127438,8134,-3499,123862,113,19235,324,1,1264,0.001000000000000112
1283999,4256,-893,128233,5644,-10400,133103,113,19228,463,1,1265,0.0009999999999998899
1284999,12862,-11487,128869,-8609,-3805,126407,88,19235,360,1,1266,0.001000000000000112
1285999,4615,9589,129802,4608,7942,123118,84,19236,344,1,1267,0.0009999999999998899
1287001,11201,-4080,130356,2003,-3123,135500,125,19231,512,0,1268,0.0010019999999999474
1287999,6072,8498,128122,-3480,8715,118753,92,19231,377,0,1269,0.0009980000000000544
1288999,8422,-1778,128568,-16131,-9562,137067,78,19236,377,0,1270,0.001000000000000112
1289999,12637,-5989,128618,9294,-5831,122078,101,19231,319,1,1271,0.0009999999999998899
1290999,1866,-4097,128752,359,-11633,138894,101,19236,414,1,1272,0.001000000000000112
1291999,75,-8409,129603,-18782,1128,126230,90,19239,369,1,1273,0.0009999999999998899
1292999,-2285,11700,129793,-7697,11231,123171,93,19225,381,0,1274,0.001000000000000112
1293999,7666,9495,130448,-7833,12490,127730,100,19225,410,0,1275,0.0009999999999998899
1294999,3531,11570,127911,-632,-193,119740,85,19237,410,0,1276,0.001000000000000112
1295999,11062,-9885,129538,-10096,-11466,139508,102,19240,348,0,1277,0.0009999999999998899
1297003,2175,-8750,127286,6421,-7080,126842,102,19219,418,1,1278,0.0010040000000000049
1297999,618,-4033,129875,-16846,-314,129186,80,19235,328,1,1279,0.0009959999999999969
1298999,1634,11411,128266,-9698,14598,121148,85,19233,348,1,1280,0.001000000000000112
1299999,298,8038,125704,-10216,-1996,129363,109,19233,446,0,1281,0.0009999999999998899
1301001,4579,-939,125313,-5376,2696,124874,99,19229,446,0,1282,0.0010019999999999474
1301999,2503,7686,125024,3696,4373,121856,82,19235,405,0,1283,0.0009980000000000544
1303001,13865,1086,125795,-6160,461,125539,82,19234,336,1,1284,0.0010019999999999474
1303999,5114,3759,126655,6230,453,126922,121,19239,496,1,1285,0.0009980000000000544
1304999,10904,-7674,126376,-6659,-7727,131045,95,19233,389,1,1286,0.001000000000000112
1305999,4579,6227,128777,-1285,9595,118674,91,19233,373,1,1287,0.0009999999999998899
1306999,4165,-2666,126480,-4304,-3022,131868,131,19231,373,0,1288,0.001000000000000112
1307999,4374,821,126592,-5683,3690,121571,89,19232,537,0,1289,0.0009999999999998899
1308999,10713,5747,123928,10071,2132,127271,89,19239,365,0,1290,0.001000000000000112
1309999,12562,921,123669,6680,1940,121845,88,19226,360,1,1291,0.0009999999999998899
1310999,13261,5057,123414,2894,-971,121406,85,19232,348,1,1292,0.001000000000000112
1311999,16612,-4817,128090,2827,-1276,130134,98,19235,401,1,1293,0.0009999999999998899
1312999,12284,7249,127217,12333,4048,123116,106,19235,401,0,1294,0.001000000000000112
1313999,11732,-5930,128241,-2805,-6632,127513,98,19230,434,0,1295,0.0009999999999998899
1314999,5396,-196,125960,5945,-1447,128143,98,19237,401,0,1296,0.001000000000000112
1315999,15495,-4966,125480,487,-4871,124834,78,19237,319,0,1297,0.0009999999999998899
1316999,15913,8441,126427,10581,10192,120499,116,19233,475,1,1298,0.001000000000000112
1317999,15805,2030,125677,9666,-5603,131212,84,19234,344,1,1299,0.0009999999999998899
1318999,15456,-2964,127001,733,-4483,126057,80,19234,344,1,1300,0.001000000000000112
1319999,13669,-4635,127571,10133,-7803,134641,113,19241,328,0,1301,0.0009999999999998899
1320999,12733,-1225,129035,1667,6429,121556,113,19232,463,0,1302,0.001000000000000112
1322000,7954,7557,130414,1632,1279,128955,88,19243,360,0,1303,0.0010009999999998076
1322999,13588,-4286,128317,4234,-4767,128922,80,19229,328,1,1304,0.0009990000000001942
1323999,5452,-2782,129714,4362,-5384,126944,107,19229,438,1,1305,0.0009999999999998899
1324999,11193,-6019,129299,-6734,-7058,133613,85,19229,438,1,1306,0.001000000000000112
1326002,7397,-4828,126481,6107,-5331,127331,90,19236,348,1,1307,0.0010029999999998651
1326999,12837,6110,132701,-3423,19679,119893,90,19227,369,0,1308,0.0009970000000001367
1327999,10808,19372,127034,5424,-2611,132122,99,19236,405,0,1309,0.0009999999999998899
1328999,6364,-15070,131340,-20246,-15014,128776,77,19239,315,0,1310,0.001000000000000112
1329999,9587,491,130932,-1290,-7487,131145,98,19230,401,1,1311,0.0009999999999998899
1330999,3771,-12509,129298,12880,-5728,131095,84,19230,401,1,1312,0.001000000000000112
1331999,107,4347,128498,-24799,-269,128279,87,19235,344,1,1313,0.0009999999999998899
1332999,-1614,-3941,127236,-9549,1700,128684,87,19233,356,0,1314,0.001000000000000112
1333999,5171,19116,129336,-6185,25296,115521,116,19229,475,0,1315,0.0009999999999998899
1334999,7982,12166,127068,8156,-7086,131983,95,19238,389,0,1316,0.001000000000000112
1335999,6703,-10986,126602,-17082,-8874,127183,80,19234,328,0,1317,0.0009999999999998899
1336999,3348,-9693,129485,-1233,-11286,135193,148,19234,606,1,1318,0.001000000000000112
1337999,-156,-2652,130462,-9478,8253,122375,92,19233,606,1,1319,0.0009999999999998899
1338999,1661,11354,128169,-5366,170,131139,88,19236,377,1,1320,0.001000000000000112
1340004,1148,-7875,124844,-13774,2871,126399,88,19230,360,0,1321,0.0010049999999999226
1340999,1328,15235,128715,-8523,21534,113851,115,19234,471,0,1322,0.0009949999999998571
1341999,9247,1392,124010,6627,-8180,132905,86,19237,352,0,1323,0.001000000000000112
1342999,11105,338,130067,2553,7343,118595,92,19237,377,1,1324,0.0009999999999998899
1343999,3677,-2686,123560,-6264,-11908,135361,81,19229,377,1,1325,0.001000000000000112
1344999,8440,-1165,129390,-6271,11417,116066,91,19234,332,1,1326,0.0009999999999998899
1345999,2196,12111,125615,6003,-3976,135411,91,19233,373,1,1327,0.001000000000000112
1346999,9715,-12508,125240,-8255,-1352,124593,105,19228,430,0,1328,0.0009999999999998899
1347999,4387,19348,127033,-1008,15958,114650,99,19233,405,0,1329,0.001000000000000112
1348999,14912,-5338,124072,6521,-8616,135657,77,19233,315,0,1330,0.0009999999999998899
1349999,16981,1972,124925,8634,2339,117071,119,19237,315,1,1331,0.001000000000000112
1350999,6887,-4957,123837,6513,-10707,136597,93,19236,487,1,1332,0.0009999999999998899
1351999,15207,2295,125026,-2075,6478,113165,93,19234,381,1,1333,0.001000000000000112
1352999,5440,11712,127114,10372,-352,133453,90,19227,369,0,1334,0.0009999999999998899
1353999,18294,-10887,126359,-5890,-4904,128819,111,19233,455,0,1335,0.001000000000000112
1354999,8663,11770,128820,13300,8587,116550,88,19238,360,0,1336,0.0009999999999998899
1355999,17483,-6906,126506,700,-10004,135295,82,19238,360,0,1337,0.001000000000000112
1356999,16325,-729,126367,11634,82,119695,107,19230,336,1,1338,0.0009999999999998899
1357999,10719,-10510,127234,9888,-13358,139434,107,19235,438,1,1339,0.001000000000000112
1358999,14339,8949,128300,-2542,14387,112843,86,19235,352,1,1340,0.0009999999999998899
1359999,10569,2310,127316,6918,-6820,134375,92,19228,377,0,1341,0.001000000000000112
1360999,15245,-5745,128961,1915,-1136,116944,91,19239,373,0,1342,0.0009999999999998899
1361999,7811,6618,128561,7231,4119,133924,79,19239,373,0,1343,0.001000000000000112
1362999,14615,-3334,128232,-4794,-7517,124194,105,19235,324,1,1344,0.0009999999999998899
1363999,6137,4531,129514,13336,1750,133294,105,19228,430,1,1345,0.001000000000000112
1364999,10189,-9744,126713,-9462,-10329,135448,86,19235,352,1,1346,0.0009999999999998899
1365999,6530,-4420,129327,-4621,10549,114663,84,19233,344,1,1347,0.001000000000000112
1366999,8769,10653,129419,785,1249,136704,117,19225,479,0,1348,0.0009999999999998899
1368001,13674,-2282,127838,10854,4944,119963,92,19225,479,0,1349,0.0010020000000001694
1369001,-1985,7545,130551,-39778,-7255,133866,74,19243,377,0,1350,0.0009999999999998899
1370001,19865,-12987,129724,13636,-2782,124435,74,19234,303,1,1351,0.001000000000000112
1371001,1020,3438,130214,24513,-9367,135844,111,19237,455,1,1352,0.0009999999999998899
1371999,155,-18097,128679,-42739,-9623,131346,92,19233,377,1,1353,0.0009980000000000544
1372999,-3183,7231,129630,-5320,16963,119064,90,19225,369,0,1354,0.0009999999999998899
1373999,2671,12460,130067,3472,6718,131936,106,19225,369,0,1355,0.001000000000000112
1374999,10121,14527,129324,-10587,13508,108809,85,19234,434,0,1356,0.0009999999999998899
1376000,5915,-317,127780,-3911,-21840,144381,85,19236,348,0,1357,0.0010010000000000296
1376999,5570,-22536,127127,6424,-9747,129348,94,19223,385,1,1358,0.0009989999999999721
1377999,-1927,2138,129144,-15900,2597,127896,90,19233,369,1,1359,0.001000000000000112
1378999,3411,4132,128243,-15157,11799,121030,86,19240,352,1,1360,0.0009999999999998899
1380001,607,19753,128701,-5569,9448,122491,104,19240,426,0,1361,0.0010020000000001694
1381001,6667,-6485,124029,-2948,-14848,137496,99,19230,426,0,1362,0.0009999999999998899
1382001,-1086,-2166,126366,-2780,9134,115241,99,19236,405,0,1363,0.001000000000000112
1382999,9522,9816,125543,-4966,3219,127614,81,19236,332,1,1364,0.0009979999999998324
1384000,8499,4419,127032,8595,9838,119938,129,19232,528,1,1365,0.0010010000000000296
1384999,12904,3400,126401,-7443,-7393,134702,91,19238,373,1,1366,0.0009989999999999721
1385999,6195,-15433,127228,-6809,-1477,126063,89,19238,365,1,1367,0.001000000000000112
1386999,8455,8750,130303,-4142,7304,121535,138,19231,365,0,1368,0.0009999999999998899
1387999,4873,-1248,125417,14990,-3924,132097,92,19233,565,0,1369,0.001000000000000112
1388999,5940,4426,125915,-11839,7482,120889,92,19237,377,0,1370,0.0009999999999998899
1389999,13972,4930,123519,421,1857,123929,83,19229,340,1,1371,0.001000000000000112
1390999,13049,4907,124471,19307,5679,120590,70,19231,287,1,1372,0.0009999999999998899
1391999,21530,-547,124940,5288,-7407,128630,94,19231,385,1,1373,0.001000000000000112
1392999,4881,-7562,127625,3463,-4525,127109,103,19235,385,0,1374,0.0009999999999998899
1393999,15473,1413,128324,-4781,1375,128052,96,19225,422,0,1375,0.001000000000000112
1394999,6893,3900,127517,10309,5046,124899,96,19236,393,0,1376,0.0009999999999998899
1395999,16685,5472,125851,848,-83,125853,78,19235,319,0,1377,0.001000000000000112
1396999,12631,-8410,123790,14165,-13505,123992,108,19228,442,1,1378,0.0009999999999998899
1397999,12924,-1659,126555,1332,-1491,126231,81,19236,332,1,1379,0.001000000000000112
1398999,20050,599,128622,9828,3210,124315,82,19236,332,1,1380,0.0009999999999998899
1399999,11068,5945,128726,8450,2195,129179,119,19232,336,0,1381,0.001000000000000112
1400999,14510,-1250,128803,-8614,-2343,127794,119,19236,487,0,1382,0.0009999999999998899
1401999,3591,-6237,127775,12814,-7060,129741,92,19236,377,0,1383,0.001000000000000112
1402999,16802,-3096,129288,990,-2797,129699,74,19231,303,1,1384,0.0009999999999998899
1403999,7759,269,128204,256,-764,122709,115,19238,471,1,1385,0.001000000000000112
1404999,12050,-822,130994,-3204,-319,129705,88,19238,471,1,1386,0.0009999999999998899
1405999,7884,2441,126681,2838,-1793,130033,91,19236,360,1,1387,0.001000000000000112
1406999,5739,-12975,130740,-1580,-8488,121847,91,19227,373,0,1388,0.0009999999999998899
1407999,11308,18390,127249,2262,18962,129231,107,19235,438,0,1389,0.001000000000000112
1408999,6552,-8528,129496,1934,-12513,126692,80,19237,328,0,1390,0.0009999999999998899
1410001,14221,6501,132017,-24050,9311,122785,93,19227,381,1,1391,0.0010019999999999474
1410999,5271,-7282,129135,22090,-14254,141819,77,19227,381,1,1392,0.0009980000000000544
