t_us,ax,ay,az,ax1,ay1,az1,shunt_raw,bus_raw,curr_raw,pg_rpm,seq,dt
0,-681,258,130209,-7829,-3744,131078,46,19640,188,0,42322,
1002,3085,1730,129840,-1467,3353,125838,42,19640,172,1,42323,0.0010019999999999999
2000,11896,6628,128753,1717,3390,123494,34,19637,139,1,42324,0.0009980000000000002
3000,15312,7099,126895,9318,5319,121504,36,19637,139,1,42325,0.001
4000,12382,1813,125107,-781,-5759,127460,41,19637,147,1,42326,0.001
5000,5073,-2974,125890,-4996,-3610,128314,41,19638,168,1,42327,0.001
6002,-3110,-141,128995,-10673,-4053,133439,40,19637,164,1,42328,0.0010019999999999994
7002,2338,796,130159,-3608,2341,128662,33,19642,135,1,42329,0.001
8000,3942,8348,130221,-1964,4022,124685,27,19643,111,1,42330,0.0009980000000000006
9001,12723,5345,127135,4710,3924,121862,32,19643,131,1,42331,0.0010010000000000002
10000,11967,6414,125338,5204,1427,121843,37,19639,131,0,42332,0.0009989999999999999
11000,12633,-2516,124697,-3920,-7193,129328,47,19640,152,0,42333,0.0009999999999999992
12001,2176,741,127706,-4783,548,127639,47,19635,192,0,42334,0.0010010000000000002
13000,-2265,967,130393,-10123,-5395,135128,45,19638,184,0,42335,0.0009989999999999999
14000,-542,49,130183,-4317,585,128294,34,19640,139,0,42336,0.0009999999999999992
15000,7897,4968,129052,426,913,125903,29,19640,119,0,42337,0.0010000000000000009
16000,15288,4401,125307,8472,7339,118179,32,19643,119,0,42338,0.0010000000000000009
17001,12691,11523,126240,-171,2119,122286,39,19641,131,0,42339,0.0010009999999999984
18000,10042,-6676,124583,-3452,-6680,130148,39,19639,160,0,42340,0.0009989999999999999
19000,-1118,4278,129717,-6782,-702,130700,45,19640,184,0,42341,0.0010000000000000009
20000,-1482,-5666,129559,-7811,-6484,135891,44,19640,180,0,42342,0.0010000000000000009
21000,-273,9748,131907,-3098,7060,123458,41,19640,168,1,42343,0.0009999999999999974
22001,12368,-4348,125932,1205,-7138,129545,37,19639,168,1,42344,0.0010010000000000019
23000,14558,14989,127500,7114,15987,111512,39,19640,152,1,42345,0.0009989999999999999
24000,15835,-2956,123654,-1832,-10521,131318,39,19638,160,1,42346,0.0010000000000000009
25000,3979,1673,126948,-3425,3621,123836,42,19637,172,1,42347,0.0009999999999999974
26000,-2181,-2088,129758,-10386,-11841,140517,37,19640,152,1,42348,0.0010000000000000009
27002,-2748,-105,130491,-4001,5758,127437,30,19642,123,1,42349,0.0010019999999999994
28002,4956,9177,130466,-2549,-1575,129266,30,19642,123,1,42350,0.0010000000000000009
29000,13231,-1980,124874,4422,3901,118850,34,19639,123,1,42351,0.0009979999999999989
30000,15260,18371,127407,1590,8900,116427,34,19638,139,0,42352,0.0010000000000000009
31000,11229,-12267,122443,-263,-12484,133619,40,19641,164,0,42353,0.0010000000000000009
32000,-194,12047,130686,-8440,7387,122801,46,19634,188,0,42354,0.0010000000000000009
33000,-4676,-13280,128590,-7834,-16858,145578,38,19639,156,0,42355,0.0010000000000000009
34000,-797,15285,132793,-5063,13588,119155,28,19639,156,0,42356,0.000999999999999994
35000,9956,-9246,126036,3630,-13830,136575,28,19641,115,0,42357,0.0010000000000000009
36000,15801,15745,127023,2691,17533,106568,28,19640,115,0,42358,0.0010000000000000009
37002,15962,2809,124521,1307,-3692,127082,34,19636,139,0,42359,0.0010020000000000029
38000,5400,1697,126914,-4247,1833,122578,42,19635,172,0,42360,0.0009979999999999989
39002,-2173,-676,129892,-6385,-6719,144917,46,19637,188,1,42361,0.001001999999999996
40002,-7337,-4090,130063,-7353,-4273,122080,32,19637,188,1,42362,0.0010000000000000009
41000,8233,9592,131031,-3436,5425,132597,30,19643,131,1,42363,0.0009979999999999989
42000,11494,-5464,125377,8908,-6512,112826,30,19642,123,1,42364,0.0010000000000000009
43000,22491,16334,127101,-1540,-1157,123744,34,19641,139,1,42365,0.0010000000000000009
44000,7482,-6905,123939,3149,833,127187,41,19639,168,1,42366,0.0010000000000000009
45001,3594,8744,129262,-9291,-4320,133075,40,19639,164,1,42367,0.0010010000000000019
46001,-8779,-8679,129003,-4296,-3029,134966,34,19639,164,1,42368,0.0010000000000000009
47000,-657,11713,131885,-6798,4158,126290,30,19645,139,1,42369,0.0009989999999999999
48001,7078,-5180,126172,6862,-5059,125877,30,19644,123,1,42370,0.001000999999999995
49000,17045,11316,126865,-6586,11129,112601,34,19639,139,1,42371,0.0009989999999999999
50000,18040,2358,124801,9562,-2647,128283,44,19632,180,0,42372,0.0010000000000000009
51000,1491,4651,127323,-9603,-1938,129469,42,19637,172,0,42373,0.0010000000000000009
52000,729,-7888,128154,-11003,-8718,135686,43,19637,172,0,42374,0.0010000000000000009
53000,-11584,6124,132112,-4906,4737,128545,32,19635,176,0,42375,0.0010000000000000009
54000,8270,-124,128168,4738,-5502,130973,32,19641,131,0,42376,0.0010000000000000009
55000,5567,6566,127180,-5396,10355,113345,26,19642,106,0,42377,0.0010000000000000009
56000,22755,4414,125109,-5264,-3380,126386,31,19641,127,0,42378,0.000999999999999994
57000,11844,7808,125997,16195,11496,119505,39,19639,160,0,42379,0.0010000000000000009
58000,1380,1015,128704,-13267,-15275,141131,45,19639,184,0,42380,0.0010000000000000009
59000,-2244,-11267,127662,-8982,-2864,127681,45,19636,184,1,42381,0.0010000000000000009
60000,-3839,10448,132323,787,2118,130975,30,19644,184,1,42382,0.0010000000000000009
61000,12540,-3131,126549,1665,1958,123876,30,19644,123,1,42383,0.0010000000000000009
62000,9382,18259,129044,-5930,10622,113980,32,19640,131,1,42384,0.0010000000000000009
63000,17290,-9173,123991,-4215,-12511,136063,39,19639,160,1,42385,0.0010000000000000009
64001,1311,7954,127295,9444,8378,118649,39,19639,160,1,42386,0.0010010000000000019
65000,274,-10680,126673,-10257,-18156,142872,37,19640,160,1,42387,0.0009989999999999999
66000,1939,13433,130574,-2866,19043,115296,29,19643,152,1,42388,0.0010000000000000009
67000,5355,1928,127422,1638,-9045,137951,29,19642,119,1,42389,0.000999999999999987
68001,17225,11403,129048,-7244,17511,110299,30,19641,123,1,42390,0.0010010000000000019
69000,9751,-1255,126277,4868,-15495,133771,38,19639,156,0,42391,0.0009989999999999999
70000,7215,-7793,126209,1952,-3393,127984,42,19636,172,0,42392,0.0010000000000000009
71000,-2755,-1503,128597,-10605,-9327,131894,45,19636,172,0,42393,0.0010000000000000009
72002,349,2641,129306,-6490,6284,131125,39,19637,184,0,42394,0.0010020000000000029
73000,3344,16757,129149,-2167,11679,118521,39,19641,160,0,42395,0.0009979999999999989
74002,11561,7030,128070,-494,4128,125532,27,19644,111,0,42396,0.0010020000000000029
75000,12831,-1674,124812,3988,-6701,125806,29,19642,119,0,42397,0.0009979999999999989
76000,12420,-3808,126880,-1637,-4355,125718,37,19639,152,0,42398,0.0010000000000000009
77000,4014,2203,129784,-255,-1162,132432,45,19639,152,0,42399,0.0010000000000000009
78000,1907,-357,129775,-2535,-3723,130468,47,19635,184,0,42400,0.0010000000000000009
79000,-4320,708,128910,-11874,-1556,131408,47,19639,192,1,42401,0.0010000000000000009
80000,10064,7542,128565,-3529,5766,121859,43,19637,176,1,42402,0.0010000000000000009
81000,6677,10800,126637,5643,8455,120617,30,19639,123,1,42403,0.0010000000000000009
82000,19102,5074,126613,-2711,1995,123358,37,19638,152,1,42404,0.000999999999999987
83000,5549,-1950,126734,489,-5035,129598,43,19638,152,1,42405,0.0010000000000000009
84000,6986,-6743,128197,4328,-9715,134776,42,19636,176,1,42406,0.0010000000000000009
85001,-3663,-2766,128555,-9571,-4886,125239,42,19637,172,1,42407,0.0010010000000000019
86000,5347,7101,130581,-7397,4476,127312,34,19643,139,1,42408,0.0009989999999999999
87000,7131,7215,126983,-605,5172,119119,28,19639,115,1,42409,0.0010000000000000009
88000,11588,11550,127129,-1255,9022,125475,35,19637,143,1,42410,0.0010000000000000009
89002,7227,-530,125232,1402,-2542,125972,48,19637,143,0,42411,0.0010020000000000029
90000,5922,1102,127040,-3153,-6549,130690,42,19635,197,0,42412,0.0009979999999999989
91000,2570,-8364,128673,-1456,-8390,134891,42,19637,172,0,42413,0.0010000000000000009
92000,5972,1109,129659,-4630,1823,124892,45,19637,184,0,42414,0.0010000000000000009
93003,4328,4254,128197,-3566,3292,125347,30,19640,123,0,42415,0.0010030000000000039
94000,11258,12032,128064,-1380,11276,117524,27,19640,111,0,42416,0.0009969999999999979
95000,8935,5423,125712,3853,-4167,130174,32,19640,111,0,42417,0.0010000000000000009
96000,8641,259,126070,-1856,895,124804,40,19641,131,0,42418,0.0010000000000000009
97000,2473,-1232,127238,-4129,-9387,133219,40,19636,164,0,42419,0.000999999999999987
98000,3384,-3383,128872,-2472,-176,128570,48,19636,197,0,42420,0.0010000000000000009
99009,4399,4296,129720,-2589,-1778,128386,44,19639,180,1,42421,0.0010090000000000099
100000,10451,3218,128113,-1801,7809,121644,30,19639,123,1,42422,0.0009909999999999919
101000,12758,12728,127983,2312,4661,122711,34,19639,139,1,42423,0.0010000000000000009
102000,9158,1244,125788,4261,-1114,126344,40,19636,139,1,42424,0.0010000000000000009
103000,4577,131,126969,-5604,-6916,129881,45,19641,164,1,42425,0.0010000000000000009
104001,-683,-6840,127853,-6070,-7254,133040,45,19637,184,1,42426,0.0010010000000000019
105000,2626,2615,129719,-5741,2472,126689,38,19641,156,1,42427,0.0009989999999999999
106000,7244,6789,129684,348,5041,125798,29,19640,119,1,42428,0.0010000000000000009
107001,10322,8353,127411,266,5649,122232,32,19640,131,1,42429,0.0010010000000000019
108001,13288,5461,126125,3613,1170,123997,38,19642,131,1,42430,0.0010000000000000009
109000,5909,-669,125744,-2081,-3129,127247,53,19639,156,1,42431,0.0009989999999999999
110000,4977,-179,128572,-4513,-4459,129969,53,19631,217,0,42432,0.0010000000000000009
111001,-3151,-4899,129019,-8763,-6686,133730,46,19634,188,0,42433,0.001000999999999988
112000,4159,2789,130681,-6121,1229,128255,38,19637,156,0,42434,0.0009989999999999999
113002,7029,4132,128637,1176,3073,125318,28,19637,115,0,42435,0.0010020000000000029
114000,14416,10604,127916,3912,7414,120485,31,19643,115,0,42436,0.0009979999999999989
115000,10351,2152,125431,3917,-1613,126146,37,19639,127,0,42437,0.0010000000000000009
116000,11202,1841,126718,-3358,-1283,126417,37,19643,152,0,42438,0.0010000000000000009
117000,245,-2035,127706,-3364,-4845,131574,42,19638,172,0,42439,0.0010000000000000009
118000,-1091,2075,130174,-10187,-1053,130292,45,19639,184,0,42440,0.0010000000000000009
119000,1652,-65,129433,-5055,-2116,129954,43,19636,176,1,42441,0.0010000000000000009
120000,8977,6760,129154,-995,4528,124287,32,19636,176,1,42442,0.0010000000000000009
121000,16329,5217,126722,8239,3489,122524,38,19638,131,1,42443,0.0010000000000000009
122001,13208,4748,125875,2830,432,123486,38,19635,156,1,42444,0.0010010000000000019
123000,7958,-3916,125360,-2207,-6465,129032,41,19638,168,1,42445,0.0009989999999999999
124000,-2815,1457,128549,-7683,-1676,130022,41,19636,168,1,42446,0.0010000000000000009
125001,251,393,129401,-11005,-2237,132321,32,19642,131,1,42447,0.0010010000000000019
126000,1745,8689,130241,-942,6275,124348,28,19642,131,1,42448,0.0009989999999999999
127000,11584,3801,126947,120,812,125210,33,19641,115,1,42449,0.0010000000000000009
128000,12781,6395,125760,8296,4218,119748,33,19640,135,0,42450,0.0010000000000000009
129000,13227,-1218,124587,-522,-4525,126870,35,19638,143,0,42451,0.0010000000000000009
130000,5524,193,126942,-2971,-1435,126853,50,19634,205,0,42452,0.0010000000000000009
131000,-2396,1567,129737,-9495,-2199,131803,45,19636,184,0,42453,0.0010000000000000009
132000,-797,-194,129987,-7550,-2641,127865,33,19636,184,0,42454,0.0010000000000000009
133000,3899,4503,129180,-1926,1507,126277,29,19639,135,0,42455,0.0010000000000000009
134000,15164,2975,126099,2830,1182,117591,29,19640,119,0,42456,0.0009999999999999731
135000,12702,11855,126471,8136,9579,123567,33,19638,135,0,42457,0.0010000000000000009
136000,11606,-4303,124292,-1992,-7223,129117,39,19637,160,0,42458,0.0010000000000000009
137000,1171,2319,128432,-7216,-552,130462,44,19639,180,0,42459,0.0010000000000000009
138000,-1285,-2302,130363,-8275,-4866,135627,44,19639,180,0,42460,0.0010000000000000009
139000,-3,5715,131087,-2437,4706,124777,43,19638,180,0,42461,0.0010000000000000009
140000,7209,-1244,127926,-2694,-6206,128700,43,19635,176,1,42462,0.0010000000000000009
141000,16292,7699,126873,5543,13352,113240,32,19643,131,1,42463,0.0010000000000000009
142000,14339,5277,125234,3114,-7308,130384,38,19638,156,1,42464,0.0010000000000000009
143000,7757,-2401,125276,-4016,2350,124970,44,19637,180,1,42465,0.0010000000000000009
144000,-2566,3159,130078,-14790,-10572,138654,37,19637,180,1,42466,0.0010000000000000009
145000,195,-5843,129786,-377,5733,128264,30,19640,152,1,42467,0.0010000000000000009
146000,2504,13518,132008,3817,-1478,129218,30,19641,123,1,42468,0.0010000000000000009
147000,10858,-7357,124836,-6744,1055,120358,29,19642,119,1,42469,0.0010000000000000009
148000,14563,18103,128661,3212,8900,116953,37,19639,152,0,42470,0.0010000000000000009
149005,8554,-8961,123079,1411,-12272,135163,40,19638,164,0,42471,0.0010050000000000059
150000,2919,8545,128474,-10869,8896,120993,44,19638,180,0,42472,0.0009949999999999959
151002,-6392,-4276,129940,-8964,-15279,144338,39,19635,180,0,42473,0.0010020000000000029
152000,4074,4408,129746,3080,11747,119571,26,19639,160,0,42474,0.0009979999999999989
153000,7548,3725,128952,3747,-8841,133097,26,19642,106,0,42475,0.0010000000000000009
154000,19310,3005,126672,-4700,12692,110972,27,19640,111,0,42476,0.0010000000000000009
155000,12922,10866,127139,6467,-4844,127335,35,19639,143,0,42477,0.0010000000000000009
156000,4194,-10421,124700,-3304,-4760,131686,43,19639,176,0,42478,0.0010000000000000009
157000,-6720,7872,129667,-13515,-2363,129926,45,19633,176,1,42479,0.0010000000000000009
158000,-5137,-8090,127429,-6971,-1047,134862,32,19638,184,1,42480,0.0010000000000000009
159001,11072,22850,131842,5836,14484,118429,32,19639,131,1,42481,0.0010010000000000019
160000,12536,-6648,125184,6228,-7601,128023,30,19641,123,1,42482,0.0009989999999999999
161000,22733,11532,128474,-7667,7863,114140,33,19640,135,1,42483,0.0010000000000000009
162001,6331,-14357,124012,10803,-18815,138323,38,19639,156,1,42484,0.0010010000000000019
163001,-1891,4526,128420,-10390,4942,125416,38,19639,156,1,42485,0.0009999999999999731
164000,-5453,-2354,128177,-14373,-6272,135716,34,19641,156,1,42486,0.0009989999999999999
165000,-647,15696,130634,-4373,16774,121537,34,19642,139,1,42487,0.0010000000000000009
166000,14295,4426,126228,8858,-2571,127293,28,19642,115,1,42488,0.0010000000000000009
167000,11975,5606,127274,-3487,7448,114073,31,19638,127,1,42489,0.0010000000000000009
168000,22470,-3856,125742,-3101,-12188,131588,44,19635,180,0,42490,0.0010000000000000009
169000,-3049,-6041,126303,12834,-3611,128052,42,19635,180,0,42491,0.0010000000000000009
170000,-702,10,128390,-17925,-6944,135661,42,19638,172,0,42492,0.0010000000000000009
171000,-5127,2317,128340,-15264,4555,126420,42,19639,172,0,42493,0.0010000000000000009
172002,7335,20454,132254,5911,14884,121950,34,19642,139,0,42494,0.0010020000000000029
173002,10890,-4693,125042,4858,-6392,129232,27,19643,111,0,42495,0.0010000000000000009
174000,12066,10057,128863,-13796,6244,114035,31,19639,127,0,42496,0.0009979999999999989
175000,13924,-14598,124520,8454,-17467,140183,41,19639,127,0,42497,0.0010000000000000009
176000,-3972,7837,127452,10605,6401,119852,45,19638,168,0,42498,0.0010000000000000009
177000,5762,-4003,128199,-24564,-8414,139838,45,19637,184,0,42499,0.0010000000000000009
178000,666,15434,130668,-1436,14932,117414,46,19639,188,1,42500,0.0010000000000000009
179000,11423,8365,130532,6059,3313,137522,31,19640,127,1,42501,0.0010000000000000009
180001,8631,-3530,126494,-4771,-5130,115032,32,19641,131,1,42502,0.0010010000000000019
181000,6572,-4456,126430,-2482,-8497,138074,38,19641,131,1,42503,0.0009989999999999999
182000,6914,-5153,125093,2368,-6982,122514,40,19638,156,1,42504,0.0010000000000000009
183000,1409,14311,129475,-3509,11171,128992,40,19639,164,1,42505,0.0010000000000000009
184000,6332,6811,129671,-12118,10847,123863,36,19640,147,1,42506,0.0010000000000000009
185000,7359,9142,129478,4097,-6829,128929,29,19642,119,1,42507,0.0010000000000000009
186000,4797,-8323,124927,-1915,-2856,125747,30,19641,123,1,42508,0.0010000000000000009
187002,10610,4368,127966,-16052,-4433,124179,38,19641,123,0,42509,0.0010020000000000029
188000,10541,-3729,126875,14370,3790,128053,42,19641,156,0,42510,0.0009979999999999989
189000,4698,9476,129875,-5227,-3191,130634,42,19636,172,0,42511,0.0010000000000000009
190000,-995,-7130,127467,-12115,-5012,132168,46,19638,188,0,42512,0.0010000000000000009
191000,246,7578,129252,1538,4843,122857,36,19641,147,0,42513,0.0010000000000000009
192000,11375,5622,126443,-2661,7179,121535,28,19641,115,0,42514,0.0010000000000000009
193000,9716,15574,129293,-250,7803,121225,29,19641,119,0,42515,0.0010000000000000009
194000,15140,-5399,125926,6146,-12848,134504,38,19639,119,0,42516,0.0009999999999999731
195000,1547,-7638,125925,-6656,-7001,128764,46,19637,156,0,42517,0.0010000000000000009
196000,3321,593,130577,-2043,-2051,131259,46,19637,188,0,42518,0.0010000000000000009
197000,401,1482,128489,-3758,2204,127009,47,19637,192,0,42519,0.0010000000000000009
198000,7810,7933,128801,-4684,5280,124232,42,19641,172,1,42520,0.0010000000000000009
199000,7001,10598,128131,-4334,8375,121386,30,19641,123,1,42521,0.0010000000000000009
200000,15029,6726,125380,4914,1608,123209,37,19643,123,1,42522,0.0010000000000000009
201000,5115,-1578,126871,1138,-7952,130775,44,19639,152,1,42523,0.0010000000000000009
202000,5994,-7639,127326,-2638,-9944,132007,44,19639,180,1,42524,0.0010000000000000009
203000,1873,-3099,128605,-7300,-2908,131957,43,19640,176,1,42525,0.0010000000000000009
204000,3775,9242,130946,-567,6852,124380,34,19639,139,1,42526,0.0010000000000000009
205000,6269,9013,127453,-5880,7512,119637,27,19639,111,1,42527,0.0010000000000000009
206000,8798,8772,126463,-2884,3559,125345,34,19642,111,1,42528,0.0010000000000000009
207000,8034,-1045,125389,4135,-4790,127022,49,19638,139,0,42529,0.0010000000000000009
208000,6568,2034,127069,-2377,-710,126755,49,19633,201,0,42530,0.0010000000000000009
209000,3470,-4173,128234,-5683,-6888,132884,43,19636,176,0,42531,0.0010000000000000009
210000,4337,1024,129758,-3345,-2260,129073,43,19638,176,0,42532,0.0010000000000000009
211000,6538,-1545,127977,-1159,-2066,128018,31,19643,127,0,42533,0.0010000000000000009
212000,8604,12735,128455,-3633,11909,118234,27,19643,127,0,42534,0.0010000000000000009
213000,10273,7333,126326,-398,2058,125457,34,19639,111,0,42535,0.0010000000000000009
214000,8084,2256,126386,3015,198,125736,34,19635,139,0,42536,0.0010000000000000009
215002,3399,-5299,126419,-2022,-9927,133621,43,19635,176,0,42537,0.0010020000000000029
216000,2456,-553,128925,-5880,-1800,128340,46,19633,188,0,42538,0.0009979999999999989
217001,5989,1992,129740,-3434,-792,128119,43,19636,176,1,42539,0.0010010000000000019
218000,8671,5782,128942,739,5089,125283,30,19636,176,1,42540,0.0009989999999999999
219000,14381,9677,128052,-51,6685,121689,34,19643,123,1,42541,0.0010000000000000009
220000,9770,2583,126565,3288,-222,126066,34,19636,139,1,42542,0.0010000000000000009
221002,4860,-2512,125801,401,-5880,128363,40,19638,164,1,42543,0.0010019999999999751
222000,340,-2509,128341,-6453,-5185,130832,44,19637,180,1,42544,0.0009980000000000266
223000,2354,150,129141,-8265,-2459,130888,39,19637,160,1,42545,0.0010000000000000009
224001,6001,7772,130292,-1536,5181,125596,27,19637,160,1,42546,0.0010009999999999741
225000,10620,7195,127973,683,4741,123927,30,19641,111,1,42547,0.0009989999999999999
226000,12328,7144,126453,1491,4443,124211,30,19640,123,1,42548,0.0010000000000000009
227000,6317,-1636,125273,3250,-4575,128189,39,19637,160,1,42549,0.0010000000000000009
228000,5764,1034,128014,-6207,-1763,129270,54,19629,221,0,42550,0.0010000000000000009
229000,-3687,-2478,128521,-7137,-5610,131681,45,19637,184,0,42551,0.0010000000000000009
230002,2918,2070,130385,-7266,-1432,129225,37,19637,184,0,42552,0.0010020000000000029
231002,6982,1277,128637,-3091,2619,124814,29,19640,152,0,42553,0.0010000000000000009
232000,12677,9087,127937,3164,5861,121832,29,19641,119,0,42554,0.0009979999999999989
233003,12322,4859,125624,5812,1462,124484,28,19641,115,0,42555,0.0010030000000000039
234001,10704,2411,126072,-1253,-2879,127070,38,19639,156,0,42556,0.0009979999999999989
235000,1614,-999,126838,-5854,-2888,130364,43,19637,176,0,42557,0.0009989999999999999
236000,-1370,721,129344,-8015,-3271,131320,44,19637,180,0,42558,0.0010000000000000009
237000,2517,-315,129518,-3799,-723,128581,42,19641,180,0,42559,0.0010000000000000009
238000,6085,5238,129608,-2282,3134,124653,31,19637,172,1,42560,0.0010000000000000009
239000,17064,6072,126923,9314,5321,121739,31,19642,127,1,42561,0.0010000000000000009
240000,13222,5138,125641,3033,-1513,124640,38,19639,156,1,42562,0.0010000000000000009
241000,8919,-2618,124905,-3410,-4624,127554,42,19636,172,1,42563,0.0010000000000000009
242000,-1595,449,127547,-7946,-2378,130301,40,19636,164,1,42564,0.0010000000000000009
243000,-108,678,129774,-10100,-2147,132528,32,19639,164,1,42565,0.0010000000000000009
244000,1655,5362,130194,-375,4431,125226,28,19641,131,1,42566,0.0010000000000000009
245000,9916,6044,128316,870,2496,124477,28,19640,115,1,42567,0.0010000000000000009
246000,13329,5095,125673,7548,3328,120407,34,19639,139,0,42568,0.0010000000000000009
247000,11099,2127,125096,-1605,-4113,126835,36,19637,147,0,42569,0.0010000000000000009
248000,8861,-2830,125803,-2837,-1690,127422,48,19637,197,0,42570,0.0010000000000000009
249000,-2594,5176,130275,-9315,-797,131675,46,19636,197,0,42571,0.0010000000000000009
250000,-1396,-3268,129846,-7870,-4630,133249,32,19641,188,0,42572,0.0010000000000000009
251001,3284,4829,130430,-1892,2013,125916,32,19644,131,0,42573,0.0010009999999999741
252000,14672,1391,126463,5384,850,124272,26,19642,106,0,42574,0.0009990000000000276
253002,11992,13552,126887,6537,11127,115521,33,19640,135,0,42575,0.0010020000000000029
254003,13634,-3660,124072,-5279,-9099,131008,41,19639,168,0,42576,0.0010009999999999741
255022,2096,2219,128032,-3778,1579,127270,47,19639,168,0,42577,0.0010189999999999921
256004,-1630,-1875,129944,-8262,-7774,137426,41,19636,192,0,42578,0.0009820000000000384
257000,-1710,3002,131166,-5185,4154,126749,41,19637,168,0,42579,0.0009959999999999969
258000,7301,2325,129283,-2638,-4933,130176,42,19635,172,1,42580,0.0010000000000000009
259002,13927,3700,126067,8789,8323,117504,33,19638,135,1,42581,0.0010020000000000029
260001,15795,10174,126127,943,1819,122290,36,19635,147,1,42582,0.0009989999999999721
261002,9740,-6069,124422,-2740,-5453,128245,42,19635,147,1,42583,0.0010010000000000296
262002,-1718,7320,130693,-7879,1335,129004,38,19637,172,1,42584,0.0010000000000000009
263001,-2589,-11190,128565,-7096,-11901,140975,38,19637,156,1,42585,0.0009989999999999721
264000,188,16200,133121,-3469,11949,120963,29,19641,119,1,42586,0.0009990000000000276
265002,11390,-9089,124678,1192,-11042,132113,30,19643,123,1,42587,0.0010020000000000029
266002,14069,21956,128172,3974,20992,106222,38,19642,156,0,42588,0.0009999999999999454
267000,14124,-8617,122675,-251,-14377,134770,38,19642,156,0,42589,0.0009980000000000544
268001,3744,6425,127806,-4354,6967,120353,46,19635,156,0,42590,0.0010009999999999741
269001,-2897,-3684,129806,-10456,-10553,140028,46,19635,188,0,42591,0.0010000000000000009
270001,-4407,2074,130893,-5103,2282,129286,37,19639,152,0,42592,0.0010000000000000009
271002,6754,3302,129531,-886,-2031,129734,26,19646,106,0,42593,0.0010009999999999741
272000,13356,-1528,124968,4723,-1342,122527,29,19640,119,0,42594,0.0009979999999999989
273002,18268,19092,126692,569,15778,129232,38,19640,119,0,42595,0.0010020000000000029
274002,8881,-8545,123537,440,-10630,124098,42,19640,156,0,42596,0.0010000000000000009
275015,1391,10266,129954,-8198,6856,136642,42,19635,172,1,42597,0.0010130000000000416
276003,-9007,-13368,128514,-4610,-1141,134195,44,19639,180,1,42598,0.0009879999999999889
277002,3248,15440,132536,-8783,3050,124977,34,19643,139,1,42599,0.0009989999999999721
278002,9827,-8673,125745,6602,-5137,126555,30,19644,123,1,42600,0.0010000000000000009
279002,19551,14949,127031,-1517,12807,110932,32,19644,131,1,42601,0.0010000000000000009
280000,14667,-2975,123400,1841,-8457,131846,40,19639,131,1,42602,0.0009979999999999989
281002,5023,7626,128121,-3984,6122,125072,40,19639,164,1,42603,0.0010020000000000029
282002,-2541,-5153,128881,-4774,-12530,140163,39,19638,160,1,42604,0.0010000000000000009
283000,-8450,4474,131147,-9878,9568,124907,30,19640,123,1,42605,0.0009979999999999989
284000,8008,1926,128846,5090,-9460,132580,29,19643,119,1,42606,0.0010000000000000009
285001,10014,316,125481,-2626,10165,111918,32,19643,131,1,42607,0.0010010000000000296
286000,22879,11414,126741,2291,-449,124920,44,19642,131,0,42608,0.0009989999999999721
287001,7143,-1156,125099,4127,2254,125656,42,19635,180,0,42609,0.0010010000000000296
288000,1638,1365,128205,-16407,-10199,136772,42,19636,172,0,42610,0.0009989999999999721
289002,-7304,-4472,130754,-8751,1425,129895,44,19639,180,0,42611,0.0010020000000000029
290002,202,8625,131208,4461,-1203,131247,33,19643,135,0,42612,0.0010000000000000009
291000,5946,-4199,125776,895,-851,123501,26,19643,106,0,42613,0.0009979999999999989
292000,15119,11013,126919,-12900,6696,115354,33,19642,106,0,42614,0.0010000000000000009
293000,20302,3144,125095,11296,3611,126533,41,19644,135,0,42615,0.0010000000000000009
294000,2193,9744,128205,4462,1174,127605,41,19635,168,0,42616,0.0010000000000000009
295002,201,-11902,127835,-18123,-15254,139063,46,19637,188,0,42617,0.0010020000000000029
296006,-5379,2263,130829,-2634,2935,126270,45,19638,184,1,42618,0.0010040000000000049
297003,8488,2331,128362,6883,-1963,131464,29,19643,119,1,42619,0.0009969999999999701
298000,11760,12364,127626,-2950,14547,111739,32,19643,119,1,42620,0.0009970000000000256
299001,15082,3856,126810,-11471,-6603,129638,38,19637,131,1,42621,0.0010009999999999741
300002,9933,-1519,125577,8434,2325,124715,38,19637,156,1,42622,0.0010010000000000296
301002,-3062,1343,129179,1366,-10505,135268,41,19638,168,1,42623,0.0010000000000000009
302000,-1128,-6501,127735,-17933,-134,127527,36,19643,147,1,42624,0.0009979999999999989
303003,4167,15292,131050,7922,6915,126623,29,19643,119,1,42625,0.0010029999999999761
304000,11044,1349,125657,1089,4817,125203,31,19643,119,1,42626,0.0009970000000000256
305001,17773,15247,128836,-13861,6233,114789,39,19642,127,0,42627,0.0010009999999999741
306002,8567,-11184,126343,12957,-11132,135261,39,19641,160,0,42628,0.0010010000000000296
307002,3271,-1912,127514,1753,-7928,128835,42,19639,172,0,42629,0.0010000000000000009
308001,-5169,-10497,128352,-21504,-9016,136464,46,19637,188,0,42630,0.0009989999999999721
309002,1841,19300,131730,1505,16988,120311,36,19640,147,0,42631,0.0010010000000000296
310000,8962,6787,125382,-236,4048,126001,26,19640,147,0,42632,0.0009979999999999989
311000,10241,12088,128075,-1223,8629,117355,30,19640,106,0,42633,0.0010000000000000009
312001,17295,-8743,124266,637,-12512,130974,30,19640,123,0,42634,0.0010009999999999741
313002,6572,-594,127416,3895,-1479,126276,38,19636,156,0,42635,0.0010010000000000296
314000,3842,369,131721,-2059,-3628,133281,45,19636,184,0,42636,0.0009979999999999989
315002,-3840,-4223,127494,-9070,-6563,133741,46,19637,188,0,42637,0.0010020000000000029
316003,3389,7934,129783,-8617,5424,123684,42,19637,188,1,42638,0.0010009999999999741
317001,7685,8855,126911,2179,6678,122929,33,19640,172,1,42639,0.0009979999999999989
318002,15489,10452,125398,2309,8087,118364,33,19640,135,1,42640,0.0010010000000000296
319000,11300,317,127278,-1261,-2604,127324,39,19639,160,1,42641,0.0009979999999999989
320000,6807,-4691,127459,1351,-7845,133039,43,19641,176,1,42642,0.0010000000000000009
321000,-1900,-5882,128692,634,-9304,132423,41,19638,168,1,42643,0.0010000000000000009
322000,947,4516,130371,-13293,1450,124276,30,19638,168,1,42644,0.0010000000000000009
323000,7049,6162,127565,-2030,3329,122985,29,19642,123,1,42645,0.0010000000000000009
324000,10571,12597,127346,-1181,8288,121413,29,19644,119,1,42646,0.0010000000000000009
325000,10018,4355,125924,1082,-1771,125292,35,19634,143,1,42647,0.0010000000000000009
326000,6385,551,126278,-1998,-3388,128211,50,19639,205,0,42648,0.0010000000000000009
327000,2001,-5078,128000,-1301,-10595,135662,46,19637,188,0,42649,0.0010000000000000009
328000,4174,-4247,129096,-3782,-2162,129125,42,19637,172,0,42650,0.0009999999999999454
329000,3847,3648,129744,-2494,1581,126488,30,19639,172,0,42651,0.0010000000000000009
330000,9652,8683,127552,-3212,10703,117874,27,19643,123,0,42652,0.0010000000000000009
331000,10640,12282,127500,2356,2752,125320,27,19638,111,0,42653,0.0010000000000000009
332000,9479,-1057,125138,2368,-1652,126757,36,19637,147,0,42654,0.0010000000000000009
333002,3933,1481,127779,-5388,-6082,130838,42,19634,172,0,42655,0.0010020000000000029
334000,1687,-7105,128138,-3681,-6540,132521,47,19634,192,0,42656,0.0009979999999999989
335000,3470,3984,130513,-2375,1372,126921,44,19634,192,1,42657,0.0010000000000000009
336000,7880,704,127841,-1574,1636,126944,32,19635,180,1,42658,0.0010000000000000009
337000,14358,13798,128591,297,10978,118454,32,19636,131,1,42659,0.0010000000000000009
338000,12177,3483,125712,5561,-1028,127073,34,19638,139,1,42660,0.0010000000000000009
339000,5879,2451,126937,-1700,-2134,126323,42,19636,172,1,42661,0.0010000000000000009
340000,1524,-7142,127292,-6439,-11100,134611,43,19636,176,1,42662,0.0010000000000000009
341000,-927,-1478,129520,-7907,-1690,129937,38,19637,176,1,42663,0.0010000000000000009
342000,6226,5133,129840,-1281,3329,126545,29,19639,156,1,42664,0.0010000000000000009
343000,9191,9239,128470,90,6968,122906,29,19642,119,1,42665,0.0010000000000000009
344001,13912,7694,125915,1878,4495,121827,30,19639,123,1,42666,0.0010010000000000296
345000,7768,2511,125557,2945,-1976,126409,42,19638,172,1,42667,0.0009989999999999721
346000,6999,-90,127470,-5397,-2739,127361,57,19632,233,0,42668,0.0010000000000000009
347000,-4064,-3959,128801,-6856,-8205,134024,44,19632,233,0,42669,0.0010000000000000009
348000,1591,-2071,129822,-8472,-2949,130996,34,19637,180,0,42670,0.0010000000000000009
349000,4979,3681,129397,-2913,1418,126609,34,19636,139,0,42671,0.0010000000000000009
350000,12239,9153,127642,3736,8360,120914,28,19643,115,0,42672,0.0010000000000000009
351000,13758,7004,125774,5704,2555,122883,33,19645,135,0,42673,0.0010000000000000009
352000,11336,1852,125899,-2129,-481,125454,36,19640,147,0,42674,0.0010000000000000009
353000,4221,-1326,127277,-1734,-5312,130248,46,19640,147,0,42675,0.0010000000000000009
354000,-1738,-428,129196,-7245,-2547,130835,45,19635,188,0,42676,0.0010000000000000009
355000,620,-330,129831,-8931,-3824,131405,45,19639,184,0,42677,0.0010000000000000009
356000,4645,5128,129409,-2174,3813,125291,40,19639,164,1,42678,0.0010000000000000009
357000,16298,6884,126803,4280,3820,122896,33,19640,135,1,42679,0.0010000000000000009
358000,13891,6898,126260,8148,4535,121148,37,19635,152,1,42680,0.0010000000000000009
359000,11489,-2661,125060,-1698,-6388,127710,42,19635,152,1,42681,0.0010000000000000009
360000,-14,-972,127581,-4133,-3490,129383,42,19638,172,1,42682,0.0010000000000000009
361000,-2001,-624,129651,-11260,-4286,133408,42,19641,172,1,42683,0.0010000000000000009
362000,1037,6154,130352,-4128,4081,127364,30,19642,123,1,42684,0.0010000000000000009
363000,7969,6858,128346,-1967,3569,124823,27,19641,111,1,42685,0.0010000000000000009
364000,13998,5614,125956,5856,3677,121513,33,19638,135,0,42686,0.0010000000000000009
365002,11586,2776,125255,4278,-326,122762,38,19638,135,0,42687,0.0010020000000000029
366000,10697,-3185,125794,-3104,-5705,126933,47,19638,156,0,42688,0.0009979999999999989
367002,-2028,2688,129469,-5806,-454,133393,47,19636,192,0,42689,0.0010020000000000029
368002,-1262,-1995,130022,-10285,-5243,131692,45,19638,184,0,42690,0.0010000000000000009
369003,1069,4510,130142,-3859,1551,126249,32,19643,131,0,42691,0.0010009999999999741
370000,13361,2773,126959,117,316,122265,27,19643,111,0,42692,0.0009970000000000256
371000,12834,10974,126227,9252,8747,117111,33,19643,135,0,42693,0.0010000000000000009
372002,14506,357,124702,-910,-7834,130589,40,19639,135,0,42694,0.0010020000000000029
373000,3849,-1033,127064,-3414,428,128177,45,19638,164,0,42695,0.0009979999999999989
374000,-1491,459,130307,-7407,-7607,137387,45,19635,184,0,42696,0.0010000000000000009
375000,-2024,-153,130373,-7126,5179,126143,42,19639,172,0,42697,0.0010000000000000009
376000,5277,6333,130164,-2614,-4847,129526,42,19635,172,1,42698,0.0010000000000000009
377000,13137,-886,125189,8105,9151,116281,32,19635,131,1,42699,0.0010000000000000009
378000,16101,14429,127053,1434,193,123240,39,19635,131,1,42700,0.0010000000000000009
379000,11419,-8029,123783,-2256,-4529,128055,43,19637,160,1,42701,0.0010000000000000009
380000,-845,8814,130427,-8499,-8,130065,43,19638,176,1,42702,0.0010000000000000009
381000,-2736,-12171,128223,-6898,-10508,139882,38,19641,156,1,42703,0.0010000000000000009
382000,-630,15634,132946,-3500,11800,121059,27,19642,111,1,42704,0.0010000000000000009
383000,9655,-6633,125622,1529,-10358,131174,29,19642,119,1,42705,0.0010000000000000009
384000,14250,16918,127350,3774,20435,106602,39,19641,119,0,42706,0.0010000000000000009
385000,14462,-2013,123750,61,-15388,135630,38,19638,160,0,42707,0.0010000000000000009
386000,6174,627,126474,-5357,7693,120084,38,19640,156,0,42708,0.0010000000000000009
387000,-2141,1959,130514,-9582,-11986,141291,44,19631,180,0,42709,0.0009999999999999454
388002,-5027,-5006,129541,-5025,3931,127767,37,19641,152,0,42710,0.0010020000000000029
389001,4773,10317,130962,-620,-2480,129832,28,19642,115,0,42711,0.0009990000000000276
390001,11959,-7246,124853,1676,-271,122253,28,19642,115,0,42712,0.0010000000000000009
391000,19243,20549,127007,4612,13486,111038,35,19643,115,0,42713,0.0009989999999999721
392000,7901,-6624,123985,923,-8628,134021,35,19639,143,0,42714,0.0010000000000000009
393000,5348,7514,128704,-13295,3846,124258,43,19641,176,0,42715,0.0010000000000000009
394000,-8824,-9054,129587,244,-13260,143435,45,19639,184,1,42716,0.0010000000000000009
395000,2612,10038,131342,-8062,9231,122857,32,19643,131,1,42717,0.0010000000000000009
396000,8128,-3194,126984,4218,-7962,130030,30,19643,131,1,42718,0.0010000000000000009
397006,16181,11117,128356,-1228,12446,114188,33,19641,123,1,42719,0.0010060000000000069
398000,21850,-3522,122628,4844,-9599,127623,33,19640,135,1,42720,0.0009939999999999949
399000,-1516,10269,129263,3742,11424,121479,42,19638,172,1,42721,0.0010000000000000009
400000,4447,-10377,126627,-20720,-18125,141764,40,19639,164,1,42722,0.0010000000000000009
401000,-10520,7945,131670,-1507,11812,123441,30,19641,123,1,42723,0.0010000000000000009
402000,8967,7384,131614,1036,-1449,135296,28,19641,123,1,42724,0.0010000000000000009
403000,5503,-5126,123483,964,-2145,117958,33,19644,115,1,42725,0.0010000000000000009
404000,20443,13583,129486,-11318,6479,119292,33,19642,135,1,42726,0.0010000000000000009
405000,11881,-11225,122838,16867,-9789,131454,48,19636,197,0,42727,0.0010000000000000009
406000,-200,15057,129371,-8188,9346,120635,42,19637,172,0,42728,0.0010000000000000009
407000,487,-12513,128884,-20062,-14592,144792,41,19639,168,0,42729,0.0010000000000000009
408000,-6590,17704,131748,3180,14351,115753,28,19639,168,0,42730,0.0010000000000000009
409000,11023,-11759,125783,2204,-15220,143471,26,19643,115,0,42731,0.0010000000000000009
410000,5968,17510,128979,-4844,16220,104555,26,19645,106,0,42732,0.0010000000000000009
411001,23539,-11195,122000,-6876,-14867,136376,32,19642,131,0,42733,0.0010010000000000296
412001,2155,16273,128889,19226,14879,115682,40,19637,164,0,42734,0.0010000000000000009
413001,4807,-7899,127063,-15642,-11831,147702,44,19637,180,0,42735,0.0010000000000000009
414000,-2728,2179,129492,-11378,-1192,113223,45,19637,180,1,42736,0.0009989999999999721
415000,599,10925,132413,6682,7988,143035,30,19639,184,1,42737,0.0010000000000000009
416000,13150,-7718,123701,-5208,-11330,109302,30,19644,123,1,42738,0.0010000000000000009
417000,6903,15853,129573,-579,14476,131255,33,19641,135,1,42739,0.0010000000000000009
418000,16538,-13514,122389,-3616,845,125107,40,19638,164,1,42740,0.0010000000000000009
419000,-944,19180,129968,5325,5518,125178,41,19637,168,1,42741,0.0010000000000000009
420000,5475,-10812,127743,-11962,-8390,138440,35,19637,143,1,42742,0.0010000000000000009
421000,851,15945,130631,4352,11346,116416,29,19641,143,1,42743,0.0010000000000000009
422002,3309,-7225,125867,-16249,-12255,138405,29,19641,119,1,42744,0.0010020000000000029
423002,17759,10442,128633,-1252,14361,108867,29,19640,119,0,42745,0.0010000000000000009
424000,6160,-2673,125518,14505,-12309,137425,41,19639,168,0,42746,0.0009979999999999989
425000,10336,626,127530,-15152,2619,123275,42,19637,172,0,42747,0.0010000000000000009
426001,-4974,-2645,128423,-4204,-8051,134612,46,19637,188,0,42748,0.0010009999999999741
427000,2220,4597,129100,1330,7146,127600,36,19639,188,0,42749,0.0009990000000000276
428000,6339,9346,127228,-11312,6801,117700,29,19642,147,0,42750,0.0010000000000000009
429000,10002,11547,130200,6556,4598,127557,29,19643,119,0,42751,0.0010000000000000009
430000,15746,-8555,123339,3165,-13402,128044,30,19641,123,0,42752,0.0010000000000000009
431000,4384,2693,128169,-6035,3845,123795,38,19640,156,0,42753,0.0010000000000000009
432000,6835,230,129897,-677,-5470,135716,48,19640,197,0,42754,0.0010000000000000009
433001,-1683,-488,128026,-1994,-1452,126766,44,19636,197,0,42755,0.0010009999999999741
434000,1907,3670,130208,-12098,1089,130112,44,19638,180,1,42756,0.0009990000000000276
435000,9509,7760,127712,628,7313,120095,44,19640,180,1,42757,0.0010000000000000009
436000,10125,8736,125674,6017,4614,123016,31,19639,127,1,42758,0.0010000000000000009
437000,14309,1628,127335,-3135,-1978,126094,38,19634,156,1,42759,0.0010000000000000009
438000,5445,-4064,126081,124,-7670,131414,44,19637,180,1,42760,0.0010000000000000009
439002,3631,-3575,129684,91,-6245,134696,40,19637,180,1,42761,0.0010020000000000029
440001,-547,2137,129497,-10789,1208,124313,31,19639,164,1,42762,0.0009989999999999721
441002,6619,6788,128922,-3132,4061,126445,31,19642,127,1,42763,0.0010010000000000296
442001,7652,9521,127114,-1879,6942,121957,30,19642,123,1,42764,0.0009989999999999721
443000,11124,4771,125645,1932,1076,123694,36,19639,147,1,42765,0.0009990000000000276
444000,7002,2878,126280,-2128,393,126768,51,19635,209,0,42766,0.0010000000000000009
445000,3769,-1057,127523,-1341,-6750,130243,44,19635,209,0,42767,0.0010000000000000009
446000,4414,-5425,129030,-2959,-7458,133794,38,19637,180,0,42768,0.0010000000000000009
447000,3919,-301,129619,-3644,-2701,128519,38,19636,156,0,42769,0.0009999999999999454
448002,6817,8634,128334,-3290,7784,121339,30,19642,123,0,42770,0.0010020000000000029
449000,10465,11589,127754,-1650,7926,121640,26,19643,106,0,42771,0.0009979999999999989
450000,8635,1597,124842,4359,-1000,126620,34,19636,139,0,42772,0.0010000000000000009
451003,7109,2573,127079,-2339,-816,126826,43,19636,139,0,42773,0.0010030000000000316
452000,2242,-4801,127755,-4469,-7500,132273,49,19639,176,0,42774,0.0009969999999999701
453002,4943,2,129783,-1833,-2575,129300,49,19637,201,1,42775,0.0010020000000000029
454000,5581,1110,128703,-2791,-1229,128899,44,19643,180,1,42776,0.0009979999999999989
455001,13275,10967,128807,-2927,8832,120750,33,19637,135,1,42777,0.0010010000000000296
456000,11409,6039,126111,4186,3309,124828,34,19642,139,1,42778,0.0009989999999999721
457000,7464,1466,125649,2843,-906,124985,41,19642,139,1,42779,0.0010000000000000009
458000,3617,-2931,126985,-5844,-5886,129852,43,19637,168,1,42780,0.0010000000000000009
459000,779,-3966,128656,-5465,-7169,133163,43,19640,176,1,42781,0.0010000000000000009
460000,5666,5460,130396,-4315,2691,126746,35,19641,143,1,42782,0.0010000000000000009
461000,7482,6581,128782,-1143,3820,123494,29,19646,119,1,42783,0.0010000000000000009
462000,11901,8728,126908,164,6258,122093,31,19640,127,1,42784,0.0010000000000000009
463000,9929,2051,125653,3842,-292,127216,41,19640,168,1,42785,0.0010000000000000009
464000,6214,1187,126495,-1344,-1457,126080,57,19630,168,0,42786,0.0010000000000000009
465000,-591,-1639,128454,-6784,-6723,133210,43,19628,233,0,42787,0.0010000000000000009
466000,1306,-1807,129853,-8727,-2421,130860,43,19635,176,0,42788,0.0010000000000000009
467000,5104,2326,129839,-2977,808,127199,36,19636,147,0,42789,0.0010000000000000009
468000,8401,6825,127731,466,6801,121789,27,19644,111,0,42790,0.0010000000000000009
469000,15096,8036,126334,4513,3144,122364,31,19644,127,0,42791,0.0010000000000000009
470000,10141,2492,125632,1186,-987,126343,37,19642,127,0,42792,0.0010000000000000009
471000,7018,230,126661,-3737,-3641,128615,46,19636,152,0,42793,0.0010000000000000009
472000,-1328,-787,128838,-8778,-3610,131582,46,19637,188,0,42794,0.0010000000000000009
473000,231,98,130180,-6808,-2868,130854,44,19637,180,0,42795,0.0010000000000000009
474000,3330,3002,129760,-821,2595,126320,42,19635,172,1,42796,0.0010000000000000009
475000,13428,6533,127817,1853,3820,123191,32,19635,131,1,42797,0.0010000000000000009
476002,14526,6081,125974,8349,3462,121555,37,19642,131,1,42798,0.0010020000000000029
477000,11988,535,124980,-1263,-4333,126769,43,19638,152,1,42799,0.0009979999999999989
478000,2976,-1504,126622,-4643,-3288,129133,43,19634,176,1,42800,0.0010000000000000009
479000,-3420,678,129622,-11769,-3244,132904,40,19637,164,1,42801,0.0010000000000000009
480000,2448,1667,130005,-4352,1477,128710,31,19643,127,1,42802,0.0010000000000000009
481000,5046,8769,129757,-199,4974,124430,27,19640,111,1,42803,0.0010000000000000009
482000,14071,3323,125986,5522,1331,122558,34,19640,111,0,42804,0.0010000000000000009
483000,10627,5738,125491,3368,1674,121539,37,19639,139,0,42805,0.0010000000000000009
484000,12789,-3622,124832,-4322,-6072,129278,37,19638,152,0,42806,0.0010000000000000009
485000,-728,4839,128999,-3940,2383,127485,48,19637,197,0,42807,0.0010000000000000009
486000,-1942,-2139,129926,-11420,-6761,135926,42,19637,172,0,42808,0.0010000000000000009
487000,-230,1937,130359,-4197,1298,127204,32,19643,131,0,42809,0.0010000000000000009
488000,11117,3199,128182,1218,-491,126663,28,19643,131,0,42810,0.0010000000000000009
489000,14222,7364,125868,9986,8179,117137,34,19641,115,0,42811,0.0010000000000000009
490000,13205,6401,125326,-2780,-324,123962,34,19636,139,0,42812,0.0010000000000000009
491000,7236,-3443,125690,-3725,-3962,129115,43,19637,176,0,42813,0.0010000000000000009
492000,-2295,4015,130289,-6486,-964,131581,44,19637,180,0,42814,0.0010000000000000009
493000,-1092,-4891,129760,-7110,-6031,135546,42,19638,172,0,42815,0.0010000000000000009
494000,1296,9284,131493,-3905,5288,123742,42,19638,172,1,42816,0.0010000000000000009
495000,13920,-5321,125113,2726,-6334,128616,33,19638,172,1,42817,0.0010000000000000009
496001,14576,17651,127587,6931,15471,111761,33,19639,135,1,42818,0.0010009999999999741
497003,14037,-7410,122916,-2682,-10980,131667,41,19640,168,1,42819,0.0010020000000000029
498000,549,7950,128879,-4641,6648,122345,43,19633,176,1,42820,0.0009970000000000256
499000,-1450,-8994,128706,-9945,-14318,142160,34,19643,139,1,42821,0.0010000000000000009
500000,-2369,8219,131871,-2589,7672,125198,26,19643,139,1,42822,0.0010000000000000009
501000,7926,-143,127796,-2634,-4799,130558,29,19641,106,1,42823,0.0010000000000000009
502001,13552,8176,125810,4101,7822,115416,29,19639,119,1,42824,0.0010010000000000296
503000,15396,9171,125544,1501,5246,119595,39,19639,160,0,42825,0.0009989999999999721
504000,8660,-7601,123788,-838,-9817,131753,40,19636,164,0,42826,0.0010000000000000009
505000,-1536,10355,131378,-10466,6726,123968,45,19639,184,0,42827,0.0010000000000000009
506000,-4986,-13181,128583,-6579,-17002,145288,37,19639,184,0,42828,0.0010000000000000009
507000,2534,15589,132530,-2908,13108,130415,26,19637,152,0,42829,0.0010000000000000009
508000,11494,-12583,124485,3348,-15512,121102,26,19641,106,0,42830,0.0010000000000000009
509001,17157,23894,127682,1324,21583,111352,31,19640,127,0,42831,0.0010009999999999186
510000,13131,-7353,122977,2706,-8283,134661,34,19636,139,0,42832,0.0009990000000000832
511000,4029,10262,129147,-5353,6799,123662,43,19639,176,0,42833,0.0010000000000000009
512002,-5160,-9599,129172,-6625,-17654,145961,46,19639,188,1,42834,0.0010019999999999474
513003,-2904,6159,132022,-6472,12574,120387,31,19642,188,1,42835,0.0010010000000000296
514000,9304,355,128897,-1254,-11942,134860,30,19643,127,1,42836,0.0009970000000000256
515000,14368,3296,126343,7529,14560,109518,30,19645,123,1,42837,0.0010000000000000009
516000,21042,9650,125823,2481,-6456,128603,35,19638,143,1,42838,0.0010000000000000009
517000,5189,-2377,125980,-3596,6436,124063,40,19642,164,1,42839,0.0010000000000000009
518000,1888,4975,129995,-9454,-9557,137268,39,19642,160,1,42840,0.0010000000000000009
519001,-10003,-6636,129895,-5156,2168,131594,30,19640,160,1,42841,0.0010009999999999186
520013,3231,11703,132102,-2974,-724,129379,28,19640,123,1,42842,0.0010120000000000129
521002,7431,-8409,124747,2291,-3108,123426,28,19641,115,1,42843,0.0009890000000000176
522000,19826,17468,128367,-4563,12262,112798,35,19640,143,1,42844,0.0009980000000000544
523000,15428,-4261,123707,8114,-6439,131676,47,19638,192,0,42845,0.0010000000000000009
524000,77,8707,128484,-7051,2096,125915,44,19640,180,0,42846,0.0010000000000000009
525000,-980,-12696,127932,-11698,-12661,138574,41,19640,180,0,42847,0.0010000000000000009
526000,-7692,13472,132460,-5804,9739,124804,31,19640,168,0,42848,0.0010000000000000009
527000,9719,-5886,127083,2979,-8634,132844,31,19640,127,0,42849,0.0010000000000000009
528000,7608,13609,128174,281,13625,110398,26,19642,106,0,42850,0.0010000000000000009
529000,18826,-3520,123389,-9919,-11138,132143,33,19637,135,0,42851,0.0010000000000000009
530000,8265,8982,126224,12419,12796,116753,42,19639,172,0,42852,0.0010000000000000009
531000,205,416,128694,-5593,-11551,140283,47,19639,172,0,42853,0.0010000000000000009
532000,1495,-4191,127449,-13351,1003,124360,46,19635,192,1,42854,0.0010000000000000009
533000,-126,9054,130854,5800,-193,131210,46,19639,188,1,42855,0.0010000000000000009
534000,14662,-3311,125696,2834,587,123736,30,19639,123,1,42856,0.0010000000000000009
535000,7977,14632,127755,-9154,7740,114585,32,19640,131,1,42857,0.0010000000000000009
536000,14326,-8017,124907,-2992,-8728,136469,39,19637,160,1,42858,0.0009999999999998899
537000,-1221,9704,128968,10047,5425,119433,41,19637,160,1,42859,0.0010000000000000009
538000,-2634,-14976,125201,-16218,-17879,143323,36,19640,168,1,42860,0.0010000000000000009
539000,6146,17031,131389,-5999,17299,113835,36,19641,147,1,42861,0.0010000000000000009
540000,6316,3120,126563,17359,-1633,133841,28,19644,115,1,42862,0.0010000000000000009
541000,15357,10484,126641,-12403,10625,115605,30,19642,123,1,42863,0.0010000000000000009
542001,13075,-3083,127113,-11715,-8434,126627,41,19639,168,0,42864,0.0010010000000000296
543000,5255,-5036,127724,22457,-6621,135099,43,19639,168,0,42865,0.0009989999999999721
544000,-1670,-8783,127405,-11693,-13375,131254,45,19635,176,0,42866,0.0010000000000000009
545000,-4190,2254,130413,-19813,1202,132320,45,19635,184,0,42867,0.0010000000000000009
546000,9333,17917,128777,5733,14729,120488,35,19640,143,0,42868,0.0010000000000000009
547000,7973,9849,125977,3065,8163,120798,27,19643,111,0,42869,0.0010000000000000009
548000,15955,5858,127586,-6217,2402,122902,32,19640,131,0,42870,0.0010000000000000009
549000,9281,-16597,123873,3618,-18990,134207,37,19640,131,0,42871,0.0010000000000000009
550000,4952,5193,132102,3101,2505,128008,46,19635,152,0,42872,0.0010000000000000009
551000,-244,-4529,130024,-6894,-7819,136688,46,19635,188,0,42873,0.0010000000000000009
552000,-1667,9018,130067,-10106,5950,123292,48,19640,197,1,42874,0.0010000000000000009
553001,8017,4211,127800,-4543,1481,124664,45,19639,184,1,42875,0.0010010000000000296
554000,10295,13286,126361,2198,10699,117984,33,19638,135,1,42876,0.0009989999999999721
555000,14494,2713,126828,858,1048,129186,39,19638,135,1,42877,0.0010000000000000009
556000,6216,-3394,127138,-810,-6015,131359,45,19636,160,1,42878,0.0010000000000000009
557000,3504,-7919,128536,2261,-10817,136126,41,19637,184,1,42879,0.0010000000000000009
558001,-796,1295,129955,-6935,4312,124608,41,19641,168,1,42880,0.0010010000000000296
559000,5154,7440,128650,-7778,4309,123673,32,19643,131,1,42881,0.0009989999999999721
560000,8182,10837,127718,-2038,9640,120742,29,19640,119,1,42882,0.0010000000000000009
561000,11428,6851,125929,-701,-278,125113,38,19640,156,1,42883,0.0010000000000000009
562002,6232,-315,125621,2387,-1929,126588,52,19639,156,0,42884,0.0010020000000000584
563000,3543,-1300,127566,-2310,-8297,131839,44,19641,213,0,42885,0.0009979999999999434
564000,2534,-5666,128278,-3354,-5200,131588,44,19636,180,0,42886,0.0010000000000000009
565001,5147,2352,129325,-2207,-88,127904,42,19640,172,0,42887,0.0010010000000000296
566000,7083,5988,127278,-3888,7737,120136,29,19642,119,0,42888,0.0009989999999999721
567000,11695,14915,127772,-1705,9954,119584,27,19642,111,0,42889,0.0010000000000000009
568000,9213,1105,124975,4499,-3325,128094,34,19640,111,0,42890,0.0010000000000000009
569000,6500,1041,126755,-2004,-3350,127877,46,19636,139,0,42891,0.0010000000000000009
570000,1857,-7018,127258,-5775,-9340,133440,46,19641,188,0,42892,0.0010000000000000009
571000,3087,2442,129417,-3267,1891,126788,45,19636,184,0,42893,0.0010000000000000009
572000,6656,2659,128745,-313,-663,128513,43,19640,176,1,42894,0.0010000000000000009
573000,13063,9816,128065,-1722,9795,119276,30,19641,123,1,42895,0.0010000000000000009
574002,12723,7092,126210,2661,1224,125504,36,19641,123,1,42896,0.0010020000000000584
575000,7565,2463,126109,3320,-50,125053,42,19638,147,1,42897,0.0009979999999999434
576003,2845,-3187,126962,-5002,-8570,131775,42,19638,172,1,42898,0.0010029999999999761
577000,-1594,-4664,128761,-7971,-5923,132828,43,19639,176,1,42899,0.0009970000000000256
578001,5000,3478,129974,-5237,1732,126923,37,19642,152,1,42900,0.0010010000000000296
579000,7860,7585,129220,1747,6072,124780,26,19643,106,1,42901,0.0009989999999999721
580000,12544,8341,127021,933,5463,121693,31,19643,106,1,42902,0.0010000000000000009
581000,11035,3779,126013,2906,286,124783,42,19646,127,1,42903,0.0010000000000000009
582000,6578,-751,126666,-3024,-3065,127615,42,19636,172,1,42904,0.0010000000000000009
583000,-273,-1039,128824,-4194,-4815,131052,56,19634,229,0,42905,0.0010000000000000009
584000,525,-3350,129880,-10088,-5936,133013,43,19635,176,0,42906,0.0010000000000000009
585000,4100,2087,130320,-5165,-371,128799,34,19639,139,0,42907,0.0010000000000000009
586000,9797,5810,128211,2273,4293,124296,27,19639,139,0,42908,0.0010000000000000009
587000,15302,9695,127131,4124,6866,121166,31,19642,111,0,42909,0.0010000000000000009
588000,9676,2124,125742,2655,-552,125374,31,19637,127,0,42910,0.0010000000000000009
589000,8011,188,126913,-3113,-3079,127896,39,19637,160,0,42911,0.0010000000000000009
590008,-1028,-2086,128349,-4882,-4869,131662,45,19637,184,0,42912,0.0010080000000000089
591000,-185,1526,130449,-8995,-1651,130664,45,19638,184,0,42913,0.0009919999999999929
592000,2633,1951,129305,-4303,-559,128592,43,19638,184,1,42914,0.0010000000000000009
593003,12898,7356,128633,-997,4820,123616,33,19638,176,1,42915,0.0010029999999999761
594003,14859,5954,126430,9707,4070,122290,33,19637,135,1,42916,0.0010000000000000009
595000,12380,1647,125488,1655,-1311,124410,38,19638,156,1,42917,0.0009970000000000256
596000,4304,-3500,126031,-2932,-6482,129375,42,19638,172,1,42918,0.0010000000000000009
597000,-2695,869,129293,-8459,-2264,130784,38,19637,156,1,42919,0.0010000000000000009
598001,1547,1678,129786,-8803,-1553,132041,32,19637,156,1,42920,0.0010010000000000296
599000,4511,9305,129645,-1836,6806,123700,30,19641,131,1,42921,0.0009989999999999721
600001,13038,4474,126341,1689,2217,121326,30,19643,123,1,42922,0.0010010000000000296
601003,12225,5790,125378,7588,3740,123562,34,19642,139,0,42923,0.0010019999999999474
602000,13048,-4236,124496,-2084,-6370,128760,40,19637,164,0,42924,0.0009970000000000256
603000,1691,2316,128212,-2809,-706,128483,49,19636,201,0,42925,0.0010000000000000009
604000,-1747,-637,129928,-9932,-3211,134402,43,19636,176,0,42926,0.0010000000000000009
605000,-346,2097,130038,-6774,1687,127181,32,19639,176,0,42927,0.0010000000000000009
606001,8575,4011,128311,-1656,656,125446,28,19641,131,0,42928,0.0010010000000000296
607000,14370,6311,125519,5752,8875,116529,28,19639,115,0,42929,0.0009989999999999721
608000,13197,8113,125674,5245,-2281,125791,32,19642,131,0,42930,0.0010000000000000009
609000,8851,-4801,125143,-3768,-3793,128449,42,19636,172,0,42931,0.0010000000000000009
610000,-976,3285,129649,-7465,-2411,132476,46,19636,188,0,42932,0.0010000000000000009
611000,-1070,-3804,129743,-6641,-3221,133426,42,19639,188,0,42933,0.0010000000000000009
612001,653,9704,131477,-3750,4374,124695,41,19639,172,1,42934,0.0010010000000000296
613001,12366,-4555,125745,3148,-4526,127104,41,19638,168,1,42935,0.0010000000000000009
614000,14501,15643,127546,5546,13387,113550,35,19640,143,1,42936,0.0009989999999999721
615000,15114,-4459,123792,-2023,-10344,131367,38,19639,156,1,42937,0.0010000000000000009
616000,2821,3750,127717,-4450,5052,123729,42,19638,172,1,42938,0.0010000000000000009
617001,-1908,-4078,129421,-9983,-14080,142411,36,19638,172,1,42939,0.0010010000000000296
618000,-2750,3648,131239,-4066,10581,123567,27,19641,147,1,42940,0.0009989999999999721
619000,6183,5356,129386,-1524,-6596,132085,27,19641,111,1,42941,0.0010000000000000009
620000,12887,1975,125488,4451,10133,114269,30,19639,123,1,42942,0.0010000000000000009
621000,15376,14698,127167,501,1479,122205,38,19639,156,0,42943,0.0010000000000000009
622000,9939,-10975,122975,-735,-7751,130340,41,19636,168,0,42944,0.0010000000000000009
623000,-328,11283,131046,-9690,3562,126924,45,19636,168,0,42945,0.0010000000000000009
624000,-5246,-13148,128595,-6853,-13446,142855,38,19637,184,0,42946,0.0010000000000000009
625000,637,16105,133014,-4742,12046,120233,38,19641,156,0,42947,0.0010000000000000009
626000,9976,-10560,125686,4441,-13745,135677,26,19643,106,0,42948,0.0010000000000000009
627000,16261,17993,127360,1493,19814,104821,28,19641,115,0,42949,0.0010000000000000009
628000,14656,-1136,123983,2257,-8796,131760,36,19638,147,0,42950,0.0010000000000000009
629000,5437,4481,127517,-6267,5661,123355,45,19638,147,0,42951,0.0010000000000000009
630000,-3146,-3330,129631,-4451,-10934,138629,44,19638,184,1,42952,0.0010000000000000009
631000,-5705,-537,130599,-8404,1725,131701,44,19640,180,1,42953,0.0010000000000000009
632000,8791,7010,130018,-844,834,126339,31,19642,127,1,42954,0.0010000000000000009
633000,11661,-1640,126126,6915,-1010,123814,31,19639,127,1,42955,0.0010000000000000009
634000,23175,11511,125908,-438,8104,114186,37,19639,152,1,42956,0.0010000000000000009
635000,4773,-2546,125234,3862,-4296,130142,39,19639,152,1,42957,0.0010000000000000009
636002,5500,2687,128053,-13154,-1152,129351,40,19638,160,1,42958,0.0010019999999999474
637001,-10612,-3310,130018,-1613,-5840,135670,40,19639,164,1,42959,0.0009989999999999721
638003,2793,9072,131122,-9372,6195,127795,31,19643,127,1,42960,0.0010020000000000584
639000,5940,-4792,125217,5281,-7356,128113,30,19640,123,1,42961,0.0009970000000000256
640002,17366,14392,128888,-5696,12583,113574,35,19643,143,1,42962,0.0010019999999999474
641000,19592,-6062,122821,4325,-8327,128140,46,19643,143,0,42963,0.0009980000000000544
642000,-1746,13322,129594,5991,10849,120257,44,19634,188,0,42964,0.0010000000000000009
643000,3351,-17732,125977,-21635,-21473,144947,44,19634,180,0,42965,0.0010000000000000009
644002,-12084,16200,133732,-2463,12668,119758,40,19642,164,0,42966,0.0010019999999999474
645000,10590,-4135,127989,-292,-6212,138375,30,19640,123,0,42967,0.0009980000000000544
646003,3719,10287,126522,3250,6590,113782,27,19641,111,0,42968,0.0010029999999999761
647002,22452,82,125283,-13182,-590,137161,33,19641,135,0,42969,0.0009989999999999721
648000,10851,5316,125487,14436,997,114342,41,19643,135,0,42970,0.0009980000000000544
649000,608,3630,128868,44,2903,142749,47,19636,168,0,42971,0.0010000000000000009
650000,-388,-7549,129536,-19700,-13118,126119,47,19635,192,1,42972,0.0010000000000000009
651000,-5569,8994,130980,4299,6748,132472,43,19641,176,1,42973,0.0010000000000000009
652000,12823,-5496,126556,-3969,3823,122695,29,19640,119,1,42974,0.0010000000000000009
653000,8583,19907,129126,-328,8012,115207,34,19640,139,1,42975,0.0010000000000000009
654000,18558,-10094,122770,-4090,-10675,134655,38,19639,139,1,42976,0.0010000000000000009
655000,1388,12131,128963,4329,10727,118249,41,19639,156,1,42977,0.0009999999999998899
656000,3837,-12099,126509,-8455,-18981,144955,41,19639,168,1,42978,0.0010000000000000009
657000,69,13106,130782,3606,17972,115208,34,19639,139,1,42979,0.0010000000000000009
658000,3697,1206,128598,-9900,-10580,136540,29,19641,119,1,42980,0.0010000000000000009
659000,18414,6455,127500,-1636,13675,113230,31,19641,127,1,42981,0.0010000000000000009
660000,6813,1955,126815,9794,-10939,131840,43,19640,127,0,42982,0.0010000000000000009
661000,10331,-6870,125465,-9695,-2343,126923,44,19639,176,0,42983,0.0010000000000000009
662000,-1699,1979,128814,-3703,-4005,129522,44,19636,180,0,42984,0.0010000000000000009
663000,395,1840,129080,-2435,2579,133734,47,19641,192,0,42985,0.0010000000000000009
664000,5298,11272,128434,-8898,8249,117871,34,19641,139,0,42986,0.0010000000000000009
665002,8937,8854,129726,5135,4077,127062,26,19642,106,0,42987,0.0010020000000000584
666000,13580,-4728,123821,2190,-8837,126394,33,19642,106,0,42988,0.0009979999999999434
667001,9768,1718,127661,-4538,1954,122480,39,19640,135,0,42989,0.0010010000000000296
668000,5137,151,129570,1307,-4642,136084,39,19637,160,0,42990,0.0009989999999999721
669000,1415,341,128339,-3968,-1413,126281,46,19636,188,0,42991,0.0010000000000000009
670000,-2850,2061,130333,-11184,-798,132358,45,19637,184,0,42992,0.0010000000000000009
671000,11188,5109,127670,-513,3889,122441,42,19639,172,1,42993,0.0010000000000000009
672000,6158,10336,126190,3450,7420,120449,34,19639,172,1,42994,0.0010000000000000009
673000,18805,5352,127516,-3472,1717,124990,38,19639,139,1,42995,0.0010000000000000009
674000,5362,-1322,125867,2792,-5380,128788,38,19640,156,1,42996,0.0010000000000000009
675000,4976,-5780,128796,1939,-8705,135059,45,19635,184,1,42997,0.0010000000000000009
676000,-2417,-2051,128688,-12119,-3948,128778,41,19639,168,1,42998,0.0010000000000000009
677000,4723,6553,129988,-3125,3947,125638,32,19641,131,1,42999,0.0010000000000000009
678002,7116,8719,127702,-1239,6971,123238,29,19641,131,1,43000,0.0010020000000000584
679000,11421,9346,126239,-1962,6258,120779,38,19642,119,1,43001,0.0009979999999999434
680000,7620,996,125447,2148,-1762,127232,38,19635,156,0,43002,0.0010000000000000009
681000,5484,575,127215,-3186,-2812,126208,51,19635,209,0,43003,0.0010000000000000009
682000,2994,-8025,128741,-2409,-10218,135677,45,19637,184,0,43004,0.0010000000000000009
683001,4437,554,130112,-4763,-1911,128792,41,19640,168,0,43005,0.0010010000000000296
684000,4945,4061,128006,-3382,1533,125950,30,19640,168,0,43006,0.0009989999999999721
685001,10735,12047,127969,-2388,9999,119532,28,19642,123,0,43007,0.0010010000000000296
686000,9359,5232,125347,1986,2358,124847,28,19646,115,0,43008,0.0009989999999999721
687000,9528,1479,126171,1586,-890,126390,36,19643,147,0,43009,0.0010000000000000009
688000,3211,-2044,127480,-3906,-4916,129894,44,19636,180,0,43010,0.0010000000000000009
689000,3735,-3108,129078,-2520,-5944,131966,45,19632,184,0,43011,0.0010000000000000009
690000,4270,2773,129764,-3683,173,127217,43,19632,176,1,43012,0.0010000000000000009
691000,10418,4276,128542,-1724,1643,127241,31,19638,176,1,43013,0.0010000000000000009
692002,12888,11627,127439,632,9491,119682,36,19640,127,1,43014,0.0010020000000000584
693000,9058,1773,125826,4798,-577,126199,36,19639,147,1,43015,0.0009979999999999434
694000,5245,-174,126885,-2086,-2526,130274,43,19637,176,1,43016,0.0010000000000000009
695000,-424,-6405,127875,-5608,-9791,132981,45,19635,184,1,43017,0.0010000000000000009
696000,2792,3380,130016,-6455,-682,126111,34,19635,139,1,43018,0.0010000000000000009
697000,6824,6653,129838,-2234,3889,126285,28,19639,139,1,43019,0.0010000000000000009
698003,9964,7841,127610,403,5082,122235,31,19641,115,1,43020,0.0010029999999999761
699002,12511,5508,126287,1557,-603,125017,31,19637,127,1,43021,0.0009990000000000832
700000,5810,-231,125869,2075,-2031,126437,42,19639,172,1,43022,0.0009979999999999434
701000,4391,392,128496,-5398,-5297,131004,56,19638,229,0,43023,0.0010000000000000009
702000,-2571,-4774,129117,-6405,-5945,133168,43,19638,176,0,43024,0.0010000000000000009
703000,3942,3045,130536,-5974,1474,127910,35,19637,176,0,43025,0.0010000000000000009
704000,7070,4356,128556,2228,3511,125032,28,19641,143,0,43026,0.0010000000000000009
705000,14552,9687,127524,3685,6263,120610,28,19641,115,0,43027,0.0010000000000000009
706000,10079,2547,125527,3122,-1335,125952,30,19642,123,0,43028,0.0010000000000000009
707001,10703,1466,126443,-3411,-1553,126525,39,19639,160,0,43029,0.0010010000000000296
708000,93,-1337,127829,-4155,-4319,131402,46,19639,188,0,43030,0.0009989999999999721
709000,-1823,782,129903,-10478,-1879,130609,45,19638,188,0,43031,0.0010000000000000009
710000,2734,794,129561,-4048,-1070,128985,44,19640,184,1,43032,0.0010000000000000009
711000,8755,5820,128690,718,3967,124340,44,19639,180,1,43033,0.0010000000000000009
712002,16859,5859,126534,7577,4624,120966,31,19636,127,1,43034,0.0010019999999999474
713000,12612,4315,125440,2368,-253,124127,37,19640,152,1,43035,0.0009980000000000544
714000,8021,-3455,125193,-2133,-5966,129099,43,19637,176,1,43036,0.0010000000000000009
715000,-3245,287,128416,-8486,-2508,130581,40,19637,176,1,43037,0.0010000000000000009
716001,657,1078,129821,-11066,-1205,131581,31,19640,164,1,43038,0.0010010000000000296
717001,3281,8136,130107,889,5491,124942,31,19641,127,1,43039,0.0010000000000000009
718000,10205,3410,126757,1514,580,124762,30,19642,123,1,43040,0.0009989999999999721
719000,14131,6143,125665,3520,3991,119179,35,19640,143,0,43041,0.0010000000000000009
720000,11045,-246,124653,1659,-4036,127465,40,19636,164,0,43042,0.0010000000000000009
721000,6264,1486,126934,-2419,-370,126977,49,19636,164,0,43043,0.0010000000000000009
722003,-4453,916,129443,-10431,-2923,132259,42,19636,201,0,43044,0.0010029999999999761
723000,2981,1567,130924,-9732,-782,130977,42,19639,172,0,43045,0.0009970000000000256
724000,5516,2026,129139,5551,-596,127460,31,19639,127,0,43046,0.0010000000000000009
725000,14675,2726,126517,2636,710,122948,28,19641,115,0,43047,0.0010000000000000009
726001,12210,7969,125958,394,5536,118075,34,19639,139,0,43048,0.0010010000000000296
727002,7130,-251,125164,687,-3214,129266,41,19639,139,0,43049,0.0010009999999999186
728000,1487,2375,127736,-7847,-337,128910,45,19637,168,0,43050,0.0009980000000000544
729000,-4138,2104,130663,-9057,-1115,132705,45,19638,184,0,43051,0.0010000000000000009
730001,4989,4701,130951,-3329,2017,128936,40,19637,164,0,43052,0.0010010000000000296
731000,8330,-1959,128061,2226,-4867,127986,42,19636,172,1,43053,0.0009989999999999721
732000,18393,5601,127791,3926,4030,120410,34,19638,139,1,43054,0.0010000000000000009
733000,10589,564,124950,3962,-1940,124141,40,19638,139,1,43055,0.0010000000000000009
734000,5632,518,126246,-6114,-2158,128039,43,19638,164,1,43056,0.0010000000000000009
735000,-3836,2825,129222,-8061,-177,131358,43,19639,176,1,43057,0.0010000000000000009
736000,351,1433,129603,-7169,-2188,133578,35,19639,143,1,43058,0.0010000000000000009
737001,6683,9903,131038,-81,7961,124351,28,19640,115,1,43059,0.0010010000000000296
738000,11851,-4303,126007,2395,-7370,128207,31,19643,127,1,43060,0.0009989999999999721
739000,16892,9860,127772,-964,8002,115075,39,19643,160,0,43061,0.0010000000000000009
740000,3323,-6898,123783,6614,-10220,132462,42,19640,160,0,43062,0.0010000000000000009
741000,2881,7044,127768,-10909,3094,126206,45,19636,172,0,43063,0.0010000000000000009
742000,-5746,-1792,129600,-11953,-4120,136864,45,19637,184,0,43064,0.0010000000000000009
743000,6391,11775,131556,-992,7436,122971,35,19641,143,0,43065,0.0010000000000000009
744001,8566,-2017,128076,1971,-2394,130445,26,19641,106,0,43066,0.0010009999999999186
745000,15821,3200,127423,110,8166,114137,30,19641,123,0,43067,0.0009990000000000832
746000,11040,897,124307,5908,-10828,131285,36,19641,123,0,43068,0.0010000000000000009
747000,3663,-724,125049,-2727,8499,122627,45,19639,147,0,43069,0.0010000000000000009
748000,-444,11248,130440,-12126,-2465,134168,45,19635,184,1,43070,0.0010000000000000009
749000,-3118,-3719,128199,-4432,3776,128906,43,19640,176,1,43071,0.0010000000000000009
750000,8895,13208,132301,2288,744,127112,32,19640,131,1,43072,0.0010000000000000009
751000,9832,-13250,124986,8705,-10406,127339,31,19640,127,1,43073,0.0010000000000000009
752000,17543,11355,127349,-3763,6742,115462,34,19640,127,1,43074,0.0010000000000000009
753001,7344,-7914,123628,1993,-6946,132389,39,19642,139,1,43075,0.0010009999999999186
754002,3751,14894,128574,-8363,9915,123466,39,19637,160,1,43076,0.0010010000000000296
755000,-3485,-3967,128054,-6104,-6027,135740,39,19642,160,1,43077,0.0009980000000000544
756000,98,10889,131137,-9577,8269,123934,31,19646,127,1,43078,0.0010000000000000009
757001,9444,-5783,127047,12021,-10476,131785,29,19643,119,1,43079,0.0010009999999999186
758000,9751,5129,127407,-8762,6875,115332,34,19643,119,1,43080,0.0009990000000000832
759000,19425,364,125932,-2493,-5432,129052,48,19642,139,0,43081,0.0010000000000000009
760000,-1445,4405,127136,9809,5033,124874,48,19635,197,0,43082,0.0010000000000000009
761000,4300,-4336,126308,-19641,-11725,137462,43,19635,176,0,43083,0.0010000000000000009
762000,-6467,7180,131333,-5584,10246,121191,38,19643,156,0,43084,0.0010000000000000009
763000,9617,4952,129487,5874,-3688,134516,28,19641,115,0,43085,0.0010000000000000009
764000,7973,360,125943,2472,3536,118028,28,19641,115,0,43086,0.0010000000000000009
765000,11725,10082,129195,-15346,1719,122309,34,19642,115,0,43087,0.0010000000000000009
766000,15788,-7231,123870,9635,-5156,131106,34,19639,139,0,43088,0.0010000000000000009
767001,-4420,10434,129788,6757,3348,125171,42,19639,172,0,43089,0.0010009999999999186
768000,4859,-13585,126640,-22983,-14484,139987,47,19638,192,0,43090,0.0009990000000000832
769000,-1462,16598,131849,1256,14480,116433,43,19639,176,1,43091,0.0010000000000000009
770000,13141,-1391,128315,7012,-4579,136049,28,19639,176,1,43092,0.0010000000000000009
771000,8162,13239,127750,-6670,11814,110682,34,19641,115,1,43093,0.0010000000000000009
772000,12553,-9634,125069,-8276,-15677,136759,34,19638,139,1,43094,0.0010000000000000009
773000,4159,2684,126960,12963,3051,122686,40,19637,164,1,43095,0.0010000000000000009
774002,-1501,-1438,127659,-8785,-7156,134764,40,19639,164,1,43096,0.0010019999999999474
775000,6426,6576,130108,-14629,6674,125915,34,19641,139,1,43097,0.0009979999999999434
776000,5484,15901,130761,11916,11277,121858,28,19641,139,1,43098,0.0010000000000000009
777000,8129,-6258,123769,2897,-8131,133275,31,19641,115,1,43099,0.0010000000000000009
778000,12664,9423,128819,-19557,6489,111887,31,19641,127,0,43100,0.0010000000000000009
779000,9197,-14083,125763,9955,-16240,141299,40,19641,164,0,43101,0.0010000000000000009
780000,5451,9328,129308,6378,7087,120112,45,19638,184,0,43102,0.0010000000000000009
781000,-4975,-5634,129019,-17710,-8746,138643,44,19640,180,0,43103,0.0010000000000000009
782000,4361,12941,129267,-4115,10149,121500,35,19640,143,0,43104,0.0010000000000000009
783000,7422,5010,125999,870,2580,123276,27,19643,143,0,43105,0.0010000000000000009
784002,12393,11933,128748,539,9866,120703,32,19643,111,0,43106,0.0010020000000000584
785000,13418,-9895,124089,1125,-11673,129057,32,19638,131,0,43107,0.0009979999999999434
786000,4569,-765,128677,-1056,-4620,130580,41,19639,168,0,43108,0.0010000000000000009
787000,2882,29,130255,-979,-2436,129914,46,19641,188,0,43109,0.0010000000000000009
788000,-1535,2798,128441,-6479,-1256,126300,46,19641,188,0,43110,0.0010000000000000009
789000,7351,4988,128684,-5717,2645,124443,39,19636,188,1,43111,0.0010000000000000009
790002,9150,11255,126979,-2707,7946,119555,32,19639,160,1,43112,0.0010020000000000584
791000,15397,6549,126325,2949,5666,125330,32,19639,131,1,43113,0.0009979999999999434
792002,6581,-1289,126802,2811,-2745,129892,40,19637,164,1,43114,0.0010020000000000584
793000,4467,-9097,127376,-2507,-10654,134653,42,19636,172,1,43115,0.0009979999999999434
794003,1101,-1310,129336,-4033,-305,129430,41,19636,168,1,43116,0.0010030000000000872
795000,2951,7619,130076,-5149,4402,125013,29,19643,168,1,43117,0.0009969999999999146
796000,7429,9923,127929,-3123,9537,119427,30,19642,119,1,43118,0.0010000000000000009
797000,9313,9042,126200,-1371,2222,125591,30,19637,123,1,43119,0.0010000000000000009
798000,8523,-169,125495,4347,-2235,126181,39,19635,160,1,43120,0.0010000000000000009
799000,4928,1037,127302,-4913,-3932,128430,52,19637,213,0,43121,0.0010000000000000009
800000,3349,-5833,128564,-5014,-6634,132780,46,19638,188,0,43122,0.0010000000000000009
801001,4849,517,129927,-1340,-2831,130257,39,19638,188,0,43123,0.0010010000000000296
802000,6229,39,127929,-1684,936,125615,28,19638,160,0,43124,0.0009989999999999721
803000,9431,13785,128418,-5461,11742,118287,28,19643,115,0,43125,0.0010000000000000009
804000,10292,6075,126196,2546,1200,126099,29,19645,119,0,43126,0.0010000000000000009
805000,7756,2328,126121,2563,-638,126571,36,19639,147,0,43127,0.0010000000000000009
806003,3124,-4791,126934,-4615,-8601,132738,45,19635,184,0,43128,0.0010029999999999761
807002,2421,-710,129228,-5327,-2583,129367,49,19635,184,0,43129,0.0009990000000000832
808000,6295,1016,129808,-1034,-1343,128423,42,19636,201,1,43130,0.0009979999999999434
809000,9918,5702,128911,-717,5367,124403,42,19640,172,1,43131,0.0010000000000000009
810000,14020,9735,127637,320,6625,122330,32,19639,131,1,43132,0.0010000000000000009
811000,9448,3451,126148,3320,403,125497,37,19640,152,1,43133,0.0010000000000000009
812000,4453,-1579,126456,-1199,-5156,128431,42,19637,172,1,43134,0.0010000000000000009
813000,-294,-4017,128136,-6724,-7218,132359,43,19637,172,1,43135,0.0010000000000000009
814000,3078,-242,129565,-7766,-1890,130073,32,19638,176,1,43136,0.0010000000000000009
815000,6697,6877,130022,-213,4308,125790,32,19641,131,1,43137,0.0010000000000000009
816000,11079,8397,127788,836,6340,122617,28,19639,115,1,43138,0.0010000000000000009
817000,12338,6953,126107,1535,3722,122523,34,19641,139,1,43139,0.0010000000000000009
818001,6223,-943,125414,1812,-3888,127444,45,19634,184,1,43140,0.0010010000000000296
819000,4371,164,127852,-5791,-2917,127842,60,19634,184,0,43141,0.0009989999999999721
820000,-3206,-2883,129126,-7058,-5920,133109,44,19633,246,0,43142,0.0010000000000000009
821001,2988,1426,130285,-7010,-1396,129824,44,19635,180,0,43143,0.0010010000000000296
822000,7333,3062,128780,-1489,837,126968,34,19640,139,0,43144,0.0009989999999999721
823000,13348,10264,127634,3062,8172,120690,28,19639,115,0,43145,0.0010000000000000009
824000,11457,4912,125567,5542,2370,123613,33,19642,135,0,43146,0.0010000000000000009
825000,10724,1140,126047,-2078,-1578,125796,40,19642,164,0,43147,0.0010000000000000009
826000,938,-2048,127194,-3164,-5232,130216,44,19640,164,0,43148,0.0010000000000000009
827000,-992,754,129755,-7991,-2432,131120,42,19638,180,0,43149,0.0010000000000000009
828000,2297,232,129678,-6821,-2770,130551,42,19637,172,0,43150,0.0010000000000000009
829000,7509,6128,129225,-1919,3734,124960,43,19638,176,1,43151,0.0010000000000000009
830000,16666,6560,126808,4631,4551,122869,32,19641,131,1,43152,0.0010000000000000009
831000,13197,4428,125548,7512,2708,122240,37,19641,152,1,43153,0.0010000000000000009
832000,8312,-3427,125214,-2024,-6028,127575,42,19640,152,1,43154,0.0010000000000000009
833001,-2086,231,128175,-5746,-2929,129350,40,19637,172,1,43155,0.0010010000000000296
834002,461,108,129941,-11005,-3058,131998,40,19641,164,1,43156,0.0010009999999999186
835001,2070,6802,130615,-2884,3161,124212,30,19641,123,1,43157,0.0009990000000000832
836000,10660,5997,127990,-1648,4181,124046,28,19641,115,1,43158,0.0009989999999999721
837000,13370,5526,125722,6594,2952,120178,37,19641,152,0,43159,0.0010000000000000009
838001,11974,212,124960,2881,-477,128344,41,19642,152,0,43160,0.0010010000000000296
839000,6961,-1404,126517,-3845,31,126817,49,19640,168,0,43161,0.0009989999999999721
840001,-3079,3929,130255,-6012,-2886,133442,49,19634,201,0,43162,0.0010010000000000296
841000,-1007,-2409,130152,-10088,-2524,131623,41,19639,168,0,43163,0.0009989999999999721
842000,3614,5283,130030,-3370,1641,125874,31,19642,127,0,43164,0.0010000000000000009
843000,15430,2337,126126,1335,3059,122185,29,19641,119,0,43165,0.0010000000000000009
844000,12182,13193,126714,4399,8327,117476,35,19641,119,0,43166,0.0010000000000000009
845000,13322,-4980,124095,-4541,-8974,131170,44,19641,143,0,43167,0.0010000000000000009
846000,948,3071,128466,-4640,1724,127820,44,19638,180,0,43168,0.0010000000000000009
847003,-1372,-2819,129951,-8729,-8087,137895,47,19637,192,0,43169,0.0010029999999999761
848002,-1941,5114,131374,-3901,6049,124745,43,19633,176,0,43170,0.0009989999999999721
849000,8835,755,128426,-1982,-6563,130701,43,19638,176,1,43171,0.0009980000000000544
850000,13696,6775,126315,8678,12063,114384,35,19638,176,1,43172,0.0010000000000000009
851000,15794,7131,125438,-1,-3095,125725,39,19639,143,1,43173,0.0010000000000000009
852000,8118,-4948,124862,-2925,-2651,126800,39,19635,160,1,43174,0.0010000000000000009
853000,-1952,6269,130834,-8934,-2092,132310,41,19636,168,1,43175,0.0010000000000000009
854000,-2988,-9903,128696,-5728,-7418,137564,34,19642,139,1,43176,0.0010000000000000009
855000,1635,15560,132617,-3414,9043,122636,27,19640,111,1,43177,0.0010000000000000009
856002,11981,-8767,124428,2310,-8049,129075,29,19640,111,1,43178,0.0010019999999999474
857000,14212,22472,128234,3282,19853,107486,40,19641,119,0,43179,0.0009980000000000544
858002,13294,-11434,122266,-522,-16641,136364,40,19636,164,0,43180,0.0010019999999999474
859002,2404,9012,128795,-5540,9136,119392,42,19637,172,0,43181,0.0010000000000000009
860001,-3266,-7377,129401,-9924,-14643,143379,44,19637,180,0,43182,0.0009990000000000832
861000,-3539,6502,131787,-4870,7866,124700,34,19641,139,0,43183,0.0009989999999999721
862000,8226,-469,128522,679,-7414,133157,26,19641,139,0,43184,0.0010000000000000009
863000,13632,3088,125340,4304,5560,116779,29,19643,106,0,43185,0.0010000000000000009
864002,18039,15386,126347,262,9847,114853,29,19641,119,0,43186,0.0010019999999999474
865000,7821,-6324,124463,-415,-7112,132537,38,19636,156,0,43187,0.0009980000000000544
866000,418,7623,129993,-8252,3057,126189,45,19637,184,1,43188,0.0010000000000000009
867000,-9265,-11784,128859,-5477,-14484,143857,39,19640,160,1,43189,0.0010000000000000009
868000,4809,15033,132147,-7643,11617,120223,30,19640,160,1,43190,0.0010000000000000009
869000,9813,-7957,125695,8064,-10707,133200,31,19640,123,1,43191,0.0010000000000000009
870000,20387,15790,126958,428,14229,109209,31,19641,127,1,43192,0.0010000000000000009
871000,12287,-3837,123504,2668,-6496,128841,33,19637,135,1,43193,0.0010000000000000009
872000,4602,7869,128227,-5842,5231,124928,41,19639,168,1,43194,0.0010000000000000009
873000,-4374,-6180,128935,-6564,-9216,136796,38,19641,156,1,43195,0.0010000000000000009
874000,-6654,6527,131447,-7736,2590,131147,30,19641,123,1,43196,0.0010000000000000009
875000,8054,500,128191,-1929,-837,128850,31,19640,123,1,43197,0.0010000000000000009
876002,11347,2907,125774,3916,-660,121341,35,19641,127,1,43198,0.0010019999999999474
877000,22561,9151,126178,-4151,8768,115086,35,19640,143,0,43199,0.0009980000000000544
878000,4584,376,125625,8330,-2943,129279,49,19637,201,0,43200,0.0010000000000000009
879000,2430,-2250,127986,-12497,-4172,130834,44,19637,180,0,43201,0.0010000000000000009
880000,-9697,-880,131250,-10422,-6274,134872,38,19637,156,0,43202,0.0010000000000000009
881000,3487,5424,130082,-2891,3807,128684,25,19642,156,0,43203,0.0010000000000000009
882000,5474,-963,125983,6302,-5215,118463,29,19643,102,0,43204,0.0010000000000000009
883000,17681,10987,126845,-10369,9723,120232,29,19642,119,0,43205,0.0010000000000000009
884000,18418,1900,124529,1342,-1349,123195,35,19639,143,0,43206,0.0010000000000000009
885000,502,9272,128982,13340,8872,132576,44,19637,180,0,43207,0.0010000000000000009
886000,1034,-14854,127062,-16201,-13307,136535,45,19637,184,0,43208,0.0010000000000000009
887000,-6113,7589,131444,-6336,6134,125356,40,19634,184,1,43209,0.0010000000000000009
888002,10961,-504,127853,2734,-3470,132041,31,19639,164,1,43210,0.0010019999999999474
889001,11007,15520,127914,-2840,15643,108985,31,19640,127,1,43211,0.0009989999999999721
890002,15633,-1360,125816,-9900,-11795,135040,35,19642,143,1,43212,0.0010010000000000296
891001,7631,1219,126058,9565,5878,120598,39,19640,160,1,43213,0.0009989999999999721
892000,-2940,915,129610,-3909,-12663,139464,39,19639,160,1,43214,0.0009990000000000832
893000,1105,-7096,126742,-12781,2862,124081,32,19639,160,1,43215,0.0009999999999998899
894000,2744,19208,131496,10769,7222,126857,28,19642,131,1,43216,0.0010000000000000009
895000,13784,-3561,124148,-6243,1882,125439,28,19642,115,1,43217,0.0010000000000000009
896002,16461,19630,130307,-7819,8460,113289,34,19639,139,0,43218,0.0010020000000000584
897000,7143,-16098,125773,15124,-15006,139948,40,19639,164,0,43219,0.0009979999999999434
898000,1955,-407,127289,-5537,-6089,125930,46,19637,188,0,43220,0.0010000000000000009
899000,-5527,-10702,129054,-18949,-8250,138427,44,19637,188,0,43221,0.0010000000000000009
900000,3674,19771,130947,4854,17973,118423,33,19639,180,0,43222,0.0010000000000000009
901000,10015,8831,125246,-3564,6169,123306,33,19642,135,0,43223,0.0010000000000000009
902000,12078,11963,129059,28,7004,119942,29,19643,119,0,43224,0.0010000000000000009
903000,15996,-12564,122690,2806,-16101,131552,31,19638,127,0,43225,0.0010000000000000009
904000,3897,746,129017,1652,340,127395,42,19642,172,0,43226,0.0010000000000000009
905001,3240,-572,131516,-4947,-4972,133442,47,19642,172,0,43227,0.0010010000000000296
906000,-4138,-1800,127535,-6397,-3238,131225,45,19636,192,0,43228,0.0009989999999999721
907000,5602,7366,129804,-9379,4639,125086,45,19635,184,1,43229,0.0010000000000000009
908000,8156,9204,126440,3660,7715,120436,37,19640,152,1,43230,0.0010000000000000009
909000,16643,10140,125901,1566,7044,119766,33,19637,135,1,43231,0.0010000000000000009
910000,9241,-1351,127079,-565,-4494,128585,38,19639,156,1,43232,0.0010000000000000009
911000,7076,-5075,127600,975,-8483,132732,43,19639,156,1,43233,0.0010000000000000009
912000,-3206,-6221,128852,-1771,-9295,135261,39,19634,176,1,43234,0.0010000000000000009
913000,2150,6959,130539,-12277,4169,123646,39,19639,160,1,43235,0.0010000000000000009
914001,7101,5783,127313,-1009,2886,125881,30,19642,123,1,43236,0.0010010000000000296
915000,11399,12897,127158,-2124,10573,119662,32,19640,131,1,43237,0.0009989999999999721
916000,8600,2988,125851,1971,254,125173,38,19638,156,1,43238,0.0010000000000000009
917000,6261,646,126599,-2724,-2032,126368,53,19638,156,0,43239,0.0010000000000000009
918000,1339,-5751,128324,-1596,-8727,133268,47,19638,217,0,43240,0.0010000000000000009
919000,4776,-4144,128941,-4515,-7414,133030,38,19635,192,0,43241,0.0010000000000000009
920001,4024,5105,129496,-2856,2498,125823,38,19637,156,0,43242,0.0010010000000000296
921000,10534,8948,127259,-3349,5813,122256,29,19643,119,0,43243,0.0009989999999999721
922000,10094,13034,127540,-905,11594,118254,28,19641,115,0,43244,0.0010000000000000009
923000,9058,-3283,124890,4282,-5945,130736,35,19641,143,0,43245,0.0010000000000000009
924000,2976,1142,127951,-3168,-904,126150,46,19637,143,0,43246,0.0010000000000000009
925000,1846,-7773,127909,-5367,-11310,135072,46,19639,188,0,43247,0.0010000000000000009
926000,4405,6166,130829,-2729,3259,125885,46,19634,188,1,43248,0.0010000000000000009
927000,8509,299,127451,-1310,-2493,129829,40,19640,164,1,43249,0.0010000000000000009
928000,14420,14528,128258,-1713,11615,118175,31,19635,127,1,43250,0.0010000000000000009
929000,11566,2105,125551,3382,1276,127277,35,19635,143,1,43251,0.0010000000000000009
930000,5118,2370,127209,3297,-59,127242,44,19640,143,1,43252,0.0010000000000000009
931000,1094,-8244,127365,-6142,-10419,135436,44,19637,180,1,43253,0.0010000000000000009
932000,-129,-468,129715,-7737,0,128372,44,19635,180,1,43254,0.0010000000000000009
933000,6596,6462,129643,-4503,4829,126146,34,19639,139,1,43255,0.0010000000000000009
934000,9639,9150,128062,1283,6864,122057,28,19641,115,1,43256,0.0010000000000000009
935001,14275,7729,125872,-88,3787,122191,34,19640,139,1,43257,0.0010010000000000296
936000,6712,912,125370,4232,-3230,127308,45,19640,139,1,43258,0.0009989999999999721
937000,6430,380,127771,-3798,-2807,127790,61,19632,184,0,43259,0.0010000000000000009
938000,-4694,-4624,128967,-7536,-8807,134836,61,19635,250,0,43260,0.0010000000000000009
939000,2470,-312,129922,-8124,-747,129429,43,19639,176,0,43261,0.0010000000000000009
940000,5265,3509,129060,-808,1532,126790,34,19638,139,0,43262,0.0010000000000000009
941000,13005,10882,127873,3335,10008,119693,28,19638,115,0,43263,0.0010000000000000009
942000,12714,5306,125584,5627,81,124577,31,19638,115,0,43264,0.0010000000000000009
943000,11414,1926,126348,-3093,-212,125528,42,19637,127,0,43265,0.0010000000000000009
944000,2967,-2677,127115,-1429,-6756,131523,42,19637,172,0,43266,0.0010000000000000009
945000,-1351,1170,129626,-8689,-841,130279,46,19635,188,0,43267,0.0010000000000000009
946000,1011,-325,129604,-7831,-3693,131073,44,19637,180,0,43268,0.0010000000000000009
947000,5903,6329,129433,-1775,5375,124461,43,19637,176,1,43269,0.0010000000000000009
948000,16755,5428,126548,6085,2865,123355,33,19637,176,1,43270,0.0010000000000000009
949000,13550,6902,126251,6670,4181,121401,38,19641,135,1,43271,0.0010000000000000009
950000,10654,-4248,124775,-2333,-7907,129070,38,19639,156,1,43272,0.0010000000000000009
951000,-999,207,127966,-4881,-2105,129138,42,19639,172,1,43273,0.0010000000000000009
952000,-1048,-846,129435,-11613,-4167,133606,39,19638,160,1,43274,0.0010000000000000009
953000,1076,7890,130731,-2826,6175,125608,30,19642,123,1,43275,0.0010000000000000009
954000,9424,5217,127787,-1575,1867,125290,27,19642,111,1,43276,0.0010000000000000009
955002,13992,6148,126086,7374,4422,120411,37,19639,111,0,43277,0.0010019999999999474
956000,11875,1356,125015,2295,-2211,124808,37,19639,152,0,43278,0.0009980000000000544
957000,9069,-1868,126211,-2159,-3953,128153,42,19638,172,0,43279,0.0010000000000000009
958000,-2515,2353,129607,-7627,-1229,130048,47,19635,192,0,43280,0.0010000000000000009
959000,-1481,-636,130211,-9305,-3766,133941,42,19640,172,0,43281,0.0010000000000000009
960000,1922,4915,129820,-3239,1956,127037,29,19640,172,0,43282,0.0010000000000000009
961000,14475,2631,126740,1393,486,125058,29,19642,119,0,43283,0.0010000000000000009
962000,12998,11549,126457,8993,9540,116426,29,19640,119,0,43284,0.0010000000000000009
963001,14026,-1447,124499,-1519,-3945,127256,37,19638,152,0,43285,0.0010010000000000296
964000,2623,124,127492,-4053,-3044,128306,44,19634,180,0,43286,0.0009989999999999721
965002,-1540,-684,130345,-8280,-3699,134088,45,19635,184,0,43287,0.0010019999999999474
966001,-1958,2365,130670,-5671,-1375,131866,39,19635,160,0,43288,0.0009990000000000832
967001,5850,4337,129585,-3363,2547,125983,43,19637,160,1,43289,0.0010000000000000009
968000,14064,1349,125444,2489,-2326,125000,35,19640,176,1,43290,0.0009989999999999721
969000,15477,12206,126687,7386,11813,114675,35,19635,143,1,43291,0.0010000000000000009
970000,10360,-7039,124045,-2162,-10246,131604,39,19641,160,1,43292,0.0010000000000000009
971000,-1405,7819,130561,-7290,5213,123752,41,19638,168,1,43293,0.0010000000000000009
972000,-2343,-10984,128578,-8495,-14535,143231,35,19638,143,1,43294,0.0010000000000000009
973000,269,15645,132771,-1930,11886,122253,27,19643,143,1,43295,0.0010000000000000009
974001,8830,-7104,125473,-2469,-7947,132044,30,19644,111,1,43296,0.0010010000000000296
975000,16243,16917,127662,323,11397,109332,30,19641,123,0,43297,0.0009989999999999721
976001,12325,-3863,123593,6654,-1012,135333,41,19638,168,0,43298,0.0010010000000000296
977003,4757,1989,126798,-845,-4639,121304,43,19636,176,0,43299,0.0010019999999999474
978000,-1957,-707,130284,-17521,390,141260,46,19636,188,0,43300,0.0009970000000000256
979001,-2565,419,130882,-1878,-8834,125713,31,19639,188,0,43301,0.0010010000000000296
980001,5369,6619,129636,1892,-7644,131853,26,19642,127,0,43302,0.0010000000000000009
981000,10992,-4509,125545,-1913,5424,116680,26,19642,106,0,43303,0.0009989999999999721
982000,18678,17963,127522,-3060,5998,119258,31,19639,127,0,43304,0.0010000000000000009
983000,10084,-9771,122636,7332,-5523,130029,37,19640,152,0,43305,0.0010000000000000009
984000,-2415,14705,130509,-9461,5016,126059,46,19634,188,0,43306,0.0010000000000000009
985000,-2767,-17699,126348,-14673,-17375,143192,38,19634,188,1,43307,0.0010000000000000009
986000,5002,20583,133511,4976,20398,116284,30,19640,156,1,43308,0.0010000000000000009
987000,8567,-5660,127036,8798,-14300,137054,30,19642,123,1,43309,0.0010000000000000009
988001,16746,8911,126854,-14817,13523,106571,31,19642,127,1,43310,0.0010009999999999186
989000,11249,-2548,126410,9248,-13499,137593,35,19640,143,1,43311,0.0009990000000000832
990000,2418,-213,125914,-1103,4398,123506,41,19638,168,1,43312,0.0010000000000000009
991001,-20,2613,128205,-15679,-5334,132616,37,19638,168,1,43313,0.0010009999999999186
992000,-6078,7730,131267,1182,10461,127590,29,19641,152,1,43314,0.0009990000000000832
993001,15284,1500,125415,-1372,-6500,129055,29,19643,119,1,43315,0.0010009999999999186
994000,7993,7290,129340,3068,11795,116042,29,19645,119,1,43316,0.0009990000000000832
995000,18846,4188,127727,-6348,-6241,127143,37,19638,152,1,43317,0.0010000000000000009
996000,3520,-12898,123233,6406,-9336,129361,51,19636,209,0,43318,0.0010000000000000009
997000,-5060,5361,130644,-9367,-3576,133333,46,19636,209,0,43319,0.0010000000000000009
998000,1049,-7345,125506,-14494,-4016,130807,41,19635,188,0,43320,0.0010000000000000009
999000,2600,26375,132258,-742,21310,117343,41,19642,168,0,43321,0.0010000000000000009
1000000,14916,-3217,126869,8673,-5740,133637,28,19643,115,0,43322,0.0010000000000000009
1001002,8773,7868,126146,-7289,4786,111753,27,19641,111,0,43323,0.0010019999999999474
1002001,16358,-12449,126245,-1826,-14813,138568,36,19639,147,0,43324,0.0009989999999999721
1003002,-2741,6705,127002,13807,4095,121229,43,19639,147,0,43325,0.0010010000000000296
1004002,2674,-5864,127558,-20875,-9547,138448,46,19638,176,0,43326,0.001000000000000112
1005017,-438,15966,132489,-8451,14130,120999,38,19637,188,1,43327,0.0010149999999999881
1006000,9057,6981,128417,8161,2555,128323,38,19642,156,1,43328,0.0009829999999999561
1007000,9723,-488,125921,-1746,-2614,124447,30,19639,123,1,43329,0.0009999999999998899
1008000,9846,2475,128484,-4344,-507,119403,35,19637,143,1,43330,0.001000000000000112
1009000,12074,-11884,122467,2331,-14827,139083,40,19637,164,1,43331,0.0009999999999998899
1010000,-1973,17447,132343,3123,14991,117211,40,19637,164,1,43332,0.001000000000000112
1011000,3595,-5141,127739,-17508,-8294,138817,33,19638,164,1,43333,0.0009999999999998899
1012000,3429,15061,130551,-387,12473,117256,33,19643,135,1,43334,0.001000000000000112
1013000,6004,-5995,126140,10412,-8039,134015,28,19644,115,1,43335,0.0009999999999998899
1014000,12793,8822,126842,-7958,6195,117952,33,19637,135,0,43336,0.001000000000000112
1015000,12493,-3204,126574,-11281,-4807,125592,40,19637,164,0,43337,0.0009999999999998899
1016000,5733,4501,129530,14837,1440,131587,46,19637,164,0,43338,0.001000000000000112
1017000,-190,-8367,127280,-7759,-10727,130382,44,19637,188,0,43339,0.0009999999999998899
1018001,-5051,3664,129798,-9344,-1851,133980,44,19639,180,0,43340,0.0010010000000000296
1019000,10487,9491,126684,-5148,6816,119512,33,19642,135,0,43341,0.0009989999999999721
1020000,8650,15360,128600,1826,12005,119902,27,19644,111,0,43342,0.001000000000000112
1021001,17787,2288,126750,872,3931,124803,33,19644,135,0,43343,0.0010010000000000296
1022000,3461,-11224,125322,934,-14568,131174,42,19639,135,0,43344,0.0009989999999999721
1023000,5741,-1042,130737,-2933,-4968,131007,47,19640,172,0,43345,0.0009999999999998899
1024000,-1387,-1658,128462,194,-4711,131246,47,19635,192,0,43346,0.001000000000000112
1025000,4156,8883,129301,-8406,4465,122559,44,19637,180,1,43347,0.0009999999999998899
1026000,6350,9960,127804,-5187,7090,122016,35,19639,143,1,43348,0.001000000000000112
1027000,13559,9860,124949,-829,5608,121177,34,19642,139,1,43349,0.0009999999999998899
1028000,8108,1424,127441,4301,-4841,128045,39,19642,139,1,43350,0.001000000000000112
1029000,7085,-8816,126415,-556,-12345,133074,47,19635,160,1,43351,0.0009999999999998899
1030000,1937,-5650,128962,-1600,-6456,133846,47,19637,192,1,43352,0.001000000000000112
1031002,3557,6383,131124,-2894,5704,125738,38,19638,156,1,43353,0.0010019999999999474
1032002,6275,7212,127276,-3777,5563,121704,28,19640,115,1,43354,0.0009999999999998899
1033002,8459,12147,126876,-6031,8825,121287,32,19640,131,1,43355,0.001000000000000112
1034000,9585,2076,125597,3459,-2434,126313,40,19640,131,1,43356,0.0009980000000000544
1035001,6659,255,126145,501,-1594,127002,50,19634,164,0,43357,0.0010010000000000296
1036000,2320,-3237,128128,-6007,-8478,132877,50,19638,205,0,43358,0.0009989999999999721
1037000,4321,-2056,129610,-3733,-3463,130224,44,19635,180,0,43359,0.0009999999999998899
1038000,5777,-603,128767,279,-2981,129808,37,19640,152,0,43360,0.001000000000000112
1039000,8593,9785,128100,-3200,9479,119319,27,19643,111,0,43361,0.0009999999999998899
1040000,11028,11997,127234,-3139,7576,121450,30,19643,111,0,43362,0.001000000000000112
1041000,8612,2075,125993,4922,-493,127065,38,19643,123,0,43363,0.0009999999999998899
1042000,4211,-2607,126733,-1620,-7056,130935,38,19636,156,0,43364,0.001000000000000112
1043001,1461,-4719,128435,-6602,-6139,131507,46,19636,188,0,43365,0.0010009999999998076
1044000,4095,1936,129850,-4131,-739,128289,47,19634,192,1,43366,0.0009990000000001942
1045000,7994,4269,129008,451,2724,126572,38,19641,156,1,43367,0.0009999999999998899
1046000,14397,11252,128055,-946,8718,120512,31,19641,156,1,43368,0.001000000000000112
1047002,11089,4299,126021,3040,1245,125599,37,19638,127,1,43369,0.0010019999999999474
1048000,6599,-661,125986,2056,-3671,126666,37,19640,152,1,43370,0.0009980000000000544
1049000,1222,-3640,127986,-4890,-6846,131191,44,19637,180,1,43371,0.0009999999999998899
1050000,-754,-2092,128869,-8537,-5123,132741,43,19635,176,1,43372,0.001000000000000112
1051000,5929,6918,130720,-4880,4427,125725,34,19639,139,1,43373,0.0009999999999998899
1052000,9532,7279,128179,1382,4561,125176,29,19639,139,1,43374,0.001000000000000112
1053000,12550,8796,126600,1801,6380,120988,34,19643,119,1,43375,0.0009999999999998899
1054000,8875,339,125308,3019,-2393,125983,34,19640,139,1,43376,0.001000000000000112
1055000,6674,-88,127404,-3887,-2803,127484,46,19632,188,0,43377,0.0009999999999998899
1056000,-3285,-2927,128437,-5369,-6007,131864,58,19634,238,0,43378,0.001000000000000112
1057000,1684,756,130199,-9700,-2645,131207,42,19639,172,0,43379,0.0009999999999998899
1058000,5633,1228,129102,-4551,-1404,128540,34,19639,139,0,43380,0.001000000000000112
1059000,10923,8404,128036,2603,6030,122968,27,19640,139,0,43381,0.0009999999999998899
1060000,14811,7029,125813,4198,5149,121769,34,19640,111,0,43382,0.001000000000000112
1061003,9986,2858,126086,2941,751,124896,34,19637,139,0,43383,0.0010029999999998651
1062000,4824,-1711,126484,-3749,-4481,128525,39,19638,160,0,43384,0.0009970000000001367
1063000,-1444,-237,129124,-6139,-3539,131230,45,19636,184,0,43385,0.0009999999999998899
1064000,1386,-2,129949,-8213,-2946,131199,43,19636,176,0,43386,0.001000000000000112
1065000,3991,4515,129729,-2296,1050,127261,40,19633,176,1,43387,0.0009999999999998899
1066000,16252,6896,127184,-1583,4110,123569,34,19639,164,1,43388,0.001000000000000112
1067000,13400,7033,126265,10365,5483,121451,34,19639,139,1,43389,0.0009999999999998899
1068000,11051,-1842,124830,1152,-3311,125780,40,19637,164,1,43390,0.001000000000000112
1069000,792,-1358,127079,-4249,-5009,129607,43,19637,176,1,43391,0.0009999999999998899
1070000,-2035,517,129771,-9464,-2838,133313,39,19637,160,1,43392,0.001000000000000112
1071000,2203,3757,130248,-6619,-783,126493,29,19640,160,1,43393,0.0009999999999998899
1072000,7532,7830,129129,-1521,5577,124446,29,19641,119,1,43394,0.0009999999999998899
1073000,13505,4741,125923,2570,2102,120960,29,19640,119,0,43395,0.001000000000000112
1074003,10614,4856,125348,6869,-735,124003,36,19639,147,0,43396,0.0010030000000000872
1075002,11291,-4687,125062,-3562,-5714,129202,43,19634,176,0,43397,0.0009989999999999721
1076002,-1892,4842,129544,-3076,1301,128866,48,19635,197,0,43398,0.0009999999999998899
1077000,-1142,-2771,129927,-10195,-6043,135169,42,19635,197,0,43399,0.0009980000000000544
1078000,1441,3796,130267,-3221,2811,126090,28,19639,172,0,43400,0.0009999999999998899
1079001,12664,2538,127328,2332,-364,126010,28,19641,115,0,43401,0.0010010000000000296
1080002,13114,10715,126325,8939,11136,115287,30,19640,123,0,43402,0.0010010000000000296
1081000,13666,1735,124838,-3908,-5895,128425,35,19638,143,0,43403,0.0009980000000000544
1082000,4715,-2171,126682,-3442,-1871,127821,45,19638,184,0,43404,0.0009999999999998899
1083000,-1823,1579,130141,-7521,-4391,134428,43,19638,184,0,43405,0.001000000000000112
1084000,-1454,-1144,130346,-6039,-646,131154,42,19636,176,0,43406,0.0009999999999998899
1085000,3814,7705,130825,-3859,1644,126155,42,19637,172,1,43407,0.001000000000000112
1086000,13642,-3289,125042,5196,-1430,124737,45,19638,184,1,43408,0.0009999999999998899
1087000,14819,16060,127442,4822,11138,115149,34,19636,139,1,43409,0.001000000000000112
1088000,12266,-8626,123402,-2972,-10594,131463,40,19636,164,1,43410,0.0009999999999998899
1089001,-407,8382,130022,-5830,5747,124164,41,19636,164,1,43411,0.0010010000000000296
1090002,-1880,-10923,128514,-8856,-15129,143616,33,19639,168,1,43412,0.0010010000000000296
1091002,-1905,13773,132987,-3426,13219,121038,33,19641,135,1,43413,0.001000000000000112
1092000,9526,-5097,126408,-1479,-10219,133516,28,19641,115,1,43414,0.0009979999999998324
1093000,13782,14517,127125,4935,15651,109793,32,19639,131,1,43415,0.001000000000000112
1094000,14914,1729,124321,716,-4260,127069,42,19640,172,0,43416,0.0009999999999998899
1095000,6742,-2989,125177,-2425,-3101,126910,44,19640,172,0,43417,0.001000000000000112
1096001,-1861,5025,130993,-10755,-160,130477,43,19635,180,0,43418,0.0010010000000000296
1097000,-5376,-7948,129120,-5547,-10054,139675,43,19638,176,0,43419,0.0009989999999999721
1098000,3857,12958,131604,-3537,9159,121627,33,19641,135,0,43420,0.0009999999999998899
1099001,12143,-9890,124462,4638,-12056,133114,26,19640,106,0,43421,0.0010010000000000296
1100000,17950,23101,127341,915,21366,103804,30,19641,123,0,43422,0.0009989999999999721
1101000,11417,-9017,122994,2275,-11679,134740,39,19641,160,0,43423,0.001000000000000112
1102000,3150,10797,129341,-6748,7951,121369,46,19636,160,0,43424,0.0009999999999998899
1103000,-6621,-12242,128600,-5108,-15222,142325,33,19639,188,1,43425,0.001000000000000112
1104000,-491,11401,132155,-8340,7293,126712,33,19639,135,1,43426,0.0009999999999998899
1105001,9889,-2786,127485,1810,-3829,129570,33,19640,135,1,43427,0.0010010000000000296
1106001,15886,7003,126250,6046,2884,119067,30,19640,123,1,43428,0.001000000000000112
1107000,19313,4918,124787,-664,5742,117334,38,19640,156,1,43429,0.0009989999999999721
1108000,5250,617,126441,1025,-4242,130016,42,19640,156,1,43430,0.0009999999999998899
1109000,681,1706,129550,-9508,1495,128861,37,19639,172,1,43431,0.001000000000000112
1110000,-10606,-2753,129954,-4809,-8949,138712,37,19643,152,1,43432,0.0009999999999998899
1111000,6249,9525,130851,-8855,8997,124077,30,19642,123,1,43433,0.001000000000000112
1112000,7120,-5354,125069,6525,-9444,130951,30,19640,123,1,43434,0.0009999999999998899
1113002,22022,15503,127702,-5236,13464,109592,37,19640,152,1,43435,0.0010020000000001694
1114000,11894,-3948,124086,5473,-5474,129731,50,19639,152,0,43436,0.0009979999999998324
1115000,934,6275,128624,738,4110,124618,45,19638,205,0,43437,0.001000000000000112
1116000,-3854,-9151,129490,-16691,-13157,134968,45,19635,184,0,43438,0.0009999999999998899
1117000,-4132,11198,132110,-6716,6230,127283,37,19639,152,0,43439,0.001000000000000112
1118001,6333,-4092,126662,7236,-4466,130175,26,19643,106,0,43440,0.0010010000000000296
1119000,11198,9263,126492,-3662,3488,112463,28,19641,115,0,43441,0.0009989999999999721
1120000,22121,3174,125472,-10875,-74,127285,34,19641,115,0,43442,0.0009999999999998899
1121000,5240,10024,127497,15701,7042,123663,44,19639,139,0,43443,0.001000000000000112
1122000,1101,-7128,128143,-3468,-15432,139899,44,19635,180,0,43444,0.0009999999999998899
1123000,-5741,-2902,129911,-16715,-511,127691,48,19635,197,1,43445,0.001000000000000112
1124000,4336,5224,129565,680,-1064,131164,39,19641,160,1,43446,0.0009999999999998899
1125000,12197,5813,126477,970,9896,116621,31,19641,127,1,43447,0.001000000000000112
1126000,13050,12549,128393,-10943,2962,121316,35,19641,127,1,43448,0.0009999999999998899
1127000,14107,-8066,123606,2233,-6360,131094,38,19641,143,1,43449,0.001000000000000112
1128000,-1744,5689,128867,9567,-750,126006,38,19641,156,1,43450,0.0009999999999998899
1129000,-1013,-9394,127524,-19334,-9928,137414,40,19639,164,1,43451,0.001000000000000112
1130000,3159,13526,130885,1379,11682,120502,32,19641,131,1,43452,0.0009999999999998899
1131000,7911,4905,127761,5615,3306,129664,28,19643,115,1,43453,0.001000000000000112
1132000,18521,11059,127245,-13982,6833,115400,33,19643,115,1,43454,0.0009999999999998899
1133001,9591,-6889,126574,8986,-9340,129046,38,19637,135,0,43455,0.0010010000000000296
1134000,6253,-3946,127202,4929,-8549,132804,38,19638,156,0,43456,0.0009989999999999721
1135000,-3512,-7700,127346,-17539,-8393,131429,46,19637,188,0,43457,0.001000000000000112
1136000,-400,17149,132592,-4468,14618,125152,43,19639,176,0,43458,0.0009999999999998899
1137000,7193,6635,126250,631,3193,126219,30,19644,123,0,43459,0.001000000000000112
1138001,8324,9120,127269,301,6703,118166,28,19644,123,0,43460,0.0010010000000000296
1139002,16571,-4530,125568,-1617,-8050,129806,34,19641,115,0,43461,0.0010009999999998076
1140006,9837,-1981,125813,4251,-3116,123721,44,19644,139,0,43462,0.0010040000000000049
1141006,4380,3627,131995,569,67,132638,44,19637,180,0,43463,0.001000000000000112
1142000,-2062,-6342,127511,-8909,-9457,135169,49,19637,201,0,43464,0.0009939999999999394
1143000,-679,7273,129817,-8919,4578,123973,46,19637,188,1,43465,0.001000000000000112
1144000,7986,6597,127535,-1203,3919,126468,33,19637,135,1,43466,0.0009999999999998899
1145000,12513,11349,125466,3827,9086,116788,33,19638,135,1,43467,0.001000000000000112
1146000,14599,1644,127089,-2314,-786,126801,42,19638,135,1,43468,0.0009999999999998899
1147000,6530,-2905,126924,1631,-5697,130615,42,19636,172,1,43469,0.001000000000000112
1148000,1342,-5793,128389,3014,-8835,132520,45,19638,184,1,43470,0.0009999999999998899
1149000,-1030,692,130161,-12618,-3106,131508,38,19641,156,1,43471,0.001000000000000112
1150000,6450,5470,128367,-4361,2896,124041,28,19641,115,1,43472,0.0009999999999998899
1151000,8690,11350,127943,-447,8692,122719,30,19640,115,1,43473,0.001000000000000112
1152000,11079,7819,126121,-286,6370,121599,42,19637,123,1,43474,0.0009999999999998899
1153000,6459,-346,125599,-739,-2793,126177,42,19638,172,0,43475,0.001000000000000112
1154000,3411,-1653,127969,-2711,-4608,129789,47,19638,192,0,43476,0.0009999999999998899
1155000,3386,-6332,128717,-1687,-9683,134942,46,19636,188,0,43477,0.001000000000000112
1156000,3714,3318,130269,-5091,-195,127851,36,19636,147,0,43478,0.0009999999999998899
1157000,7670,5742,127854,-2873,2147,125230,27,19643,147,0,43479,0.001000000000000112
1158000,10961,12776,127749,-2009,10644,118640,32,19642,111,0,43480,0.0009999999999998899
1159000,9773,836,125061,3432,-346,127246,32,19639,131,0,43481,0.001000000000000112
1160001,6052,3577,127381,-120,855,124942,37,19636,152,0,43482,0.0010009999999998076
1161000,1925,-6600,127644,-5067,-8472,133060,48,19635,197,0,43483,0.0009990000000001942
1162000,2895,1570,130224,-2669,-3198,130197,45,19636,184,0,43484,0.0009999999999998899
1163000,6561,281,128559,-2585,-1689,129306,37,19636,184,1,43485,0.001000000000000112
1164000,12787,11290,128501,-1250,5303,118412,31,19641,152,1,43486,0.0009999999999998899
1165002,12981,7094,126278,1241,7813,126074,31,19639,127,1,43487,0.0010019999999999474
1166000,6926,2685,126277,5204,-650,125234,38,19638,156,1,43488,0.0009980000000000544
1167000,3077,-3744,127016,-4067,-9499,132620,43,19634,176,1,43489,0.001000000000000112
1168002,-1492,-4129,129082,-6430,-4527,131853,41,19640,168,1,43490,0.0010019999999999474
1169000,5538,4056,130033,-6739,2255,126870,32,19640,168,1,43491,0.0009980000000000544
1170000,7543,7561,128975,-55,5716,124670,28,19641,131,1,43492,0.0009999999999998899
1171000,13340,8512,126470,-121,5725,121341,28,19639,115,1,43493,0.001000000000000112
1172000,9986,4157,125678,4116,107,125070,34,19641,139,1,43494,0.0009999999999998899
1173000,7255,-290,126636,-4562,-2587,126779,48,19635,197,1,43495,0.001000000000000112
1174000,-1333,-2466,128713,-5549,-6653,132214,61,19638,250,0,43496,0.0009999999999998899
1175000,998,-3837,129471,-9527,-5615,132765,45,19638,250,0,43497,0.001000000000000112
1176000,4333,3329,129988,-4360,979,127470,32,19639,184,0,43498,0.0009999999999998899
1177000,9872,7164,127693,2340,6408,122793,32,19641,131,0,43499,0.001000000000000112
1178000,15021,9133,126325,5026,5408,121463,29,19639,119,0,43500,0.0009999999999998899
1179000,10609,1503,125372,1193,-833,125384,34,19639,139,0,43501,0.001000000000000112
1180000,7483,383,126851,-2443,-3110,128021,42,19636,172,0,43502,0.0009999999999998899
1181000,-1810,-1684,128605,-5690,-4148,131542,46,19636,172,0,43503,0.001000000000000112
1182000,-40,652,130240,-9572,-2989,130961,43,19635,188,0,43504,0.0009999999999998899
1183000,2559,2529,129342,-3117,682,127917,43,19637,176,1,43505,0.001000000000000112
1184001,14255,7519,127847,595,4558,122962,43,19639,176,1,43506,0.0010009999999998076
1185000,14588,6794,126145,10137,4860,121306,32,19640,131,1,43507,0.0009990000000001942
1186000,13007,112,125161,-65,-3153,125394,39,19638,160,1,43508,0.0009999999999998899
1187000,2426,-2535,126541,-2813,-5198,129356,43,19638,160,1,43509,0.001000000000000112
1188000,-2798,311,129714,-10236,-3121,132057,36,19637,176,1,43510,0.0009999999999998899
1189000,1027,2964,130184,-7144,417,130482,36,19638,147,1,43511,0.001000000000000112
1190000,5401,8377,129356,-1959,5345,124407,29,19640,119,1,43512,0.0009999999999998899
1191000,13564,4243,126320,3584,1879,123483,29,19640,119,1,43513,0.0009999999999998899
1192000,12082,5557,125490,6279,3148,120456,36,19642,147,0,43514,0.001000000000000112
1193000,12391,-3578,125018,-2657,-6623,128726,44,19642,180,0,43515,0.0009999999999998899
1194001,-171,3114,128875,-4041,143,127331,48,19635,180,0,43516,0.0010010000000000296
1195000,-1719,-2133,129933,-10594,-5243,134982,38,19637,197,0,43517,0.0009989999999999721
1196000,-569,3317,130454,-5612,50,129508,38,19638,156,0,43518,0.001000000000000112
1197000,10924,2929,127870,-1137,496,126676,28,19641,115,0,43519,0.0009999999999998899
1198000,14022,8549,126015,8092,5769,119449,27,19641,111,0,43520,0.001000000000000112
1199000,14307,4901,125146,2166,4263,120670,36,19641,147,0,43521,0.0009999999999998899
1200000,6706,-2927,126017,-3316,-6426,129718,43,19636,147,0,43522,0.001000000000000112
1201000,-1617,2225,130265,-5923,-34,129883,44,19636,176,0,43523,0.0009999999999998899
1202000,-2152,-2987,130086,-8666,-7328,136712,44,19638,180,0,43524,0.001000000000000112
1203000,1948,8435,131322,-4353,6312,124889,40,19635,164,1,43525,0.0009999999999998899
1204000,12729,-4068,125313,-34,-6901,130025,45,19642,184,1,43526,0.001000000000000112
1205000,15564,16396,127562,7536,13956,112814,34,19642,139,1,43527,0.0009999999999998899
1206000,13985,-6433,123561,-537,-6427,128321,41,19636,139,1,43528,0.001000000000000112
1207000,1636,6200,128869,-2769,854,125160,40,19637,168,1,43529,0.0009999999999998899
1208000,-2529,-8570,128734,-9861,-7682,136843,40,19638,164,1,43530,0.001000000000000112
1209004,-2325,9159,132316,-5293,-1103,121021,34,19638,139,1,43531,0.0010040000000000049
1210000,7588,-323,127795,-3253,3720,133443,27,19643,111,1,43532,0.0009959999999999969
1211000,13501,8506,126222,3291,-2552,108959,33,19638,135,1,43533,0.0009999999999998899
1212000,15350,8551,125707,2487,15097,128631,43,19638,135,0,43534,0.001000000000000112
1213000,8941,-6264,123940,19,-14444,125202,43,19637,176,0,43535,0.0009999999999998899
1214000,-1084,8258,130779,-6955,-3138,132922,43,19636,176,0,43536,0.001000000000000112
1215000,-5726,-11798,128621,-8295,-7862,137694,43,19638,176,0,43537,0.0009999999999998899
1216000,2437,14907,132218,-5773,6906,123356,30,19640,123,0,43538,0.001000000000000112
1217000,10329,-9972,125113,1737,-9422,131101,27,19642,111,0,43539,0.0009999999999998899
1218000,17850,20407,126933,2285,19761,105142,31,19642,111,0,43540,0.001000000000000112
1219000,11819,-3901,123567,2484,-10478,134119,40,19639,127,0,43541,0.0009999999999998899
1220000,5876,6312,127916,-9353,6525,122272,40,19638,164,0,43542,0.001000000000000112
1221000,-5866,-6298,129348,-2500,-13996,142054,46,19635,188,1,43543,0.0009999999999998899
1222000,-2635,3660,130961,-8674,6343,127216,35,19635,143,1,43544,0.001000000000000112
1223000,8265,2836,128768,2071,-4179,128557,32,19640,131,1,43545,0.0009999999999998899
1224001,12473,4274,127057,2948,6793,118580,31,19640,131,1,43546,0.0010010000000000296
1225000,24506,4959,124432,-268,-956,120827,38,19643,127,1,43547,0.0009989999999999721
1226000,650,3129,127141,8015,3709,124757,38,19641,156,1,43548,0.001000000000000112
1227000,5724,-3021,127452,-19660,-9987,136346,43,19639,176,1,43549,0.0009999999999998899
1228001,-11236,1233,131089,-2048,2622,129404,35,19643,143,1,43550,0.0010010000000000296
1229000,5360,9769,131994,-3569,3844,131494,29,19642,119,1,43551,0.0009989999999999721
1230002,4923,-6189,123974,3828,-6398,124601,30,19642,119,1,43552,0.0010020000000001694
1231000,18220,15178,129621,-10524,11798,113480,38,19639,123,1,43553,0.0009979999999998324
1232000,18043,-8696,122915,10472,-9880,131892,38,19639,156,0,43554,0.001000000000000112
1233000,-1545,14505,129492,2175,11451,118269,48,19639,197,0,43555,0.0009999999999998899
1234000,2224,-14866,127909,-22329,-18800,146556,43,19641,176,0,43556,0.001000000000000112
1235000,-10387,13538,132056,-900,11087,118507,36,19642,147,0,43557,0.0009999999999998899
1236000,11174,-4338,127996,1486,-7525,139768,27,19642,111,0,43558,0.001000000000000112
1237000,4731,12321,127384,300,10217,111311,28,19645,111,0,43559,0.0009999999999998899
1238001,22958,-3032,124099,-11524,-5171,126658,36,19641,115,0,43560,0.0010010000000000296
1239002,7110,6893,126593,17771,4105,123726,36,19639,147,0,43561,0.0010010000000000296
1240002,2421,-366,127904,-7017,-2400,129938,44,19636,180,0,43562,0.001000000000000112
1241002,-1220,-3814,129476,-16499,-8963,137747,45,19633,184,1,43563,0.0009999999999998899
1242002,-3450,12916,132662,4577,11409,119473,35,19633,143,1,43564,0.001000000000000112
1243000,13067,-10516,124139,-3267,-14692,140603,30,19640,143,1,43565,0.0009979999999998324
1244001,7321,20251,130286,-815,18938,104305,37,19641,123,1,43566,0.0010010000000000296
1245000,18638,-14281,121787,-4383,-16559,139594,37,19638,152,1,43567,0.0009989999999999721
1246000,1390,18585,129799,6629,14316,113734,42,19636,172,1,43568,0.001000000000000112
1247000,3759,-12911,127454,-8034,-12483,141875,40,19638,164,1,43569,0.0009999999999998899
1248000,1396,14181,130566,-1869,6756,123056,31,19638,127,1,43570,0.001000000000000112
1249001,1646,-1900,127581,4565,483,128210,29,19642,127,1,43571,0.0010010000000000296
1250000,18547,7800,127597,-17164,287,125544,33,19641,119,1,43572,0.0009989999999999721
1251000,7894,1212,126674,9525,5514,116592,33,19639,135,0,43573,0.0009999999999998899
1252000,10638,-3751,126769,4161,-10118,136738,40,19639,164,0,43574,0.001000000000000112
1253000,-3573,-737,127896,-12293,-149,122823,46,19636,188,0,43575,0.0009999999999998899
1254000,757,1770,129538,-2647,-5132,137771,44,19635,180,0,43576,0.001000000000000112
1255000,5326,10303,127639,-2698,8803,121108,30,19635,180,0,43577,0.0009999999999998899
1256000,9399,10699,129536,-5318,6975,125216,26,19643,123,0,43578,0.001000000000000112
1257000,14316,-3219,124798,6894,-862,127290,26,19642,106,0,43579,0.0009999999999998899
1258000,9310,-1155,126552,-1819,-7879,123535,33,19639,135,0,43580,0.001000000000000112
1259000,5005,1220,130051,-761,994,135844,43,19638,176,0,43581,0.0009999999999998899
1260000,1314,-1409,128385,-662,-5522,127376,47,19635,192,0,43582,0.001000000000000112
1261000,-1509,3652,130136,-8295,875,130537,44,19635,192,0,43583,0.0009999999999998899
1262000,10505,6458,128286,-7480,5525,121640,34,19637,180,1,43584,0.001000000000000112
1263000,7055,9947,125506,5098,6295,121277,34,19641,139,1,43585,0.0009999999999998899
1264000,17669,3193,127331,-899,-429,125405,34,19643,139,1,43586,0.001000000000000112
1265003,4935,-1559,126080,1409,-5882,129774,41,19635,168,1,43587,0.0010029999999998651
1266000,5567,-5147,128869,1714,-7592,134799,45,19638,184,1,43588,0.0009970000000001367
1267000,-585,-146,129470,-11958,-1703,127593,36,19638,184,1,43589,0.0009999999999998899
1268000,1324,5918,129449,-2477,2947,126386,30,19642,147,1,43590,0.001000000000000112
1269000,6792,9354,127726,-2218,7819,121690,30,19643,123,1,43591,0.0009999999999998899
1270000,9273,7751,126128,369,3897,122826,28,19639,115,1,43592,0.001000000000000112
1271000,9826,1035,125580,292,-1295,126783,43,19635,176,0,43593,0.0009999999999998899
1272000,6706,773,127630,-3109,-3748,127706,46,19637,188,0,43594,0.001000000000000112
1273000,3107,-7302,128845,-2017,-9775,135583,46,19637,188,0,43595,0.0009999999999998899
1274000,4982,787,130235,-4004,-1309,127702,35,19635,188,0,43596,0.001000000000000112
1275000,2906,3811,128042,-3915,1722,125931,35,19640,143,0,43597,0.0009999999999998899
1276000,9692,13938,128343,-2184,11802,118208,28,19643,115,0,43598,0.001000000000000112
1277000,9863,2949,124972,3910,-674,127422,31,19639,127,0,43599,0.0009999999999998899
1278000,9230,2516,126725,-56,199,125392,37,19638,152,0,43600,0.001000000000000112
1279000,4929,-4255,127406,-5129,-7827,132058,45,19638,152,0,43601,0.0009999999999998899
1280000,2655,-1240,129567,-2135,-3564,130306,46,19634,184,0,43602,0.001000000000000112
1281000,4755,2406,129579,-3081,-556,127989,35,19637,188,1,43603,0.0009999999999998899
1282000,7174,6122,128442,-2210,4125,125080,35,19639,143,1,43604,0.001000000000000112
1283000,13685,10418,127096,1261,8252,120502,33,19639,135,1,43605,0.0009999999999998899
1284000,10844,916,125734,5548,-1714,126870,38,19639,156,1,43606,0.001000000000000112
1285001,6261,-965,126771,-4065,-3421,127044,45,19639,184,1,43607,0.0010009999999998076
1286000,2408,-6114,128186,-6245,-9488,134210,41,19638,184,1,43608,0.0009990000000001942
1287000,402,4750,130294,-6224,1523,127680,32,19638,168,1,43609,0.0009999999999998899
1288000,6438,6479,129419,-924,3795,126731,32,19643,131,1,43610,0.001000000000000112
1289000,8109,8047,126979,-134,5403,122813,30,19644,123,1,43611,0.0009999999999998899
1290000,13239,4731,125877,2079,2696,122764,34,19639,139,1,43612,0.001000000000000112
1291000,7183,-161,125978,1127,-2987,127407,48,19639,197,1,43613,0.0009999999999998899
1292002,6855,241,128562,-5129,-2222,127182,62,19632,197,0,43614,0.0010019999999999474
1293000,-3203,-4343,129097,-7633,-7767,134546,44,19633,254,0,43615,0.0009980000000000544
1294000,1761,3111,130404,-7343,-322,128793,44,19637,180,0,43616,0.001000000000000112
1295000,5489,4911,128088,-3,2191,126393,32,19644,131,0,43617,0.0009999999999998899
1296000,10484,9674,126980,3179,7267,120874,29,19643,119,0,43618,0.001000000000000112
1297000,14125,2949,125392,3185,1590,123230,32,19634,131,0,43619,0.0009999999999998899
1298001,10191,883,126374,-475,-1788,127033,40,19634,131,0,43620,0.0010010000000000296
1299000,4680,-956,128151,-3431,-3864,129186,47,19633,164,0,43621,0.0009989999999999721
1300000,-2056,6,130106,-8869,-3444,132008,47,19635,192,0,43622,0.001000000000000112
1301000,1045,1787,129752,-8244,-1864,129282,45,19636,184,1,43623,0.0009999999999998899
1302000,5543,5323,128383,973,2675,126177,43,19640,176,1,43624,0.001000000000000112
1303000,14742,6543,126279,4953,4226,119895,34,19637,139,1,43625,0.0009999999999998899
1304002,14470,3158,125442,3157,2749,125638,39,19637,139,1,43626,0.0010019999999999474
1305002,9558,-1552,125971,242,-4478,128644,43,19633,160,1,43627,0.001000000000000112
1306005,1600,-499,128578,-4049,-3555,132252,43,19635,176,1,43628,0.0010029999999998651
1307000,-2442,2100,130657,-13095,-2471,129797,37,19638,152,1,43629,0.0009950000000000792
1308000,4637,6663,130208,-2434,2678,126005,28,19642,115,1,43630,0.001000000000000112
1309000,7240,2126,126932,3855,-241,124316,31,19642,127,1,43631,0.0009999999999998899
1310002,13045,5600,125872,480,2974,119978,39,19642,127,0,43632,0.0010019999999999474
1311000,9748,-233,124651,866,-4112,128563,45,19638,160,0,43633,0.0009980000000000544
1312000,6785,4271,127324,-5309,2981,125816,45,19634,184,0,43634,0.0009999999999998899
1313000,-1177,1936,129790,-11371,-2813,132788,48,19635,197,0,43635,0.001000000000000112
1314000,-505,2368,130921,-4147,349,129921,37,19639,152,0,43636,0.0009999999999998899
1315000,7794,-955,128519,5428,-4288,128547,27,19641,111,0,43637,0.001000000000000112
1316000,11510,3015,127332,552,2507,121077,29,19641,111,0,43638,0.0009999999999998899
1317001,15434,4489,125817,4840,417,122954,37,19641,119,0,43639,0.0010010000000000296
1318000,6279,464,125347,-2518,-1301,128180,37,19637,152,0,43640,0.0009989999999999721
1319000,2964,4920,128135,-12514,1403,128750,45,19637,184,0,43641,0.001000000000000112
1320000,-3516,4692,130844,-7984,2273,130801,43,19636,176,0,43642,0.0009999999999998899
1321000,3721,5170,130913,-797,1500,128091,40,19637,164,0,43643,0.001000000000000112
1322000,8424,-6357,127205,5029,-8789,129734,45,19637,164,1,43644,0.0009999999999998899
1323000,12888,5514,126872,6320,4041,119234,37,19638,184,1,43645,0.001000000000000112
1324000,14530,-571,124358,-3667,-2867,125597,37,19637,152,1,43646,0.0009999999999998899
1325000,8276,7419,127686,-3694,4963,124923,42,19638,172,1,43647,0.001000000000000112
1326000,-811,-642,129245,-9706,-4629,135402,41,19641,168,1,43648,0.0009999999999998899
1327000,-2562,1733,130506,-6626,-717,130251,31,19640,127,1,43649,0.001000000000000112
1328000,345,3977,129839,-168,962,128305,29,19640,119,1,43650,0.0009999999999998899
1329000,11000,-879,124893,3607,-3257,123580,33,19641,119,1,43651,0.001000000000000112
1330001,14222,16201,127616,3996,14274,113512,42,19637,135,0,43652,0.0010010000000000296
1331000,14424,-8651,122201,-3053,-12499,133576,42,19636,172,0,43653,0.0009989999999999721
1332000,5078,11384,130506,-4738,8418,120706,43,19633,176,0,43654,0.0009999999999998899
1333000,-3165,-13602,128760,-10621,-16834,144692,43,19638,176,0,43655,0.001000000000000112
1334000,-2672,12974,132513,-4727,9102,121450,30,19638,123,0,43656,0.0009999999999998899
1335000,4132,-6721,126521,3164,-7987,134552,27,19642,123,0,43657,0.001000000000000112
1336000,12832,14863,126074,2225,10135,113028,31,19642,111,0,43658,0.0009999999999998899
1337002,16235,3595,123986,-618,4961,119126,31,19640,127,0,43659,0.0010020000000001694
1338000,11536,1863,126039,1488,-3789,130528,40,19637,164,0,43660,0.0009979999999998324
1339000,1414,-118,129553,-7419,509,127285,45,19638,184,1,43661,0.001000000000000112
1340000,-3865,-4474,130902,-8808,-12202,142209,33,19638,135,1,43662,0.0009999999999998899
1341000,790,9308,131343,-1372,10130,121180,30,19639,135,1,43663,0.001000000000000112
1342001,8584,-6739,125113,6203,-12318,133483,30,19642,123,1,43664,0.0010010000000000296
1343000,14591,17355,127429,-4904,16924,107540,30,19643,123,1,43665,0.0009989999999999721
1344000,16648,-8997,122818,4289,-11564,133468,37,19636,152,1,43666,0.0009999999999998899
1345001,6055,13394,129540,-1466,11215,120441,42,19635,172,1,43667,0.0010010000000000296
1346000,1512,-10415,128387,-8698,-12760,139417,35,19640,143,1,43668,0.0009989999999999721
1347000,-6969,13657,132384,-6772,8443,126302,28,19640,143,1,43669,0.001000000000000112
1348000,7555,-7936,126545,-296,-6485,132389,30,19643,115,1,43670,0.0009999999999998899
1349000,7291,12635,128492,1489,3814,118020,30,19639,123,1,43671,0.001000000000000112
1350000,16131,-5331,123749,-6277,1041,134793,38,19638,156,0,43672,0.0009999999999998899
1351000,9912,7245,127661,5456,-3818,119627,45,19637,184,0,43673,0.001000000000000112
1352000,705,-5156,127517,-7280,279,140511,43,19635,176,0,43674,0.0009999999999998899
1353001,626,9481,131237,-11738,-3660,121358,37,19635,176,0,43675,0.0010010000000000296
1354000,312,2323,129116,1578,-7051,134319,27,19643,152,0,43676,0.0009989999999999721
1355000,9612,-381,125402,8057,3601,117832,27,19643,111,0,43677,0.001000000000000112
1356000,8095,7524,127694,-12613,-565,123209,28,19643,115,0,43678,0.0009999999999998899
1357000,19641,751,126509,-4505,3199,127712,37,19641,152,0,43679,0.001000000000000112
1358000,-12,5904,129434,16794,-3175,131204,45,19634,184,0,43680,0.0009999999999998899
1359000,-1733,-13221,127025,-25405,-13043,136987,47,19634,184,0,43681,0.001000000000000112
1360000,-943,15128,131813,6996,12616,119872,33,19636,192,1,43682,0.0009999999999998899
1361000,7093,-2100,126166,9833,-4747,132349,33,19640,135,1,43683,0.001000000000000112
1362004,15478,14904,127027,-11299,13670,108868,32,19640,131,1,43684,0.0010040000000000049
1363002,12080,-4620,125893,-1523,-10307,135804,37,19638,152,1,43685,0.0009980000000000544
1364002,11634,516,126087,9248,639,124352,41,19639,168,1,43686,0.0009999999999998899
1365000,-3550,-1229,130194,-12740,-7028,134633,40,19639,168,1,43687,0.0009980000000000544
1366000,-1889,863,129951,-10877,655,129274,30,19641,164,1,43688,0.0009999999999998899
1367000,3148,10092,128757,5053,6227,123257,30,19643,123,1,43689,0.001000000000000112
1368001,9037,4566,125947,5436,3311,126909,28,19643,115,1,43690,0.0010010000000000296
1369002,12990,7413,125268,-7734,4233,115008,35,19641,143,0,43691,0.0010009999999998076
1370002,14519,-5560,126479,-4190,-7319,132173,37,19638,152,0,43692,0.001000000000000112
1371002,8431,-1083,129937,11733,-4200,130674,45,19638,184,0,43693,0.0009999999999998899
1372000,-1939,-8286,127899,-9000,-11484,137089,40,19639,184,0,43694,0.0009980000000000544
1373001,-6575,9486,130323,-16160,6687,124584,40,19640,164,0,43695,0.0010010000000000296
1374000,5779,11656,126317,94,9264,120106,29,19643,119,0,43696,0.0009989999999999721
1375000,9408,11372,125818,9165,9251,120501,26,19641,106,0,43697,0.001000000000000112
1376000,18515,-2174,125592,-7082,-4212,125077,33,19637,135,0,43698,0.0009999999999998899
1377000,8842,-6982,127721,1858,-9912,133528,42,19637,172,0,43699,0.001000000000000112
1378000,7617,-2640,130445,5044,-5404,131492,47,19636,172,0,43700,0.0009999999999998899
1379001,-4552,857,130202,-12536,-2960,132281,44,19636,192,0,43701,0.0010010000000000296
1380000,2450,6956,128378,-7457,4286,124680,44,19639,180,1,43702,0.0009989999999999721
1381000,5534,11252,126300,3002,8505,121277,29,19641,119,1,43703,0.001000000000000112
1382000,14214,10216,126334,-5001,8735,119091,35,19635,143,1,43704,0.0009999999999998899
1383000,12345,-849,127160,5325,-2448,127710,42,19635,172,1,43705,0.001000000000000112
1384001,7400,-10143,127586,2644,-13040,133823,45,19638,172,1,43706,0.0010010000000000296
1385000,560,-4354,129966,-10023,-9262,135022,35,19638,184,1,43707,0.0009989999999999721
1386002,2508,8359,130480,-2933,5050,125906,35,19642,143,1,43708,0.0010019999999999474
1387002,5728,9783,127150,-201,6203,123186,27,19643,111,1,43709,0.0009999999999998899
1388000,8534,10683,126177,-8791,9188,119491,33,19639,135,1,43710,0.0009980000000000544
1389000,10837,956,125743,3642,-462,125971,42,19637,172,1,43711,0.001000000000000112
1390000,7159,835,127481,1972,-1797,127037,45,19637,172,0,43712,0.0009999999999998899
1391000,2016,-8327,129663,-7164,-9741,133865,44,19637,184,0,43713,0.001000000000000112
1392000,3394,-654,129998,-5004,-5134,131884,44,19635,180,0,43714,0.0009999999999998899
