t_us,ax,ay,az,ax1,ay1,az1,shunt_raw,bus_raw,curr_raw,pg_rpm,seq,dt
0,9249,6161,126386,-1442,1419,125930,39,19236,160,1,33035,
999,7072,-5085,127072,-6148,-7417,131084,44,19237,180,1,33036,0.0009989999999999999
1999,6349,-1930,126604,4451,3123,126227,50,19237,180,0,33037,0.001
3000,6569,5466,129800,-3445,2162,127986,41,19235,205,0,33038,0.0010010000000000002
3999,10248,-262,127426,2381,-880,124296,41,19236,168,0,33039,0.0009989999999999999
4999,8757,-1295,127271,6227,-3675,129615,39,19237,160,0,33040,0.001
5999,10426,-2197,127121,-6495,-619,125149,39,19235,160,0,33041,0.001
6999,9459,1307,126961,151,-423,126553,39,19238,160,0,33042,0.001
7999,8426,2001,127802,7227,3001,127833,40,19238,160,0,33043,0.0009999999999999992
8999,6783,6888,128683,-11318,2279,123656,36,19237,164,0,33044,0.0010000000000000009
9999,8275,-887,127598,-305,-3532,130188,36,19236,147,0,33045,0.0009999999999999992
10999,9658,-1279,127551,9347,-2242,126686,40,19236,164,0,33046,0.0010000000000000009
11999,9042,769,126695,-3185,1496,124665,46,19237,188,1,33047,0.0009999999999999992
12999,9169,3309,128189,-7562,1628,126173,40,19236,164,1,33048,0.0010000000000000009
13999,10823,-1046,127805,7324,-3557,129493,43,19236,164,1,33049,0.0009999999999999992
14999,7212,-2581,127737,-353,-1212,128917,42,19238,176,1,33050,0.0010000000000000009
15999,5464,3796,128390,-6353,2409,124502,42,19236,172,1,33051,0.0009999999999999992
16999,7403,-1035,127040,-1750,-1594,128883,37,19238,152,1,33052,0.0010000000000000009
17999,11811,3271,127807,3289,5096,124237,35,19237,143,1,33053,0.0009999999999999974
18999,10619,3857,127447,2873,1080,125637,38,19239,156,1,33054,0.0010000000000000009
19999,7131,-2541,126717,-2738,-4188,127799,45,19239,156,1,33055,0.0010000000000000009
21000,7623,-4428,127805,-3387,-4475,129823,51,19236,184,1,33056,0.0010009999999999984
21999,7581,1537,129094,762,2706,127950,41,19232,209,0,33057,0.0009989999999999999
23000,8631,6327,129221,-2057,4771,124434,41,19238,168,0,33058,0.0010010000000000019
23999,7399,-419,127350,-2353,-2740,127884,41,19233,168,0,33059,0.0009989999999999999
25001,9163,-3710,125955,1180,-3797,127244,41,19236,168,0,33060,0.0010019999999999994
26001,10753,2550,127504,2471,2646,124609,42,19236,172,0,33061,0.0010000000000000009
26999,8860,2255,128004,-885,359,127290,42,19236,172,0,33062,0.0009979999999999989
28000,7581,-159,127756,-3394,-1004,127600,40,19240,172,0,33063,0.0010009999999999984
29001,6458,1907,128951,-1099,1239,127709,40,19238,164,0,33064,0.0010010000000000019
29999,8187,550,127765,1086,-852,127481,41,19236,168,0,33065,0.0009979999999999989
30999,7785,-780,127272,-669,-1565,126157,44,19233,180,0,33066,0.0010000000000000009
31999,9593,593,127129,-2190,392,126290,52,19233,213,1,33067,0.0010000000000000009
32999,9566,3610,127295,77,3000,124088,41,19236,213,1,33068,0.0010000000000000009
33999,9794,623,127605,2732,-1385,128660,43,19237,168,1,33069,0.0010000000000000009
34999,6673,-4457,127327,-3498,-5067,129412,43,19237,176,1,33070,0.000999999999999994
36001,6732,2086,128131,-1565,1589,125243,42,19238,172,1,33071,0.0010020000000000029
37001,9020,3091,128420,215,1981,127458,38,19234,156,1,33072,0.0010000000000000009
38001,10255,718,126809,1282,-444,126162,37,19241,152,1,33073,0.0010000000000000009
39001,9565,-1150,126843,23,-1686,126776,38,19241,152,1,33074,0.0010000000000000009
39999,9284,2928,127303,404,2114,124453,45,19238,156,1,33075,0.0009979999999999989
40999,8125,27,127733,-184,-1014,128258,45,19237,184,0,33076,0.0010000000000000009
41999,6702,-1221,127977,-2926,-2009,126760,52,19237,213,0,33077,0.000999999999999994
42999,7361,1934,128135,-2541,1605,125556,41,19235,168,0,33078,0.0010000000000000009
43999,9075,1491,127793,-49,661,127119,42,19236,172,0,33079,0.0010000000000000009
44999,9098,-4904,126265,1175,-5454,128673,39,19236,172,0,33080,0.0010000000000000009
45999,9215,-2410,127615,502,818,126668,40,19236,160,0,33081,0.0010000000000000009
46999,9367,4877,128147,-3063,4450,123778,40,19233,164,0,33082,0.0010000000000000009
47999,7073,2491,128178,549,-1530,130105,41,19236,168,0,33083,0.0010000000000000009
48999,6645,-1501,127852,-1768,-1717,128349,41,19240,168,0,33084,0.0010000000000000009
49999,6682,1334,127282,-1392,1804,124914,42,19235,172,0,33085,0.000999999999999994
50999,8704,3098,127697,-791,749,126282,46,19235,172,1,33086,0.0010000000000000009
51999,11225,-171,127508,3005,-1578,126888,41,19233,188,1,33087,0.0010000000000000009
52999,10475,-1544,127751,395,-2053,128669,41,19236,168,1,33088,0.0010000000000000009
53999,7049,220,128277,-4132,-427,126096,46,19233,188,1,33089,0.0010000000000000009
54999,4964,557,128357,-2396,-763,128703,46,19239,188,1,33090,0.0010000000000000009
55999,6882,-270,128316,-1535,174,128472,38,19236,156,1,33091,0.0010000000000000009
56999,9017,3799,127498,677,3429,123528,35,19236,156,1,33092,0.000999999999999994
57999,9779,2657,126738,97,771,125755,39,19238,143,1,33093,0.0010000000000000009
59001,11050,-2726,126314,1697,-4417,127307,39,19238,160,1,33094,0.0010020000000000029
60001,8790,-1207,127308,121,-209,127602,44,19230,180,1,33095,0.0010000000000000009
60999,6617,2199,128711,-4490,1752,127026,50,19237,205,0,33096,0.0009979999999999989
61999,4336,2288,128547,-4437,1183,126535,50,19237,205,0,33097,0.0010000000000000009
63000,8129,550,127899,196,-1495,129029,38,19237,205,0,33098,0.0010010000000000019
63999,9461,-1466,126279,2212,-893,125198,38,19240,156,0,33099,0.0009989999999999999
64999,10776,1716,126973,265,354,124998,38,19239,156,0,33100,0.0010000000000000009
66000,10670,-1686,126770,301,-2256,127747,41,19232,168,0,33101,0.0010010000000000019
67000,8730,1677,128407,-682,1814,126330,40,19240,164,0,33102,0.000999999999999987
67999,6829,3277,128658,-849,1411,127945,38,19238,156,0,33103,0.0009989999999999999
69000,5576,621,127541,-3453,-46,126214,37,19238,152,0,33104,0.0010010000000000019
69999,8077,-196,127480,-398,-1646,127702,41,19236,152,1,33105,0.0009989999999999999
70999,10070,210,126962,2109,294,125858,35,19239,168,1,33106,0.0010000000000000009
71999,11973,2676,127454,982,1971,124843,35,19239,143,1,33107,0.0010000000000000009
72999,8088,-1773,127570,-2801,-3257,128835,45,19237,184,1,33108,0.0010000000000000009
74001,6304,-507,128044,-1931,-807,127896,46,19238,188,1,33109,0.0010020000000000029
74999,6012,695,128818,-725,516,128619,41,19238,168,1,33110,0.0009979999999999989
75999,7104,1845,127779,-3332,1267,125552,35,19240,168,1,33111,0.0010000000000000009
76999,9512,1490,126828,-21,76,126178,34,19237,143,1,33112,0.0010000000000000009
77999,10233,-2423,126084,1599,-3355,126616,34,19237,139,1,33113,0.0010000000000000009
78999,9150,1528,128008,1847,830,126263,41,19239,168,1,33114,0.0010000000000000009
79999,6407,-800,127851,-4658,-1973,128926,50,19233,205,0,33115,0.0010000000000000009
80999,6043,1470,128439,-3735,773,127021,46,19233,188,0,33116,0.0010000000000000009
82000,7375,2856,128313,1132,1255,128411,39,19234,188,0,33117,0.001000999999999988
82999,8380,113,127105,-1073,-669,125511,38,19236,160,0,33118,0.0009989999999999999
83999,9675,-735,126608,-1231,-1883,125987,38,19236,156,0,33119,0.0010000000000000009
84999,10415,-1294,127090,1818,-1647,127508,38,19236,156,0,33120,0.0010000000000000009
85999,8200,3201,128308,480,2348,125558,39,19235,160,0,33121,0.0010000000000000009
86999,6327,294,128331,-5247,-924,129099,38,19240,156,0,33122,0.0010000000000000009
87999,5836,342,128084,-1393,-583,127296,37,19240,156,0,33123,0.0010000000000000009
88999,8370,636,127892,369,-194,126774,42,19238,152,0,33124,0.0010000000000000009
89999,9006,1860,126798,-406,1063,124233,42,19239,172,1,33125,0.0010000000000000009
90999,9619,1016,127139,-1842,269,126953,47,19239,192,1,33126,0.0010000000000000009
91999,10378,228,127138,1921,-622,126419,39,19240,160,1,33127,0.0010000000000000009
92999,6325,549,127942,-1097,-1790,128815,43,19235,176,1,33128,0.0010000000000000009
93999,5774,-651,128147,-5882,-1189,127940,39,19235,176,1,33129,0.0010000000000000009
94999,7226,727,127730,615,702,126779,34,19237,160,1,33130,0.0010000000000000009
95999,9772,2815,128046,959,2087,125211,34,19236,139,1,33131,0.0010000000000000009
97003,10494,1314,126374,380,-758,124579,34,19237,139,1,33132,0.001003999999999991
97999,10331,-414,126674,645,-105,127159,38,19236,156,1,33133,0.0009959999999999969
99002,7843,813,128108,148,190,127518,45,19237,184,1,33134,0.0010030000000000039
99999,4941,-138,127917,-4887,-307,128201,48,19237,184,0,33135,0.0009969999999999979
100999,5851,1591,128195,-1930,314,127570,39,19236,197,0,33136,0.0010000000000000009
101999,8430,884,127646,1440,-67,126257,39,19242,160,0,33137,0.0010000000000000009
103000,11123,165,126618,184,-733,125124,40,19239,164,0,33138,0.0010010000000000019
103999,10768,673,126975,1626,-3,125219,37,19237,152,0,33139,0.0009989999999999999
104999,8625,98,127549,-1850,-1393,128286,40,19232,164,0,33140,0.0010000000000000009
105999,7095,394,128357,-2463,841,128014,39,19232,164,0,33141,0.0010000000000000009
106999,4594,2362,128949,-1781,295,128472,38,19235,160,0,33142,0.0010000000000000009
107999,6056,103,127755,-2682,1011,126602,38,19235,156,0,33143,0.0010000000000000009
108999,7933,398,127568,-1270,726,125608,40,19234,164,0,33144,0.0010000000000000009
109999,10088,106,127371,154,-434,126594,47,19232,192,1,33145,0.0010000000000000009
111002,9503,-396,127302,-923,-2523,126609,37,19237,152,1,33146,0.00100299999999999
111999,10189,708,128306,7518,1242,126090,44,19237,180,1,33147,0.0009970000000000118
112999,5902,2296,127336,-6079,-982,130714,42,19236,180,1,33148,0.000999999999999987
113999,8607,-2291,127911,-7780,-643,126449,36,19236,172,1,33149,0.0010000000000000009
114999,7966,5309,129130,8122,3468,126524,36,19236,147,1,33150,0.0010000000000000009
115999,9884,-1494,126796,594,-2561,126188,35,19242,143,1,33151,0.0010000000000000009
116999,7539,-2864,127117,-8370,-4494,127116,35,19238,143,1,33152,0.0010000000000000009
117999,7753,-2599,127106,6559,-1009,128534,44,19238,180,1,33153,0.0010000000000000009
118999,8099,9290,126838,-2212,9514,121923,48,19239,180,1,33154,0.0010000000000000009
119999,5834,8814,129845,-6904,6207,125186,46,19234,197,0,33155,0.0010000000000000009
120999,9045,-7313,126862,-99,-9629,132065,46,19237,188,0,33156,0.0010000000000000009
121999,11471,-3741,128099,5902,-2491,127155,37,19236,152,0,33157,0.0010000000000000009
122999,9328,698,128504,-1425,-939,125963,39,19234,160,0,33158,0.0010000000000000009
123999,8780,-1377,126570,-1245,-1888,126380,41,19234,168,0,33159,0.0010000000000000009
124999,6788,1340,127666,-2213,867,128244,39,19236,168,0,33160,0.0010000000000000009
125999,7625,7192,128244,734,6625,125220,38,19233,160,0,33161,0.0010000000000000009
126999,6282,3441,126346,-5041,1561,125122,38,19236,156,0,33162,0.0010000000000000009
127999,10583,-1095,128195,890,-1575,127666,38,19236,156,0,33163,0.0010000000000000009
128999,10951,-1782,127004,5948,-2495,127682,43,19236,176,1,33164,0.0010000000000000009
129999,9421,882,128478,-1498,359,126400,44,19240,180,1,33165,0.0010000000000000009
130999,9345,-3136,127367,-3446,-3689,128649,42,19240,180,1,33166,0.0010000000000000009
131999,6647,457,127680,429,-110,126672,45,19237,172,1,33167,0.0010000000000000009
132999,6498,4860,128441,-1905,3714,126251,45,19234,184,1,33168,0.0010000000000000009
133999,7120,-285,127591,-2566,-1239,128272,40,19236,164,1,33169,0.0010000000000000009
134999,10762,-250,127105,-2407,-629,125996,35,19236,143,1,33170,0.0009999999999999731
136003,10746,5468,128097,7434,4662,125799,37,19240,152,1,33171,0.0010040000000000049
136999,9792,-2359,126296,-472,-3167,128779,43,19240,152,1,33172,0.0009959999999999969
138001,7719,-3916,127670,-3514,-4637,128609,50,19233,176,1,33173,0.0010020000000000029
138999,6664,1641,128203,-144,540,125994,50,19231,205,0,33174,0.0009979999999999989
139999,6936,5809,128879,-2083,2758,125601,52,19238,213,0,33175,0.0010000000000000009
140999,7730,-1690,127831,-3901,-4002,130013,41,19236,168,0,33176,0.0010000000000000009
142000,9540,-4924,126891,1550,-1143,126170,41,19235,168,0,33177,0.0010010000000000019
142999,9961,3785,127122,3477,4442,123742,45,19235,168,0,33178,0.0009989999999999999
143999,9135,1092,127149,-1932,-2708,128076,42,19236,184,0,33179,0.0010000000000000009
144999,9622,-1280,127604,86,-384,128156,42,19237,172,0,33180,0.0010000000000000009
145999,7045,2280,128441,-2560,1349,126948,40,19234,164,0,33181,0.0010000000000000009
146999,7153,2844,128082,-955,1006,126123,38,19237,156,0,33182,0.0010000000000000009
147999,7120,-1555,127570,97,-4430,129382,42,19235,172,0,33183,0.0010000000000000009
148999,8426,-2370,127268,-1166,134,126337,48,19235,172,0,33184,0.0010000000000000009
149999,10311,4220,127901,-279,2788,124405,45,19234,197,1,33185,0.0010000000000000009
151000,10002,825,127432,2072,-906,127369,45,19236,184,1,33186,0.0010010000000000019
152013,8875,-1000,127141,-3789,-1823,127471,43,19235,176,1,33187,0.0010129999999999861
152999,7223,-114,127622,-656,225,126962,41,19240,168,1,33188,0.0009860000000000146
153999,7528,3512,128584,470,2133,126912,37,19236,152,1,33189,0.0010000000000000009
154999,8417,-1619,127485,-795,-3612,128859,35,19236,152,1,33190,0.0010000000000000009
155999,9833,-745,127241,693,698,124892,39,19237,143,1,33191,0.0010000000000000009
156999,10154,2926,127568,1426,1208,125875,39,19239,160,1,33192,0.0010000000000000009
157999,8924,-756,126958,-176,-1733,127252,43,19233,176,1,33193,0.0010000000000000009
158999,7311,745,127728,-2651,204,127734,51,19232,209,0,33194,0.0010000000000000009
159999,6770,2960,128081,-1656,3252,126097,39,19237,160,0,33195,0.0010000000000000009
160999,8371,3541,128212,-772,1423,125793,42,19237,172,0,33196,0.0010000000000000009
161999,9078,-4450,127003,1293,-6664,130556,41,19233,172,0,33197,0.0010000000000000009
162999,9730,-2962,126995,1288,-1900,126065,40,19236,168,0,33198,0.0010000000000000009
163999,9442,2900,128131,-1393,2431,125180,40,19238,164,0,33199,0.0010000000000000009
165000,8672,3135,128189,-1138,1872,126729,41,19234,168,0,33200,0.0010009999999999741
165999,6450,542,127823,-1939,-697,128467,39,19235,160,0,33201,0.0009989999999999999
166999,6493,938,127969,-1274,870,126825,40,19235,164,0,33202,0.0010000000000000009
167999,7808,2694,127574,-514,1265,125432,48,19235,164,0,33203,0.0010000000000000009
168999,9771,-2389,127360,461,-3387,128648,37,19233,197,1,33204,0.0010000000000000009
170000,12174,295,127969,1320,63,125859,37,19241,152,1,33205,0.0010010000000000019
171001,9036,1099,127824,-821,187,126815,45,19233,184,1,33206,0.0010010000000000019
171999,6023,-94,127806,-2951,-1254,127358,44,19241,180,1,33207,0.0009979999999999989
172999,5577,-535,128143,-3093,-1426,129156,40,19241,164,1,33208,0.0010000000000000009
173999,7361,2384,128087,-1217,1908,126647,37,19238,164,1,33209,0.0010000000000000009
174999,8796,5117,127587,804,3230,124257,37,19235,152,1,33210,0.0010000000000000009
175999,10741,-2145,126583,687,-2892,127719,37,19236,152,1,33211,0.0010000000000000009
176999,9318,339,127403,1188,-338,126092,43,19236,176,1,33212,0.0010000000000000009
177999,9186,545,127994,-1038,223,126946,48,19237,197,1,33213,0.0010000000000000009
178999,5805,3764,129008,-3479,2737,127115,52,19239,213,0,33214,0.0010000000000000009
180002,4393,-7,128081,-3919,-968,127808,40,19239,213,0,33215,0.0010030000000000039
180999,8624,1,128040,-691,-658,127243,38,19242,164,0,33216,0.0009969999999999979
181999,9638,-34,127387,2434,-747,125775,38,19238,156,0,33217,0.0010000000000000009
182999,11824,-2436,126433,1241,-3112,127101,38,19236,156,0,33218,0.0010000000000000009
184000,9004,1091,127760,427,276,125984,38,19234,156,0,33219,0.0010010000000000019
184999,8347,4187,128297,-2115,3115,126316,38,19240,156,0,33220,0.0009989999999999999
185999,6403,2159,128017,-1457,1188,127639,36,19240,156,0,33221,0.0010000000000000009
186999,6190,-513,127801,-1457,-2000,127994,39,19235,147,0,33222,0.0010000000000000009
187999,9023,-635,127013,-886,-70,125713,39,19235,160,1,33223,0.0010000000000000009
188999,9309,1595,127477,1074,874,125836,42,19238,172,1,33224,0.0010000000000000009
189999,11211,-292,127833,484,-2016,127610,43,19235,176,1,33225,0.0010000000000000009
190999,7106,-1376,127578,-1319,-1019,127729,44,19237,180,1,33226,0.0010000000000000009
191999,6264,1672,128583,-2622,999,127257,40,19237,180,1,33227,0.0010000000000000009
192999,6145,2314,128146,-1492,1008,126946,34,19240,164,1,33228,0.0010000000000000009
193999,8719,863,127451,-557,-400,126409,34,19240,139,1,33229,0.0010000000000000009
195001,9619,455,127336,1975,-319,125754,34,19237,139,1,33230,0.0010019999999999751
195999,9341,267,127024,131,-635,126185,40,19237,164,1,33231,0.0009979999999999989
196999,8400,-1325,127576,-2026,-1940,128535,48,19233,197,1,33232,0.0010000000000000009
197999,5974,1112,128616,-3296,1155,127298,50,19233,197,0,33233,0.0010000000000000009
198999,7093,2319,128700,-1214,1601,127435,38,19236,205,0,33234,0.0010000000000000009
199999,8367,1005,127857,277,-287,126456,38,19238,156,0,33235,0.0010000000000000009
200999,9163,-253,127080,-107,-2179,126643,38,19237,156,0,33236,0.0010000000000000009
201999,10142,-2033,126642,1322,-1460,126489,42,19235,172,0,33237,0.0010000000000000009
202999,8380,2420,127954,-1069,1732,125958,39,19237,160,0,33238,0.0010000000000000009
203999,7872,1139,127980,-2994,-589,128382,37,19237,152,0,33239,0.0010000000000000009
204999,5887,1155,128253,-1483,1218,127149,39,19238,152,0,33240,0.0010000000000000009
205999,7289,1544,128226,-684,-181,127516,39,19236,160,0,33241,0.0010000000000000009
206999,8715,-120,126983,35,-864,125964,39,19236,160,0,33242,0.0010000000000000009
207999,9443,305,127390,-280,-1642,125667,44,19236,180,1,33243,0.0010000000000000009
208999,9561,1629,127829,1255,1798,125747,39,19234,160,1,33244,0.0010000000000000009
209999,7197,2916,127984,218,-84,126359,41,19234,168,1,33245,0.0010000000000000009
210999,6324,-2249,127880,-6456,-3192,129798,39,19233,168,1,33246,0.0010000000000000009
211999,7359,1032,128660,794,837,127045,36,19240,160,1,33247,0.0010000000000000009
212999,7410,2266,128218,2330,1608,126142,36,19240,147,1,33248,0.0010000000000000009
213999,10357,1550,127368,-3469,318,125612,34,19236,139,1,33249,0.0010000000000000009
214999,9894,-905,126745,572,-1844,125810,37,19240,152,1,33250,0.0010000000000000009
215999,10470,601,127192,3343,310,127343,41,19240,168,1,33251,0.0010000000000000009
216999,6030,1855,127659,-1171,983,126181,46,19240,168,1,33252,0.0010000000000000009
217999,5339,533,128233,-7869,-208,128239,38,19234,188,0,33253,0.0010000000000000009
218999,8587,682,127950,418,290,128231,38,19240,156,0,33254,0.0010000000000000009
220001,9204,1826,127951,2630,923,125905,40,19236,164,0,33255,0.0010020000000000029
221001,10116,-873,127081,-2096,-1777,126023,40,19237,164,0,33256,0.0010000000000000009
221999,8909,-1355,127464,-380,-1974,126604,39,19232,160,0,33257,0.0009979999999999989
222999,8345,499,128439,892,-341,128892,38,19232,160,0,33258,0.0010000000000000009
223999,5984,2443,128312,-4094,1768,127219,38,19236,156,0,33259,0.0010000000000000009
224999,6241,-117,126794,-2459,-1377,127598,38,19237,156,0,33260,0.0009999999999999731
225999,8089,3809,127409,3460,3397,123318,39,19236,160,0,33261,0.0010000000000000009
226999,10165,2578,127454,-2860,1405,127249,44,19236,180,0,33262,0.0010000000000000009
227999,10550,-3394,127399,-1872,-3939,127065,49,19236,201,1,33263,0.0010000000000000009
229001,9131,2740,127963,3438,1701,127231,41,19236,201,1,33264,0.0010020000000000029
229999,6894,-2126,128472,-2902,-3180,132249,42,19232,168,1,33265,0.0009979999999999989
230999,6127,-4086,126799,-1553,-5323,126240,42,19236,172,1,33266,0.0010000000000000009
231999,6782,5509,128615,2943,4521,127247,38,19238,156,1,33267,0.0010000000000000009
232999,12249,5062,127140,-11665,4225,117820,34,19239,139,1,33268,0.0010000000000000009
233999,11572,5617,128535,7252,-6046,131480,37,19238,152,1,33269,0.0010000000000000009
235000,9657,-12588,125753,8059,-8285,130611,40,19238,152,1,33270,0.0010010000000000019
235999,4114,829,127497,-8364,822,124241,46,19234,164,1,33271,0.0009989999999999999
236999,5664,3343,128604,-5935,6026,128164,46,19234,188,0,33272,0.0010000000000000009
237999,7392,8874,128253,4546,4920,123190,50,19235,205,0,33273,0.0010000000000000009
238999,10230,-370,126763,-3427,-3068,128955,41,19234,168,0,33274,0.0010000000000000009
240001,9729,-2714,127394,3308,-3389,125166,39,19239,160,0,33275,0.0010020000000000029
241001,12027,-3268,126934,5940,-5612,128534,42,19239,160,0,33276,0.0010000000000000009
241999,8907,-1047,129120,-3919,-211,128064,40,19234,172,0,33277,0.0009979999999999989
242999,5784,3863,128655,-1503,2248,125459,40,19238,164,0,33278,0.0010000000000000009
243999,6415,3315,127334,-4263,1899,128198,38,19236,156,0,33279,0.0010000000000000009
244999,7382,2859,127294,1578,2846,124084,37,19235,152,0,33280,0.0010000000000000009
245999,9957,3255,127286,1987,1449,124883,45,19234,184,0,33281,0.0010000000000000009
246999,10573,526,127343,-1062,-885,128099,49,19234,184,1,33282,0.0010000000000000009
247999,10367,-3495,128531,-1365,-6003,128611,40,19233,201,1,33283,0.0010000000000000009
248999,10337,-4006,127945,6113,-3351,129950,40,19238,164,1,33284,0.0010000000000000009
249999,5458,1409,128404,-4062,1516,125918,45,19236,184,1,33285,0.0010000000000000009
250999,4356,3027,127898,-5914,1464,126855,42,19239,172,1,33286,0.0009999999999999731
251999,8157,1210,126801,-2619,1258,127168,37,19240,152,1,33287,0.0010000000000000009
252999,11914,7098,127764,5284,7283,121312,37,19240,152,1,33288,0.0010000000000000009
254000,9996,1965,127495,1638,-2128,127478,42,19237,152,1,33289,0.0010010000000000296
254999,9191,-7906,126693,-2218,-8273,130460,45,19235,172,1,33290,0.0009989999999999721
255999,8073,-3943,128283,757,-3184,130225,45,19233,184,1,33291,0.0010000000000000009
256999,6551,4958,128759,-2135,5838,124806,52,19240,213,0,33292,0.0010000000000000009
258001,6889,6679,129253,-5228,4116,124143,40,19236,164,0,33293,0.0010020000000000029
258999,8526,-3064,126749,354,-5087,130429,43,19236,176,0,33294,0.0009979999999999989
259999,9991,-482,126800,2359,-245,125099,41,19236,176,0,33295,0.0010000000000000009
260999,9859,2892,127731,150,1995,125278,41,19239,168,0,33296,0.0010000000000000009
261999,9084,-315,127574,-383,-1723,128048,41,19238,168,0,33297,0.0010000000000000009
262999,8261,-1117,127973,-790,-1663,129075,40,19239,164,0,33298,0.0010000000000000009
263999,6809,2615,128329,-2485,2277,126490,39,19237,160,0,33299,0.0010000000000000009
264999,7843,2805,127656,-804,1380,125070,42,19237,172,0,33300,0.0010000000000000009
266003,8162,-2636,127309,675,-3650,128721,44,19237,172,0,33301,0.0010040000000000049
266999,9568,678,127538,-1836,534,125863,54,19234,180,1,33302,0.0009959999999999969
267999,8894,2210,127909,-569,1250,126069,54,19239,221,1,33303,0.0010000000000000009
268999,9557,-95,127128,2500,-1411,127977,40,19240,164,1,33304,0.0010000000000000009
269999,7709,-2036,127296,-3406,-2781,128293,43,19239,176,1,33305,0.0010000000000000009
270999,7148,1538,127687,-574,1246,126039,38,19240,156,1,33306,0.0010000000000000009
272000,8763,4216,128282,-879,3040,125762,36,19240,156,1,33307,0.0010009999999999741
272999,10044,-1068,127335,542,-2012,127654,38,19238,147,1,33308,0.0009990000000000276
273999,9321,596,127987,1197,158,126841,38,19236,156,1,33309,0.0010000000000000009
274999,9015,94,126882,275,-891,126953,38,19235,156,1,33310,0.0010000000000000009
276000,7752,9,127878,-1046,-806,127794,46,19232,188,1,33311,0.0010009999999999741
276999,7175,661,126952,-2752,-441,127561,53,19236,217,0,33312,0.0009990000000000276
277999,8823,3426,127651,-573,2422,123641,43,19236,217,0,33313,0.0010000000000000009
279000,8691,5010,127904,-349,4612,126771,43,19234,176,0,33314,0.0010009999999999741
280000,9281,-6928,126684,476,-7607,130788,43,19235,176,0,33315,0.0010000000000000009
280999,9654,-1493,127888,374,455,125605,40,19235,164,0,33316,0.0009990000000000276
281999,8899,1304,128013,-68,992,127146,41,19238,168,0,33317,0.0010000000000000009
282999,7667,3781,128446,-1624,3060,125304,39,19235,160,0,33318,0.0010000000000000009
283999,6528,704,127705,-2045,-2225,129954,41,19235,160,0,33319,0.0010000000000000009
284999,7409,-369,127124,-1297,2175,124814,43,19238,168,0,33320,0.0010000000000000009
285999,8622,4063,127875,1129,750,125891,43,19233,176,1,33321,0.0010000000000000009
286999,9823,-2503,127087,1217,-1691,128186,50,19236,205,1,33322,0.0010000000000000009
287999,10758,332,127818,-289,-899,127005,42,19239,172,1,33323,0.0010000000000000009
288999,7136,-2338,128070,-1367,-3325,129267,47,19232,192,1,33324,0.0010000000000000009
290000,6077,802,127970,-2343,1459,125997,42,19232,192,1,33325,0.0010009999999999741
291000,6115,1675,128143,-2870,149,127933,38,19234,172,1,33326,0.0010000000000000009
292001,8998,3194,127717,-1361,3657,124478,38,19238,156,1,33327,0.0010010000000000296
293000,10066,2317,126855,2977,158,126214,36,19234,147,1,33328,0.0009989999999999721
293999,9468,-2120,126402,1502,-2181,126888,39,19240,160,1,33329,0.0009990000000000276
294999,8511,-677,127652,-4000,-1780,127432,46,19232,188,1,33330,0.0010000000000000009
295999,7079,-1382,127847,-433,-643,128446,52,19232,188,1,33331,0.0010000000000000009
296999,5059,5210,128807,-1994,3838,125554,43,19236,213,0,33332,0.0010000000000000009
298000,7609,1018,127325,-5265,-627,126924,43,19236,176,0,33333,0.0010009999999999741
298999,9776,713,127160,1094,-168,125338,38,19235,156,0,33334,0.0009989999999999721
299999,11064,-1282,126805,5403,-3144,128304,38,19240,156,0,33335,0.0010000000000000009
300999,10375,-1731,127071,-1954,-1083,125902,38,19236,156,0,33336,0.0010000000000000009
301999,7523,1025,128268,-1052,-357,128131,39,19236,160,0,33337,0.0010000000000000009
302999,6523,1451,127961,-1311,1390,127540,38,19236,160,0,33338,0.0010000000000000009
303999,6959,4875,127983,-3578,3775,124684,38,19238,156,0,33339,0.0010000000000000009
304999,7815,1084,127102,692,-577,127263,38,19237,156,0,33340,0.0010000000000000009
305999,9898,206,126749,801,-596,125101,44,19239,180,1,33341,0.0010000000000000009
306999,12253,-2028,127386,926,-2422,128589,37,19240,152,1,33342,0.0010000000000000009
307999,9419,-1952,127504,1083,-2088,127196,46,19240,188,1,33343,0.0010000000000000009
308999,5946,81,128217,-2564,-578,128458,45,19234,188,1,33344,0.0010000000000000009
309999,5012,1181,128103,-5959,-459,126464,37,19236,184,1,33345,0.0010000000000000009
310999,6891,1644,127473,733,853,127662,37,19236,152,1,33346,0.0010000000000000009
311999,9545,4694,127688,28,3952,123443,33,19238,135,1,33347,0.0010000000000000009
312999,10556,-399,126665,372,-1709,126069,35,19240,143,1,33348,0.0010000000000000009
313999,9555,-2304,127445,2388,-2968,129447,42,19236,172,1,33349,0.0010000000000000009
314999,7377,-497,128186,-1249,-1261,127606,50,19236,172,1,33350,0.0010000000000000009
316000,5726,2263,129018,-4880,1706,127164,40,19233,205,0,33351,0.0010010000000000296
316999,7470,3763,128774,-1253,2649,127078,40,19236,164,0,33352,0.0009989999999999721
317999,8473,-1755,126892,271,-2591,128128,41,19235,168,0,33353,0.0010000000000000009
319001,9926,1033,127179,-732,265,125049,40,19236,164,0,33354,0.0010020000000000029
320000,9681,-315,127193,2162,-1055,126527,40,19234,164,0,33355,0.0009990000000000276
321000,8965,810,127879,-1078,14,126951,38,19234,164,0,33356,0.0010000000000000009
321999,7047,410,128463,-1586,-337,128671,38,19236,156,0,33357,0.0009989999999999721
322999,6618,1558,128155,-2412,737,125660,38,19237,156,0,33358,0.0010000000000000009
323999,7833,2272,127898,-1302,1523,126672,39,19236,160,0,33359,0.0010000000000000009
324999,8527,-808,126839,29,-1706,126768,40,19232,164,0,33360,0.0010000000000000009
325999,9543,1004,127224,-1192,100,125567,46,19241,188,1,33361,0.0010000000000000009
326999,9556,160,127653,727,-554,127642,43,19241,188,1,33362,0.0010000000000000009
327999,7285,-681,127183,-547,-2361,127919,41,19237,176,1,33363,0.0010000000000000009
328999,6576,-1372,127209,-3405,609,126248,41,19240,168,1,33364,0.0010000000000000009
329999,8363,4242,128285,-144,3124,126650,36,19236,147,1,33365,0.0010000000000000009
330999,9566,2670,127681,-204,997,125362,33,19233,135,1,33366,0.0010000000000000009
332001,10185,1120,127571,1893,-587,125833,33,19242,135,1,33367,0.0010020000000000029
332999,8734,-2517,126957,2240,-4222,128528,37,19242,135,1,33368,0.0009979999999999989
333999,7435,-1541,127181,-2225,-1713,127377,46,19233,152,1,33369,0.0010000000000000009
334999,5989,369,127985,-4400,655,128592,46,19236,188,0,33370,0.0010000000000000009
335999,7623,5073,128155,-1661,5465,124059,49,19235,201,0,33371,0.0010000000000000009
336999,9275,5330,128067,3356,2708,125273,42,19234,172,0,33372,0.0010000000000000009
337999,9031,-2423,126848,-2303,-5647,128491,38,19238,156,0,33373,0.0010000000000000009
339002,10166,-5702,126574,277,-5134,127085,39,19238,156,0,33374,0.0010029999999999761
339999,8628,1683,128536,2947,3489,127674,38,19235,160,0,33375,0.0009970000000000256
340999,6893,2484,127993,-4106,2378,126613,38,19235,156,0,33376,0.0010000000000000009
341999,5043,2470,128311,-4989,2226,127580,41,19235,168,0,33377,0.0010000000000000009
342999,6513,-707,127241,-723,-706,128075,39,19238,160,0,33378,0.0010000000000000009
343999,7955,2234,128010,-872,1831,124950,39,19237,160,0,33379,0.0010000000000000009
344999,10656,-2931,125781,424,-5213,126546,50,19237,205,1,33380,0.0010000000000000009
346001,9762,2005,127792,7470,4043,124610,41,19232,205,1,33381,0.0010020000000000029
346999,8767,-527,127106,-6530,-4112,131304,45,19236,168,1,33382,0.0009979999999999989
347999,7889,441,128702,-6426,3053,124968,45,19237,184,1,33383,0.0010000000000000009
348999,6681,5009,128898,9896,2265,127450,42,19239,172,1,33384,0.0010000000000000009
349999,5750,-1198,128273,-6365,-3094,128399,36,19237,147,1,33385,0.0010000000000000009
350999,9805,-5946,126852,-10253,-6775,127295,33,19237,135,1,33386,0.0010000000000000009
351999,11423,764,127997,16463,1779,128010,39,19236,135,1,33387,0.0010000000000000009
352999,8221,8555,126336,-4906,8101,119643,44,19236,160,1,33388,0.0010000000000000009
354001,8216,2863,128073,-10796,-321,127893,44,19240,180,1,33389,0.0010020000000000029
354999,5452,-5175,126570,8949,-5263,132295,49,19232,201,0,33390,0.0009979999999999989
355999,7913,2518,129029,-4937,2040,125602,37,19236,152,0,33391,0.0010000000000000009
356999,10463,882,128299,-5305,366,124518,38,19236,156,0,33392,0.0010000000000000009
357999,8406,-2299,127758,11757,-4682,129318,39,19241,156,0,33393,0.0009999999999999454
358999,9044,-3844,126241,-7183,-3094,128291,39,19236,160,0,33394,0.0010000000000000009
359999,8014,6498,128300,-5192,6046,123289,39,19236,160,0,33395,0.0010000000000000009
361000,7887,2799,126968,10052,1578,127888,40,19237,164,0,33396,0.0010010000000000296
361999,6880,3819,128108,-8299,2599,124267,40,19233,164,0,33397,0.0009989999999999721
363002,10282,-1156,128688,-5135,-1987,128582,41,19240,168,0,33398,0.0010030000000000316
364001,9165,-1543,127169,12671,-2705,128184,44,19240,168,0,33399,0.0009989999999999721
365000,8030,-277,127208,-4010,-1024,125945,37,19235,180,1,33400,0.0009990000000000276
366001,10135,1543,128465,-8251,1203,125220,37,19238,152,1,33401,0.0010009999999999741
366999,8867,-522,127191,6816,-1439,129480,44,19237,180,1,33402,0.0009979999999999989
368001,6706,1160,128284,-1367,190,127197,42,19237,172,1,33403,0.0010020000000000029
369001,6516,846,127443,-5935,28,125507,40,19239,164,1,33404,0.0010000000000000009
369999,9210,1353,127718,269,612,126975,34,19239,164,1,33405,0.0009979999999999989
370999,10857,2069,127843,4199,1264,126712,38,19239,139,1,33406,0.0010000000000000009
371999,9375,-510,126750,-768,-1205,125889,38,19238,156,1,33407,0.0010000000000000009
372999,7158,758,127388,-1244,67,127093,45,19234,184,1,33408,0.0010000000000000009
373999,6873,-2847,128479,-1906,-2939,129633,50,19236,205,0,33409,0.0010000000000000009
374999,7790,1430,128558,-2182,2254,127355,47,19239,192,0,33410,0.0010000000000000009
375999,7680,2358,128033,-996,-660,126386,42,19239,192,0,33411,0.0010000000000000009
376999,7586,1935,127657,-305,-44,126208,40,19238,172,0,33412,0.0010000000000000009
377999,10343,-1941,126387,-641,-3437,127892,40,19240,164,0,33413,0.0010000000000000009
378999,10136,450,127099,3087,1318,126171,43,19237,176,0,33414,0.0010000000000000009
379999,8967,2392,127849,-3229,1283,126621,42,19235,172,0,33415,0.0010000000000000009
381000,7558,2295,128070,-3452,1894,125728,41,19240,168,0,33416,0.0010010000000000296
381999,7326,343,128238,1271,-2725,130529,39,19240,168,0,33417,0.0009989999999999721
382999,8418,-2075,127276,-180,-972,126358,44,19237,160,0,33418,0.0010000000000000009
383999,7680,2358,127540,-677,760,125339,44,19232,180,0,33419,0.0010000000000000009
384999,9776,-469,127007,-1801,-794,126575,53,19237,217,1,33420,0.0010000000000000009
385999,10714,2232,127902,2323,2003,125646,39,19241,160,1,33421,0.0010000000000000009
386999,9348,-190,127860,-1488,-1742,128761,43,19234,176,1,33422,0.0010000000000000009
387999,7101,424,127456,-1772,129,125436,42,19234,172,1,33423,0.0010000000000000009
388999,7049,344,127805,-848,-1513,129149,35,19237,172,1,33424,0.0010000000000000009
390000,9204,69,127959,310,583,126357,36,19237,143,1,33425,0.0010009999999999741
390999,10241,1953,127796,2602,732,125920,36,19241,147,1,33426,0.0009990000000000276
391999,9905,-492,126876,-1057,-1314,126315,37,19233,152,1,33427,0.0010000000000000009
393001,9094,994,127141,-32,419,126125,46,19232,188,1,33428,0.0010020000000000029
393999,7656,632,128168,-849,89,128943,51,19232,209,0,33429,0.0009979999999999989
394999,6640,2979,127991,-2033,1851,125490,39,19231,209,0,33430,0.0010000000000000009
395999,8125,1258,128554,-1569,-235,127573,40,19239,160,0,33431,0.0010000000000000009
396999,9186,-1330,127515,1494,-2371,127182,40,19235,164,0,33432,0.0010000000000000009
397999,10154,-2177,127256,2287,-2628,127353,43,19240,176,0,33433,0.0010000000000000009
398999,9498,-166,127679,-1581,-350,127037,42,19237,172,0,33434,0.0010000000000000009
399999,8531,3028,128044,-1802,2538,125380,40,19237,164,0,33435,0.0010000000000000009
400999,6877,2542,128235,-1272,1704,127907,40,19236,164,0,33436,0.0010000000000000009
401999,6848,652,128111,-635,-377,127502,40,19241,164,0,33437,0.0010000000000000009
402999,7668,-237,127299,-1022,-1288,127387,40,19235,164,0,33438,0.0010000000000000009
403999,9457,-364,127564,-137,-814,126446,47,19234,192,1,33439,0.0010000000000000009
404999,12485,1172,127946,2276,780,125479,41,19239,168,1,33440,0.0010000000000000009
406000,9420,31,127856,-235,-1023,127795,46,19233,188,1,33441,0.0010009999999999741
406999,6079,-387,127788,-3260,-1803,127174,44,19233,188,1,33442,0.0009990000000000276
407999,5411,1143,128312,-2901,312,128039,38,19235,180,1,33443,0.0010000000000000009
409000,7414,2621,127846,-652,1897,126622,38,19237,156,1,33444,0.0010009999999999741
410000,9318,1765,127852,681,1223,125719,36,19240,147,1,33445,0.0010000000000000009
411001,10415,1350,127088,175,440,125791,37,19236,152,1,33446,0.0010010000000000296
412000,10990,-3146,126286,1757,-3618,126955,44,19232,180,1,33447,0.0009989999999999721
412999,7573,1829,128286,204,1124,127000,50,19232,180,1,33448,0.0009990000000000276
413999,6012,1399,128465,-5212,394,127406,53,19233,205,0,33449,0.0010000000000000009
414999,4620,3443,128588,-4030,2550,125776,53,19236,217,0,33450,0.0010000000000000009
415999,8596,-2313,127442,580,-3213,129958,37,19237,152,0,33451,0.0010000000000000009
416999,10013,-708,126666,1494,-1456,123596,36,19238,147,0,33452,0.0010000000000000009
417999,10576,70,126798,1669,-462,127674,41,19236,168,0,33453,0.0009999999999999454
418999,9845,799,127649,-1197,-31,125401,39,19236,168,0,33454,0.0010000000000000009
419999,8201,2397,128247,-656,1495,129435,39,19236,160,0,33455,0.0010000000000000009
420999,6225,887,128126,-1380,-187,125597,39,19241,160,0,33456,0.0010000000000000009
421999,5797,3468,128093,-2398,424,126321,38,19236,156,0,33457,0.0010000000000000009
422999,8721,-2967,127046,-776,-3477,129075,41,19232,168,1,33458,0.0010000000000000009
423999,10075,452,127161,957,892,124361,38,19236,156,1,33459,0.0010000000000000009
424999,10889,996,128197,1461,-77,127623,43,19236,156,1,33460,0.0010000000000000009
425999,7442,-34,127741,-2713,-151,125943,44,19232,176,1,33461,0.0010000000000000009
426999,5743,-224,128586,-2475,-2197,130373,44,19236,180,1,33462,0.0010000000000000009
427999,6545,156,128154,-1701,1182,127155,38,19238,156,1,33463,0.0010000000000000009
428999,7996,4008,127524,-232,2702,124145,33,19238,135,1,33464,0.0010000000000000009
430000,9227,1361,126939,-143,-549,126723,35,19233,143,1,33465,0.0010010000000000296
430999,10212,-1606,126670,1458,-2506,126580,42,19233,143,1,33466,0.0009989999999999721
432001,8362,-857,127863,-657,-1536,128591,47,19236,172,1,33467,0.0010020000000000029
433000,6420,1729,128440,-4501,1553,126251,47,19232,192,0,33468,0.0009990000000000276
434000,5919,2363,129023,-1962,1145,127829,49,19238,201,0,33469,0.0010000000000000009
434999,8270,463,128004,401,-727,127505,41,19239,168,0,33470,0.0009989999999999721
435999,8404,239,126956,-39,-1177,126077,39,19236,160,0,33471,0.0010000000000000009
436999,9896,-1614,126634,328,-1450,126212,38,19236,156,0,33472,0.0010000000000000009
437999,9006,1378,127534,-35,1178,126089,37,19238,156,0,33473,0.0010000000000000009
438999,8288,1657,128267,-2825,365,128232,37,19238,152,0,33474,0.0010000000000000009
439999,6132,2334,128250,-1572,-404,127489,37,19237,152,0,33475,0.0010000000000000009
440999,6638,1617,128358,-1114,521,127231,36,19242,147,0,33476,0.0010000000000000009
441999,8334,1792,127175,-459,251,126032,40,19235,164,0,33477,0.0010000000000000009
442999,9710,381,127653,-711,164,125612,46,19235,188,1,33478,0.0010000000000000009
443999,9454,1393,127589,798,481,126478,40,19235,188,1,33479,0.0010000000000000009
445000,8762,279,126831,1177,-317,125906,40,19236,164,1,33480,0.0010010000000000296
445999,5870,453,128654,-5802,-514,128171,40,19238,164,1,33481,0.0009989999999999721
446999,7017,-690,128580,-882,-1505,128647,40,19236,164,1,33482,0.0010000000000000009
447999,8448,971,127547,2095,379,127228,34,19238,139,1,33483,0.0010000000000000009
448999,9906,2366,127525,-2045,1601,125030,33,19238,135,1,33484,0.0010000000000000009
449999,10437,778,126329,315,-17,124443,38,19238,135,1,33485,0.0010000000000000009
451001,9744,-250,127205,2503,-1067,127887,41,19237,156,1,33486,0.0010020000000000029
451999,6776,101,127678,-1185,-983,127992,41,19236,168,1,33487,0.0009979999999999989
452999,5218,1292,128160,-5549,637,127102,49,19238,201,0,33488,0.0010000000000000009
453999,8107,2636,128565,-1029,1918,127132,38,19236,156,0,33489,0.0010000000000000009
455001,9372,490,127592,2224,-235,126833,40,19234,164,0,33490,0.0010020000000000029
456002,10207,-1442,127026,-1328,-2278,126382,39,19234,164,0,33491,0.0010009999999999741
456999,9781,-2276,126875,182,-3235,127004,40,19239,160,0,33492,0.0009970000000000256
457999,8325,1216,127474,3818,803,125593,40,19237,164,0,33493,0.0010000000000000009
458999,6771,4882,128500,-4055,3843,127676,39,19238,160,0,33494,0.0010000000000000009
460000,6193,-1258,127352,-6619,-2141,129232,36,19241,147,0,33495,0.0010009999999999741
460999,7613,5218,128588,2395,4422,124187,40,19240,164,0,33496,0.0009990000000000276
462000,8013,-447,127526,1769,-1324,127638,45,19240,164,0,33497,0.0010009999999999741
462999,8496,-3663,127177,-5921,-4511,127187,42,19236,184,1,33498,0.0009990000000000276
463999,9700,-2614,127879,2573,-3378,128235,42,19236,172,1,33499,0.0010000000000000009
465000,11182,5256,127172,1872,3946,121127,41,19235,168,1,33500,0.0010009999999999741
466000,6116,8214,128828,2601,7867,130073,42,19234,172,1,33501,0.0010000000000000009
466999,9190,-6348,127313,-11539,-6633,128628,38,19239,156,1,33502,0.0009990000000000276
468001,10868,2695,129319,4203,1444,126695,35,19239,156,1,33503,0.0010020000000000029
468999,8315,-3209,127441,9771,-5435,128357,34,19236,143,1,33504,0.0009979999999999989
470002,7236,-2330,126936,-10515,-1747,123987,34,19234,139,1,33505,0.0010029999999999761
470999,6756,-782,126669,-1777,680,130826,42,19235,172,1,33506,0.0009970000000000256
471999,6825,8549,127183,6056,11857,119724,47,19235,192,0,33507,0.0010000000000000009
473002,6802,10346,128617,-8955,3494,126508,46,19242,188,0,33508,0.0010029999999999761
474000,11467,-5612,126772,11540,-9539,131209,40,19242,188,0,33509,0.0009979999999999989
474999,9372,-3806,127401,-1512,-5521,126996,39,19238,164,0,33510,0.0009990000000000276
475999,12814,-4483,129268,-2584,-4654,129326,39,19235,160,0,33511,0.0010000000000000009
476999,6842,-741,127274,8505,-958,127028,39,19236,160,0,33512,0.0009999999999999454
477999,5676,2861,127662,-9987,5224,125475,38,19239,156,0,33513,0.0010000000000000009
478999,5307,11949,127919,-6675,10283,121414,41,19236,168,0,33514,0.0010000000000000009
479999,9047,2330,126461,3333,-1826,128690,39,19236,160,0,33515,0.0010000000000000009
480999,12704,-2732,126970,7340,-2662,126887,43,19238,160,0,33516,0.0010000000000000009
481999,9086,-2384,127455,-2206,-3798,127148,46,19234,176,1,33517,0.0010000000000000009
482999,10833,-2020,128111,-2675,-2611,128724,46,19237,188,1,33518,0.0010000000000000009
483999,8529,-2308,128009,4218,-2688,129125,43,19236,176,1,33519,0.0010000000000000009
484999,6315,3102,127983,-3489,4068,125303,44,19237,180,1,33520,0.0010000000000000009
485999,4081,5721,128125,-5960,3152,124717,43,19237,176,1,33521,0.0010000000000000009
486999,7736,-1377,127246,-3775,-2620,128720,37,19236,176,1,33522,0.0010000000000000009
487999,13468,1106,127512,8659,1487,125651,38,19240,152,1,33523,0.0010000000000000009
488999,9075,3549,127724,3029,2148,124926,38,19237,156,1,33524,0.0010000000000000009
489999,9395,-2303,127198,-6479,-4268,128207,41,19237,168,1,33525,0.0010000000000000009
490999,7454,-4905,127554,1103,-4513,130226,48,19235,197,1,33526,0.0010000000000000009
491999,7746,4577,129315,-63,5187,125517,54,19235,221,0,33527,0.0010000000000000009
492999,6585,5045,129203,-5214,3028,124269,43,19238,221,0,33528,0.0010000000000000009
493999,7588,-3138,127624,-3285,-4936,129852,43,19236,176,0,33529,0.0010000000000000009
495003,10267,-4102,126801,5937,-4177,129127,43,19236,176,0,33530,0.0010040000000000049
495999,9261,4149,127254,424,4458,123355,41,19237,168,0,33531,0.0009959999999999969
497001,9419,2618,127363,-3023,1011,125942,41,19234,168,0,33532,0.0010020000000000029
497999,8074,-1784,126972,-293,-2203,128611,39,19234,160,0,33533,0.0009979999999999989
499001,8872,4241,128797,-1839,3755,125591,40,19234,160,0,33534,0.0010020000000000029
499999,6677,962,128252,790,-742,127243,42,19234,164,0,33535,0.0009979999999999989
500999,6748,-3637,127493,-2482,-4897,128365,42,19236,172,0,33536,0.0010000000000000009
501999,9083,-2382,127566,-734,-2844,128958,49,19236,201,1,33537,0.0010000000000000009
502999,9062,5007,127915,637,4558,123572,48,19239,197,1,33538,0.0010000000000000009
503999,10727,2665,126906,788,1504,126140,42,19239,172,1,33539,0.0010000000000000009
504999,7442,-2488,126542,-3470,-3364,127961,42,19239,172,1,33540,0.0010000000000000009
506002,7941,3379,127981,-1090,2715,125902,37,19237,172,1,33541,0.0010029999999999761
507001,7964,2871,128514,1309,2037,127676,37,19238,152,1,33542,0.0009989999999999721
508001,7790,-228,128108,-2537,-1245,127475,36,19240,147,1,33543,0.0010000000000000009
508999,10703,-4456,126659,670,-5007,128291,38,19239,156,1,33544,0.0009980000000000544
509999,9428,4193,128045,2437,3101,125201,43,19235,176,1,33545,0.0010000000000000009
510999,8298,748,126959,-697,235,127424,50,19235,176,1,33546,0.0010000000000000009
512000,6363,345,127480,-4410,-781,126844,45,19233,205,0,33547,0.0010010000000000296
512999,8761,4208,128485,-1327,3254,125430,45,19240,184,0,33548,0.0009989999999999721
513999,9302,1891,127938,1449,1522,127818,42,19233,172,0,33549,0.0010000000000000009
514999,8519,-4662,127107,1649,-7019,129762,42,19237,172,0,33550,0.0010000000000000009
515999,9224,-4241,127112,-992,-1092,126437,41,19233,168,0,33551,0.0010000000000000009
517000,9514,4141,128304,-1689,4550,124753,42,19233,168,0,33552,0.0010010000000000296
518000,8442,3469,128315,944,787,127832,41,19236,172,0,33553,0.0010000000000000009
519000,6371,201,127453,-2487,-600,127752,41,19235,168,0,33554,0.0010000000000000009
519999,6456,963,127528,-1575,1072,126213,41,19234,168,0,33555,0.0009989999999999721
521000,8715,2204,127794,1900,-30,126537,45,19234,184,1,33556,0.0010010000000000296
521999,10185,-1894,126953,1856,-2955,128435,41,19238,168,1,33557,0.0009989999999999721
522999,10780,-727,127294,-653,-200,126031,44,19238,168,1,33558,0.0010000000000000009
523999,7556,1867,128222,-2104,458,126583,47,19233,180,1,33559,0.0010000000000000009
524999,6166,200,128394,-2121,-1111,128426,47,19236,192,1,33560,0.0010000000000000009
525999,5838,203,127955,-2586,-586,128355,40,19237,164,1,33561,0.0010000000000000009
526999,8002,2363,127905,-1245,2854,125054,37,19236,152,1,33562,0.0010000000000000009
528000,9701,2720,127190,1302,981,125491,36,19235,147,1,33563,0.0010010000000000296
529000,11240,-2965,126183,2985,-4157,128571,41,19235,168,1,33564,0.0010000000000000009
530016,9454,-699,127058,-224,-92,126176,48,19235,168,1,33565,0.0010159999999999059
531001,6653,2570,128019,-4293,2443,126378,52,19241,197,1,33566,0.0009850000000000136
532001,5427,3986,128763,-4211,2513,126665,52,19238,213,0,33567,0.0010000000000000009
533001,7393,-687,128004,-477,-2354,129398,41,19241,168,0,33568,0.0010000000000000009
534001,8572,-1055,127374,528,-1229,126209,38,19238,156,0,33569,0.0010000000000000009
535000,9788,-1016,126732,891,-2383,126403,42,19238,172,0,33570,0.0009990000000000832
535999,10917,-2162,126681,1019,-1761,127052,38,19236,172,0,33571,0.0009989999999999721
536999,9211,3064,128061,-392,2624,126115,40,19241,156,0,33572,0.0010000000000000009
537999,7401,4253,128129,-1800,3228,126321,40,19235,164,0,33573,0.0010000000000000009
539002,5452,3370,127974,-3532,1919,126748,38,19234,156,0,33574,0.0010029999999999761
540000,7677,-2966,126914,-549,-3841,129142,38,19236,156,0,33575,0.0009979999999999434
541003,9021,833,127739,900,1273,125500,46,19235,188,1,33576,0.0010030000000000872
541999,11460,134,126909,1807,-1374,126279,42,19235,188,1,33577,0.0009959999999999969
542999,9986,-1563,127289,-1793,-2160,127948,46,19236,172,1,33578,0.0010000000000000009
543999,6179,2169,128295,-1300,1320,126644,46,19236,188,1,33579,0.0010000000000000009
544999,6452,592,127733,-3066,-176,128395,44,19236,180,1,33580,0.0010000000000000009
545999,6540,3535,128225,-1924,2343,125261,36,19239,147,1,33581,0.0010000000000000009
546999,10018,-553,126995,-62,-1416,127859,34,19238,139,1,33582,0.0010000000000000009
548000,10497,573,127075,2650,169,124861,38,19238,139,1,33583,0.0010009999999999186
548999,8219,822,127327,1201,-410,126825,45,19238,156,1,33584,0.0009990000000000832
550002,7463,-2620,127608,-4377,-3171,128800,45,19237,184,1,33585,0.0010029999999999761
551000,5643,2705,128929,-2764,1704,126683,50,19235,205,0,33586,0.0009979999999999434
551999,8645,2797,128690,-515,2051,127735,40,19235,164,0,33587,0.0009990000000000832
553001,8144,954,127084,-531,-191,125343,42,19239,172,0,33588,0.0010019999999999474
553999,9484,-3205,126798,-562,-3946,128425,40,19239,172,0,33589,0.0009980000000000544
554999,10241,-1110,126610,2368,-1797,126298,40,19233,164,0,33590,0.0010000000000000009
555999,7967,3954,128358,-586,3087,125297,40,19239,164,0,33591,0.0010000000000000009
556999,7004,140,127956,-4763,-611,128507,38,19239,156,0,33592,0.0010000000000000009
557999,6098,870,128135,-1045,-211,127996,40,19237,164,0,33593,0.0010000000000000009
558999,8072,641,127980,-525,-306,126674,38,19236,156,0,33594,0.0010000000000000009
559999,8413,477,126931,374,-230,125606,42,19236,156,0,33595,0.0010000000000000009
560999,9835,-526,127077,-2218,-1296,126597,42,19235,172,1,33596,0.0010000000000000009
561999,10759,1502,127570,2088,1752,125655,42,19238,172,1,33597,0.0010000000000000009
562999,6942,1761,127639,1445,-1256,127457,41,19238,168,1,33598,0.0010000000000000009
563999,6017,-1237,128023,-6977,-1756,128207,43,19233,176,1,33599,0.0010000000000000009
564999,7214,526,128144,-1043,52,127752,37,19242,152,1,33600,0.0010000000000000009
565999,9083,2573,128120,3338,2039,125320,30,19242,152,1,33601,0.0010000000000000009
566999,9814,1686,127338,-1837,-706,125339,35,19237,123,1,33602,0.0009999999999998899
568001,10361,-2233,126385,908,-2549,127573,35,19238,143,1,33603,0.0010020000000000584
568999,8984,1024,127579,2511,1374,126509,40,19238,164,1,33604,0.0009979999999999434
569999,6103,1941,127775,-4315,874,127095,48,19234,197,0,33605,0.0010000000000000009
570999,5539,1824,128120,-5214,683,127175,43,19236,176,0,33606,0.0010000000000000009
571999,8376,1700,128599,2374,1349,127455,38,19236,156,0,33607,0.0010000000000000009
572999,9785,-632,127220,1124,-1290,126976,41,19236,156,0,33608,0.0010000000000000009
573999,9461,-858,127461,-1032,-1252,125879,40,19236,168,0,33609,0.0010000000000000009
574999,9227,-2727,126630,-309,-2887,128300,40,19239,164,0,33610,0.0010000000000000009
576000,8319,885,128625,-1315,2146,127735,37,19235,152,0,33611,0.0010010000000000296
576999,5164,6284,128820,-3812,4244,125458,39,19236,160,0,33612,0.0009989999999999721
577999,6315,-667,127431,-2058,-3952,130512,38,19236,156,0,33613,0.0010000000000000009
578999,8701,-2636,125899,3047,186,122471,41,19238,156,0,33614,0.0010000000000000009
579999,10635,7766,128437,239,5181,125832,50,19236,168,1,33615,0.0010000000000000009
581000,10960,-4173,126707,-3448,-4496,127595,50,19233,205,1,33616,0.0010010000000000296
581999,9474,3381,128563,2366,1801,126016,40,19236,164,1,33617,0.0009989999999999721
582999,5702,-2908,128910,1125,-3986,131252,44,19240,180,1,33618,0.0010000000000000009
583999,4896,-2350,126756,-5110,-3524,127282,40,19240,164,1,33619,0.0010000000000000009
585004,7235,651,128731,-2131,309,129324,34,19237,164,1,33620,0.0010050000000000336
585999,11296,5011,127047,835,6256,120358,35,19237,139,1,33621,0.0009949999999999681
586999,12069,8230,127271,1400,5497,125501,35,19240,143,1,33622,0.0010000000000000009
587999,7556,-9016,126449,2261,-10317,130205,39,19235,160,1,33623,0.0010000000000000009
588999,6951,-1140,126360,-3116,-1088,126700,46,19230,188,1,33624,0.0010000000000000009
589999,6390,5502,129930,-3501,5293,127917,53,19231,217,0,33625,0.0010000000000000009
590999,6097,3237,128001,-1063,1483,125044,39,19231,217,0,33626,0.0010000000000000009
591999,11153,-1635,126952,-712,-1659,128674,37,19237,160,0,33627,0.0010000000000000009
592999,8511,143,127660,3394,-944,125606,37,19237,152,0,33628,0.0010000000000000009
593999,10827,-2570,126561,-3402,-3081,126276,38,19237,156,0,33629,0.0010000000000000009
594999,9428,-429,128062,2413,-1056,128754,42,19235,172,0,33630,0.0010000000000000009
595999,6818,4731,128646,3148,3977,125801,40,19235,164,0,33631,0.0010000000000000009
596999,5844,4088,127054,-10099,2942,126380,40,19235,164,0,33632,0.0010000000000000009
597999,8072,-1726,127458,-396,-2557,127148,40,19233,164,0,33633,0.0010000000000000009
598999,11290,878,126883,7786,181,126152,40,19236,164,0,33634,0.0010000000000000009
600002,8848,2466,127884,-2340,1868,125201,43,19238,176,1,33635,0.0010029999999999761
600999,10387,-2427,127853,-5783,-3572,127386,38,19240,156,1,33636,0.0009970000000000256
601999,9791,-3145,127380,6518,-4122,131009,45,19235,184,1,33637,0.0010000000000000009
602999,5035,3019,128349,397,1773,125425,43,19235,184,1,33638,0.0010000000000000009
603999,5778,2748,127814,-9414,2010,125897,40,19233,176,1,33639,0.0010000000000000009
605001,9814,-42,126873,-1291,-1317,127511,40,19236,164,1,33640,0.0010020000000000584
605999,10971,5358,127855,8767,4543,123814,35,19237,143,1,33641,0.0009979999999999434
606999,9241,787,126980,-3851,424,125880,37,19234,152,1,33642,0.0010000000000000009
607999,8659,-4799,127464,-4541,-5249,131400,43,19235,176,1,33643,0.0010000000000000009
608999,7072,-6173,128121,7759,-2952,131173,51,19235,176,0,33644,0.0010000000000000009
609999,5653,8572,128923,-5539,11083,118928,44,19233,209,0,33645,0.0010000000000000009
610999,7996,6873,128780,-9259,-295,128842,44,19236,180,0,33646,0.0010000000000000009
611999,8725,-4469,126165,6708,-5048,129137,40,19241,164,0,33647,0.0010000000000000009
612999,10855,-2089,126475,1305,-1353,125359,43,19234,176,0,33648,0.0010000000000000009
613999,8902,2434,128247,-353,2960,124360,41,19238,168,0,33649,0.0010000000000000009
614999,9384,1780,128076,719,-1498,128962,41,19238,168,0,33650,0.0010000000000000009
615999,7651,-3215,127979,-2669,-2606,130164,40,19239,168,0,33651,0.0010000000000000009
616999,5803,3315,128496,-2090,3556,124459,40,19236,164,0,33652,0.0010000000000000009
617999,7884,2571,127320,-462,426,125965,41,19236,168,0,33653,0.0010000000000000009
619004,8845,-73,127242,1034,-1765,126859,43,19239,176,0,33654,0.0010050000000000336
619999,10475,-1224,127265,-1569,-1260,127522,54,19234,221,1,33655,0.0009949999999999681
621001,9042,2733,127806,1389,3094,124359,40,19234,164,1,33656,0.0010020000000000584
621999,8661,-88,127942,827,-3347,129222,43,19238,164,1,33657,0.0009979999999999434
623001,6876,-3989,127238,-3401,-3475,128406,41,19236,176,1,33658,0.0010020000000000584
623999,7309,3297,128331,-1313,3306,125746,41,19237,168,1,33659,0.0009979999999999434
624999,8342,3344,128126,211,1584,125901,37,19235,152,1,33660,0.0010000000000000009
625999,10379,1032,126940,600,-804,126016,37,19237,152,1,33661,0.0010000000000000009
626999,10076,-2155,127130,1285,-2748,127924,39,19237,160,1,33662,0.0010000000000000009
627999,8822,1551,127367,970,860,125552,46,19238,160,1,33663,0.0010000000000000009
629001,7518,214,127723,-2452,-1270,128885,50,19235,188,0,33664,0.0010019999999999474
629999,6529,647,127886,-3097,853,126849,50,19237,205,0,33665,0.0009980000000000544
631000,8473,3800,128877,464,3042,125452,40,19237,164,0,33666,0.0010010000000000296
631999,8415,276,127355,-497,-1204,126769,40,19235,164,0,33667,0.0009989999999999721
632999,9985,-3955,126778,712,-5118,128270,43,19235,176,0,33668,0.0010000000000000009
634000,9822,-1975,127469,1051,-1863,127608,42,19237,176,0,33669,0.0010010000000000296
634999,8813,5203,128753,-1180,4811,124108,42,19236,172,0,33670,0.0009989999999999721
636000,6877,1251,128147,-1857,-418,128730,42,19236,172,0,33671,0.0010010000000000296
636999,6626,-385,127564,-1680,-1072,128056,42,19233,172,0,33672,0.0009989999999999721
637999,8264,1502,127683,-121,825,125820,41,19234,168,0,33673,0.0010000000000000009
638999,9269,2982,127530,370,1244,125040,48,19235,197,1,33674,0.0010000000000000009
639999,10907,-1026,127841,914,-1599,128159,41,19235,197,1,33675,0.0010000000000000009
641000,10253,-989,128382,-17,-1487,127923,44,19241,168,1,33676,0.0010010000000000296
641999,6523,-404,127984,-201,-1225,127270,44,19238,180,1,33677,0.0009989999999999721
643000,5573,1660,128515,-3387,630,128139,44,19232,180,1,33678,0.0010010000000000296
643999,7162,1978,127767,-3248,1073,125785,37,19238,152,1,33679,0.0009989999999999721
644999,9506,2251,127350,912,1650,127158,37,19239,152,1,33680,0.0010000000000000009
645999,10659,2412,126958,2095,1716,124022,37,19239,152,1,33681,0.0010000000000000009
646999,9913,-3332,126667,609,-4126,127639,43,19236,152,1,33682,0.0010000000000000009
647999,8714,-438,128197,-1396,-1296,127890,43,19236,176,1,33683,0.0010000000000000009
648999,6363,1528,128560,-1180,450,127253,50,19238,205,0,33684,0.0010000000000000009
650001,4862,2680,128719,-4601,1853,126984,48,19240,197,0,33685,0.0010019999999999474
650999,8187,-98,126940,-2201,-879,126963,40,19240,164,0,33686,0.0009980000000000544
652001,9798,197,126998,1758,-484,125422,38,19240,164,0,33687,0.0010019999999999474
652999,11275,-342,126946,1918,-666,126539,38,19241,156,0,33688,0.0009980000000000544
653999,9616,-700,127219,683,-1729,127140,38,19236,156,0,33689,0.0010000000000000009
654999,8408,1181,128321,-1943,255,127677,37,19240,152,0,33690,0.0010000000000000009
655999,6329,2387,128225,-1076,1560,126408,38,19235,156,0,33691,0.0010000000000000009
656999,6581,2407,128033,-2001,-408,127517,40,19236,164,0,33692,0.0010000000000000009
657999,8305,-880,126941,-815,-1752,126696,42,19236,164,1,33693,0.0010000000000000009
658999,9586,1852,127472,20,962,125306,38,19236,172,1,33694,0.0010000000000000009
659999,11694,132,127672,1714,-1477,127519,38,19236,156,1,33695,0.0010000000000000009
660999,7452,-1170,127890,-2450,-1729,127588,42,19234,172,1,33696,0.0010000000000000009
661999,6028,84,128396,-3045,-983,128639,44,19238,180,1,33697,0.0010000000000000009
662999,5941,1691,128035,-1598,2651,126441,41,19238,168,1,33698,0.0010000000000000009
663999,8387,3447,128024,-827,1631,126025,34,19238,139,1,33699,0.0010000000000000009
665008,9763,-132,126441,136,-1033,126085,36,19240,139,1,33700,0.0010089999999999266
666001,10285,107,126955,1688,-371,125813,42,19239,147,1,33701,0.0009930000000000216
666999,8809,-1016,127739,396,-2232,128258,42,19233,172,1,33702,0.0009980000000000544
667999,6360,628,128141,-4142,642,127048,50,19236,205,0,33703,0.0010000000000000009
668999,5415,1352,128939,-3257,475,128478,44,19237,180,0,33704,0.0010000000000000009
669999,7835,2428,127829,14,1455,125827,40,19237,164,0,33705,0.0010000000000000009
670999,8512,1008,127322,-50,-1058,126575,42,19240,164,0,33706,0.0010000000000000009
671999,10477,-1935,126732,447,-3528,126238,41,19239,172,0,33707,0.0010000000000000009
672999,9457,1295,127282,451,564,126010,41,19235,168,0,33708,0.0010000000000000009
673999,8855,2252,128642,-2589,715,127793,39,19238,160,0,33709,0.0010000000000000009
674999,5799,86,127994,-1038,-732,127928,38,19236,156,0,33710,0.0010000000000000009
675999,5660,1840,128263,-2396,835,127403,36,19236,147,0,33711,0.0010000000000000009
676999,9226,1978,127429,-1567,1087,125083,40,19238,147,0,33712,0.0010000000000000009
677999,9170,-690,126595,1779,-1402,127404,49,19235,164,1,33713,0.0010000000000000009
679002,9564,1425,127683,-1082,1188,124976,49,19236,201,1,33714,0.0010029999999999761
679999,9183,487,127058,778,-818,126928,41,19236,168,1,33715,0.0009970000000000256
680999,6278,-666,128207,-3981,-1583,128516,40,19239,164,1,33716,0.0010000000000000009
682000,6584,-476,128157,-1017,-1199,128074,37,19237,152,1,33717,0.0010009999999999186
682999,7587,954,127713,-426,334,127701,34,19237,152,1,33718,0.0009990000000000832
683999,9391,3848,127943,-1363,3024,124018,33,19239,139,1,33719,0.0010000000000000009
684999,10402,226,126632,1029,-715,125961,33,19238,135,1,33720,0.0009999999999998899
685999,10314,-347,126917,1271,-1216,127188,37,19234,152,1,33721,0.0010000000000000009
686999,7024,244,127805,-564,-893,127363,43,19233,176,1,33722,0.0010000000000000009
687999,6060,-127,127230,-3393,-813,127434,49,19235,201,0,33723,0.0010000000000000009
688999,7294,4651,128342,-980,3611,125298,41,19235,201,0,33724,0.0010000000000000009
689999,9129,-19,127608,-1326,-1112,128603,39,19239,168,0,33725,0.0010000000000000009
690999,10574,-532,127415,-592,-1202,125266,39,19236,160,0,33726,0.0010000000000000009
691999,9065,-1420,127348,3458,-2455,126712,38,19236,156,0,33727,0.0010000000000000009
692999,7831,-614,127805,-352,-1560,127724,39,19236,160,0,33728,0.0010000000000000009
693999,6528,-614,127882,-4544,-1570,128974,37,19234,152,0,33729,0.0010000000000000009
694999,6409,3722,128575,-3449,2708,127847,38,19234,152,0,33730,0.0010000000000000009
696002,7349,7123,128071,-138,6183,122756,41,19241,156,0,33731,0.0010030000000000872
696999,7289,-1044,127842,-793,-1447,127769,41,19236,168,0,33732,0.0009969999999999146
697999,8685,-6161,126776,-2482,-6957,128003,46,19233,188,1,33733,0.0010000000000000009
698999,11836,-1289,127339,3463,-2161,123210,36,19236,147,1,33734,0.0010000000000000009
699999,9026,9156,128721,5937,8547,127485,42,19238,172,1,33735,0.0010000000000000009
700999,8871,-2847,127362,-11363,-2857,127860,41,19238,172,1,33736,0.0010000000000000009
701999,8035,3445,129180,375,2184,128797,37,19237,168,1,33737,0.0010000000000000009
702999,6514,-2052,128090,7954,-3086,127486,37,19239,152,1,33738,0.0010000000000000009
703999,7991,-818,127545,-10061,-2408,124908,35,19242,143,1,33739,0.0010000000000000009
704999,9465,-2465,126797,2223,-3539,129785,37,19234,152,1,33740,0.0010000000000000009
705999,8481,6662,127105,6255,8107,121852,42,19233,172,1,33741,0.0010000000000000009
706999,8624,8658,127327,-5626,4292,124042,48,19233,172,1,33742,0.0010000000000000009
707999,5673,-831,128047,4479,-3469,130761,46,19234,197,0,33743,0.0010000000000000009
708999,10391,-3712,127908,-3668,-3340,127972,40,19235,188,0,33744,0.0010000000000000009
709999,10311,-1037,128655,-2329,-1620,125918,40,19240,164,0,33745,0.0010000000000000009
710999,9287,-2272,127404,10280,-3434,129069,40,19240,164,0,33746,0.0010000000000000009
711999,7147,-1029,127121,-8522,1,125174,37,19241,152,0,33747,0.0010000000000000009
712999,8540,4874,127183,-3306,5100,125547,37,19241,152,0,33748,0.0010000000000000009
713999,8123,4753,127459,5181,2988,126846,38,19238,152,0,33749,0.0010000000000000009
714999,8662,2595,127159,-4315,1116,124282,38,19240,156,0,33750,0.0010000000000000009
715999,9716,29,128311,-255,-2763,128185,38,19236,156,0,33751,0.0010000000000000009
717002,9169,-4123,127411,7330,-5078,130373,46,19238,188,1,33752,0.0010029999999999761
717999,8398,-2371,127728,-5803,-2029,126511,44,19238,180,1,33753,0.0009970000000000256
718999,8909,3399,128201,-1356,3512,125017,41,19238,168,1,33754,0.0010000000000000009
719999,7731,3096,127578,798,1212,126795,42,19238,168,1,33755,0.0010000000000000009
720999,6640,331,127659,-1246,-762,127493,42,19236,172,1,33756,0.0010000000000000009
721999,8020,-1931,127757,-4369,-2787,128261,42,19238,172,1,33757,0.0010000000000000009
722999,10903,3640,127814,3638,3798,123994,36,19239,147,1,33758,0.0010000000000000009
723999,9445,2053,127609,2789,-446,127062,38,19236,156,1,33759,0.0010000000000000009
725001,9696,-3172,126936,-2702,-3703,128121,43,19239,176,1,33760,0.0010020000000000584
725999,7338,-413,127403,-677,-797,127122,48,19239,176,1,33761,0.0009979999999999434
726999,7132,1889,128210,-1185,1410,127034,51,19236,197,0,33762,0.0010000000000000009
727999,7558,2854,128575,-3968,2004,125908,51,19236,209,0,33763,0.0010000000000000009
728999,8646,-1774,128159,221,-2463,129703,42,19236,172,0,33764,0.0010000000000000009
729999,9021,-61,127352,2384,-740,126372,42,19236,172,0,33765,0.0010000000000000009
730999,9377,-155,126597,78,-1085,126636,44,19236,180,0,33766,0.0010000000000000009
731999,9639,1194,127271,-685,864,125881,42,19236,180,0,33767,0.0010000000000000009
732999,9058,1876,127724,-358,1175,127034,41,19235,172,0,33768,0.0010000000000000009
733999,7641,2920,128589,-3362,2104,126708,41,19236,168,0,33769,0.0010000000000000009
734999,7011,-371,128144,436,-1575,128135,39,19232,160,0,33770,0.0010000000000000009
735999,7427,-2436,127474,15,-3309,128655,41,19235,168,0,33771,0.0010000000000000009
736999,9252,1325,128038,-1348,825,125800,48,19235,197,1,33772,0.0010000000000000009
737999,9473,2066,126996,-68,1564,126037,46,19235,197,1,33773,0.0010000000000000009
739000,11334,2406,127204,1093,1617,125574,43,19236,188,1,33774,0.0010010000000000296
739999,8020,1090,127341,-2084,192,126834,43,19239,176,1,33775,0.0009989999999999721
740999,7051,-1481,127971,-1780,-2672,128141,42,19237,172,1,33776,0.0010000000000000009
742000,7843,1104,128897,253,474,128024,37,19237,152,1,33777,0.0010010000000000296
742999,9345,-1745,127185,-360,-2796,128374,35,19235,143,1,33778,0.0009989999999999721
743999,10352,2695,127561,1568,1648,124611,38,19235,143,1,33779,0.0010000000000000009
744999,9264,-75,126877,949,-821,126368,43,19236,156,1,33780,0.0010000000000000009
745999,9312,1472,127063,-890,419,126375,43,19238,176,1,33781,0.0010000000000000009
747001,6748,1061,127978,-1525,454,128398,49,19234,201,0,33782,0.0010019999999999474
747999,7561,3490,127854,-1924,1416,124990,41,19238,168,0,33783,0.0009980000000000544
748999,8068,619,127845,-900,596,129341,40,19236,164,0,33784,0.0010000000000000009
749999,9159,-4146,127401,1266,-3860,127315,42,19236,164,0,33785,0.0010000000000000009
750999,10409,-898,127150,1215,-1167,126942,39,19234,172,0,33786,0.0010000000000000009
752001,8906,638,127463,-890,1986,125351,39,19237,160,0,33787,0.0010019999999999474
752999,8312,5979,128300,-1705,3728,125144,39,19238,160,0,33788,0.0009980000000000544
753999,6138,103,127747,-1749,-1883,129690,42,19234,172,0,33789,0.0010000000000000009
754999,6626,867,127856,-1315,442,125869,42,19236,172,0,33790,0.0010000000000000009
755999,7870,-220,127707,682,-2541,128509,45,19236,184,1,33791,0.0010000000000000009
756999,9788,176,127453,218,278,125452,36,19235,184,1,33792,0.0010000000000000009
757999,11919,1843,127697,1721,-557,126864,43,19236,147,1,33793,0.0010000000000000009
758999,7884,-1171,127842,-2189,-1104,127706,43,19231,176,1,33794,0.0010000000000000009
759999,6115,1440,128306,-2986,255,126361,46,19233,188,1,33795,0.0010000000000000009
760999,5234,-495,128023,-2252,-994,129603,42,19237,172,1,33796,0.0010000000000000009
761999,8258,2830,128254,-1809,2312,124857,35,19237,143,1,33797,0.0010000000000000009
762999,9724,711,126962,2282,-1034,127021,35,19236,143,1,33798,0.0010000000000000009
763999,10894,23,126899,1670,-437,125452,39,19239,143,1,33799,0.0010000000000000009
764999,10419,-954,126984,-268,-1897,126906,39,19237,160,1,33800,0.0010000000000000009
765999,7159,686,127695,-2632,869,127182,48,19237,197,1,33801,0.0010000000000000009
766999,5704,4035,129055,-4362,2462,126488,53,19231,217,0,33802,0.0010000000000000009
767999,5820,-324,128293,-1691,-1656,128380,42,19231,172,0,33803,0.0010000000000000009
769000,8688,-23,127897,506,-1300,126699,38,19237,172,0,33804,0.0010010000000000296
769999,10335,-2434,126650,1895,-3112,127051,39,19240,156,0,33805,0.0009989999999999721
770999,11079,197,126645,354,472,125440,39,19238,160,0,33806,0.0010000000000000009
771999,9333,393,127723,-471,-119,126813,39,19238,160,0,33807,0.0010000000000000009
772999,7345,3441,128265,-1971,2857,126431,37,19235,152,0,33808,0.0010000000000000009
773999,6086,689,127968,-2426,-1172,127770,38,19240,156,0,33809,0.0010000000000000009
775000,7060,213,128067,-327,-1074,127858,39,19240,156,0,33810,0.0010009999999999186
776000,8441,-1606,126745,625,-2416,127450,39,19232,160,1,33811,0.0010000000000000009
776999,11062,977,126986,399,240,124691,39,19239,160,1,33812,0.0009990000000000832
777999,9921,1983,127601,303,771,126625,40,19239,164,1,33813,0.0010000000000000009
779001,7627,-554,127742,-1641,-1324,127782,47,19236,192,1,33814,0.0010019999999999474
779999,5593,773,128220,-2567,-393,128299,41,19240,168,1,33815,0.0009980000000000544
780999,6100,1686,128289,-2966,902,127078,36,19240,168,1,33816,0.0010000000000000009
781999,9075,2815,127715,-131,2190,124638,34,19238,147,1,33817,0.0010000000000000009
782999,9453,-471,127106,1870,-1546,127098,34,19235,139,1,33818,0.0010000000000000009
784001,9501,-1240,126914,151,-2000,126847,39,19238,160,1,33819,0.0010019999999999474
784999,7425,-103,127771,-1525,-860,126770,47,19232,192,1,33820,0.0009980000000000544
785999,6731,3225,128916,-3321,2371,126836,53,19238,217,0,33821,0.0010000000000000009
787000,7746,1762,128716,-1083,1331,127464,40,19238,217,0,33822,0.0010009999999999186
788000,7804,-1178,127365,-434,-2294,127770,39,19237,164,0,33823,0.0010000000000000009
788999,9278,929,127338,-308,91,125845,39,19236,160,0,33824,0.0009990000000000832
790002,9650,-1082,126701,1300,-1835,126496,39,19236,160,0,33825,0.0010029999999999761
791000,8307,1577,127934,-669,828,126460,42,19236,172,0,33826,0.0009979999999999434
791999,7515,1478,128344,-3553,855,127584,40,19236,164,0,33827,0.0009990000000000832
792999,6730,2002,128326,-1313,937,126460,39,19236,164,0,33828,0.0010000000000000009
794000,7379,687,128113,-99,153,127807,39,19236,160,0,33829,0.0010009999999999186
794999,8225,-1122,126869,-1625,-2020,126113,39,19236,160,0,33830,0.0009990000000000832
795999,9474,1037,127436,-681,207,125726,43,19235,176,1,33831,0.0010000000000000009
797000,10264,1921,127638,1678,692,125903,35,19240,143,1,33832,0.0010009999999999186
797999,7409,818,127552,315,-1022,127872,42,19238,172,1,33833,0.0009990000000000832
798999,6200,-1034,128077,-5399,-1662,128356,38,19238,172,1,33834,0.0010000000000000009
799999,7825,471,127975,-1102,-77,127967,34,19234,156,1,33835,0.0010000000000000009
800999,8481,1845,128166,1064,1879,125656,34,19238,139,1,33836,0.0010000000000000009
801999,10145,1543,127216,-2342,-322,124817,33,19236,135,1,33837,0.0010000000000000009
802999,10133,-361,126564,1355,-1093,126860,36,19236,147,1,33838,0.0010000000000000009
803999,8574,1813,127374,1709,558,127068,40,19234,164,1,33839,0.0009999999999998899
804999,6522,148,127360,-3916,638,127613,49,19234,201,0,33840,0.0010000000000000009
806000,5328,3847,128579,-6285,3048,126307,41,19236,201,0,33841,0.0010010000000000296
806999,9393,-1783,128108,3691,-1291,128549,40,19238,168,0,33842,0.0009989999999999721
807999,10455,373,127717,710,-208,126241,40,19236,164,0,33843,0.0010000000000000009
808999,9433,-1301,127106,-260,-2155,126108,37,19236,152,0,33844,0.0010000000000000009
809999,8555,-396,127625,-1698,-494,127211,39,19235,160,0,33845,0.0010000000000000009
810999,7297,566,128622,-975,-321,128634,41,19235,168,0,33846,0.0010000000000000009
811999,6529,-8,127161,-2379,-1010,127929,36,19238,168,0,33847,0.0010000000000000009
813000,7249,4715,127398,808,5686,122815,40,19238,147,0,33848,0.0010010000000000296
813999,9188,3994,127473,-1714,386,127921,40,19236,164,0,33849,0.0009989999999999721
814999,11001,-2710,126829,-501,-1846,126225,43,19234,176,1,33850,0.0010000000000000009
816000,9032,1545,128550,1830,103,126516,46,19239,188,1,33851,0.0010010000000000296
817005,7999,-2623,127986,-1470,-4077,129294,42,19240,172,1,33852,0.0010050000000000336
817999,7092,-4653,127075,-2073,-5006,128942,43,19240,172,1,33853,0.0009939999999999394
818999,5192,4938,128590,4288,5355,127602,38,19235,176,1,33854,0.0010000000000000009
820000,9660,5885,127272,-12781,4843,122295,38,19237,156,1,33855,0.0010010000000000296
820999,12551,5156,128499,3974,4082,124481,35,19240,143,1,33856,0.0009989999999999721
821999,10898,-6830,126144,10800,-8804,131734,35,19237,143,1,33857,0.0010000000000000009
822999,6476,-2836,127375,-5798,-2350,126041,40,19233,164,1,33858,0.0010000000000000009
824000,5831,-620,127435,-8316,-1476,129084,46,19233,164,1,33859,0.0010010000000000296
824999,7193,7503,128675,5955,7621,124054,51,19234,188,0,33860,0.0009989999999999721
825999,6117,6606,127882,-5974,4546,125669,51,19234,209,0,33861,0.0010000000000000009
826999,11557,-3911,127097,-3844,-4182,127278,40,19240,164,0,33862,0.0010000000000000009
827999,10084,-3425,126633,9216,-4707,127562,38,19236,156,0,33863,0.0010000000000000009
828999,10717,-2996,128571,1306,-3227,128793,39,19235,160,0,33864,0.0010000000000000009
829999,8402,1574,127945,-7167,810,124837,39,19235,160,0,33865,0.0010000000000000009
831000,6127,1140,127953,3151,13,129541,38,19239,160,0,33866,0.0010010000000000296
832000,6087,6854,127363,-2672,5908,124296,38,19238,156,0,33867,0.0010000000000000009
832999,8200,1426,127129,-3400,762,125474,40,19232,164,0,33868,0.0009989999999999721
833999,10388,2603,127483,569,1770,124751,42,19233,172,0,33869,0.0010000000000000009
834999,11857,-2448,128166,4273,-2838,128312,51,19238,209,1,33870,0.0010000000000000009
836001,10296,-3885,127626,193,-5437,129723,41,19238,209,1,33871,0.0010020000000000584
837002,7319,-1295,128233,-1122,-2334,128576,46,19235,168,1,33872,0.0010009999999999186
837999,4691,1717,127363,-1464,-9,126243,46,19231,188,1,33873,0.0009970000000000256
838999,6485,7152,128386,-4747,6502,127109,41,19235,168,1,33874,0.0010000000000000009
839999,9789,-1902,125817,-1910,-2450,125783,37,19240,152,1,33875,0.0010000000000000009
840999,10768,4312,128181,4366,3693,124808,37,19237,152,1,33876,0.0010000000000000009
841999,9910,-2592,126821,1903,-2502,129072,42,19237,152,1,33877,0.0010000000000000009
842999,8372,-3864,127730,-1997,-3426,129359,49,19237,172,1,33878,0.0010000000000000009
843999,7229,-955,128668,324,-141,128897,49,19234,201,1,33879,0.0010000000000000009
844999,5762,5612,128259,-3244,6664,122856,53,19230,217,0,33880,0.0010000000000000009
845999,8656,4628,128266,-4987,-162,127517,41,19236,168,0,33881,0.0010000000000000009
846999,8451,-3005,126917,2211,-3596,128063,42,19238,172,0,33882,0.0010000000000000009
848002,9943,-1047,126666,146,-864,125958,41,19238,168,0,33883,0.0010029999999999761
849000,9314,782,127935,332,364,126582,41,19236,168,0,33884,0.0009980000000000544
849999,8899,1094,127844,-425,-825,127858,41,19239,168,0,33885,0.0009989999999999721
851000,7749,-216,127988,-2294,-240,127947,41,19240,168,0,33886,0.0010010000000000296
852001,6552,4103,128336,-1772,3311,125098,39,19238,160,0,33887,0.0010010000000000296
852999,8376,737,127751,-182,-1350,127424,40,19238,164,0,33888,0.0009979999999999434
853999,8162,-1513,127253,-162,-1679,126846,46,19238,188,0,33889,0.0010000000000000009
854999,9697,374,127907,-881,86,127418,55,19235,188,1,33890,0.0010000000000000009
855999,8665,609,127428,1871,735,126247,44,19242,225,1,33891,0.0010000000000000009
856999,9072,610,127767,-1339,-664,127684,44,19236,180,1,33892,0.0010000000000000009
857999,8175,-1477,127302,-1419,-1588,127749,40,19239,164,1,33893,0.0010000000000000009
858999,7497,3263,127994,-890,2998,124658,38,19243,156,1,33894,0.0010000000000000009
859999,8472,1568,128319,-971,-467,128053,34,19243,139,1,33895,0.0010000000000000009
860999,9721,-1062,127265,1951,-1752,126655,38,19235,139,1,33896,0.0010000000000000009
861999,9356,-441,127299,671,-1262,127503,42,19235,156,1,33897,0.0010000000000000009
862999,8444,1095,127549,-596,694,125720,42,19238,172,1,33898,0.0010000000000000009
863999,7924,959,127366,-1893,-322,127314,48,19236,197,0,33899,0.0010000000000000009
864999,6912,1375,128048,-1748,1245,127381,50,19237,205,0,33900,0.0010000000000000009
865999,8730,3687,128556,-1112,2983,124805,41,19235,168,0,33901,0.0010000000000000009
867000,8548,-1399,127429,-339,-2780,128373,42,19235,168,0,33902,0.0010010000000000296
868000,9409,-3337,127150,2203,-4240,127723,41,19241,172,0,33903,0.0010000000000000009
868999,9388,-1639,127451,-56,-1986,127826,41,19238,168,0,33904,0.0009989999999999721
869999,8569,3003,128287,-1576,2680,125247,41,19237,168,0,33905,0.0010000000000000009
871000,7697,1736,127456,-1191,477,126307,39,19242,160,0,33906,0.0010010000000000296
871999,7332,1107,127484,-1602,285,127804,41,19241,168,0,33907,0.0009989999999999721
873001,7351,2495,127900,-157,1322,124740,43,19241,168,0,33908,0.0010019999999999474
874001,9777,-2142,126769,294,-3101,128785,49,19237,176,1,33909,0.0010000000000000009
874999,10536,768,128232,1277,693,125703,49,19238,201,1,33910,0.0009980000000000544
875999,9812,-945,128140,428,-1829,127644,45,19231,184,1,33911,0.0010000000000000009
876999,7152,-1050,127908,-1760,-1866,127870,46,19237,188,1,33912,0.0010000000000000009
877999,5303,587,127874,-2328,-454,127579,41,19238,168,1,33913,0.0010000000000000009
879000,6947,1768,127905,-3595,913,127208,37,19238,168,1,33914,0.0010010000000000296
880000,9483,6054,127688,286,5479,123267,34,19237,152,1,33915,0.0010000000000000009
880999,10256,-1917,126530,3222,-2690,128298,34,19239,139,1,33916,0.0009989999999999721
881999,10116,-3085,126666,-280,-3973,126615,42,19236,172,1,33917,0.0010000000000000009
883000,8060,-216,128044,-407,-1295,127953,44,19233,180,1,33918,0.0010010000000000296
883999,6875,3810,128798,-2479,2734,126165,50,19235,205,0,33919,0.0009989999999999721
884999,4797,2527,128500,-3044,1982,126864,41,19235,205,0,33920,0.0010000000000000009
885999,7885,-125,126981,-2792,-1215,126115,38,19234,168,0,33921,0.0010000000000000009
886999,9917,15,126811,-10,-542,125825,38,19236,156,0,33922,0.0010000000000000009
887999,11223,-1679,126927,4375,-2288,127086,40,19236,164,0,33923,0.0010000000000000009
888999,9932,-204,127599,475,-1087,126626,39,19236,160,0,33924,0.0010000000000000009
889999,7547,1053,128312,-2612,865,127573,39,19240,160,0,33925,0.0010000000000000009
891000,6879,4016,128441,-998,2363,126022,37,19240,160,0,33926,0.0010010000000000296
891999,6549,1718,127414,-649,232,127032,37,19238,152,0,33927,0.0009989999999999721
892999,8445,76,127322,-2526,-999,126228,37,19235,152,1,33928,0.0010000000000000009
893999,9915,214,127428,494,-1589,126993,45,19236,184,1,33929,0.0010000000000000009
894999,11115,-1145,127628,1878,-663,127076,39,19236,160,1,33930,0.0010000000000000009
895999,7227,-321,128391,-3059,-1762,127665,44,19235,180,1,33931,0.0010000000000000009
896999,5498,58,128181,-3608,-205,127892,42,19235,172,1,33932,0.0010000000000000009
897999,6397,2727,128765,-1848,2318,127219,35,19239,172,1,33933,0.0010000000000000009
898999,8543,2634,127773,-401,1398,125751,36,19236,143,1,33934,0.0010000000000000009
900001,9716,1126,127016,699,-257,125611,36,19238,147,1,33935,0.0010019999999999474
900999,9696,-2033,126964,1422,-2931,127466,38,19236,156,1,33936,0.0009980000000000544
901999,9232,-1236,127574,-415,-1679,127542,43,19237,176,1,33937,0.0010000000000000009
902999,6645,713,128195,-2912,495,127684,48,19237,197,0,33938,0.0010000000000000009
903999,5511,3895,128929,-3806,1643,125404,35,19234,197,0,33939,0.0010000000000000009
904999,8152,2238,127500,-119,283,127561,39,19237,143,0,33940,0.0010000000000000009
905999,8615,340,127827,464,-2037,125786,39,19237,160,0,33941,0.0010000000000000009
906999,10528,-3034,126517,1706,-3412,127548,39,19235,160,0,33942,0.0010000000000000009
907999,9021,2662,128165,-1118,2777,124627,39,19235,160,0,33943,0.0010000000000000009
908999,7805,1348,128334,-2189,-797,128105,42,19238,172,0,33944,0.0010000000000000009
910002,6088,-2235,127605,-1547,-2639,130186,36,19238,172,0,33945,0.0010029999999999761
910999,6385,3386,128063,-1952,3062,124762,36,19238,147,0,33946,0.0009970000000000256
911999,9019,2285,127426,-1999,1405,126175,36,19239,147,0,33947,0.0010000000000000009
912999,9667,1464,126997,1402,491,125142,42,19235,172,1,33948,0.0010000000000000009
913999,9016,-780,127428,323,-2062,127871,46,19238,188,1,33949,0.0010000000000000009
914999,9191,-2628,126392,-350,-3327,127674,41,19236,168,1,33950,0.0010000000000000009
915999,5409,2289,128301,-2466,1640,125593,41,19236,168,1,33951,0.0010000000000000009
916999,7560,1615,128236,-3812,820,128419,37,19238,168,1,33952,0.0010000000000000009
917999,7989,2746,128220,760,1959,126611,37,19239,152,1,33953,0.0010000000000000009
919001,9180,1088,128019,168,-17,126696,35,19240,143,1,33954,0.0010019999999999474
920001,10391,-2006,126049,337,-2786,125066,33,19239,135,1,33955,0.0010000000000000009
920999,9812,406,127638,1874,-480,126635,39,19236,160,1,33956,0.0009980000000000544
922000,8341,-813,127731,-175,-1587,129375,45,19236,160,1,33957,0.0010009999999999186
922999,4996,3786,128124,-5063,3129,124906,45,19234,184,0,33958,0.0009989999999999721
923999,7160,4799,128455,-2808,3250,126881,45,19238,184,0,33959,0.0010000000000000009
924999,8371,-1637,126759,2661,-2668,127669,38,19237,156,0,33960,0.0010000000000000009
925999,10209,-2397,127573,-1383,-2968,127295,39,19237,160,0,33961,0.0010000000000000009
927001,10409,-1375,127366,908,-2346,126704,39,19236,160,0,33962,0.0010020000000000584
927999,8039,3437,128002,1348,2549,124856,41,19236,160,0,33963,0.0009979999999999434
928999,6069,86,128433,-3286,-822,129857,37,19236,168,0,33964,0.0010000000000000009
929999,5321,2483,128065,-6085,1495,126671,37,19233,152,0,33965,0.0010000000000000009
930999,7050,3671,128463,392,2832,126841,38,19234,156,0,33966,0.0010000000000000009
931999,8511,1271,127625,-603,887,125591,41,19234,168,0,33967,0.0010000000000000009
932999,11273,-5692,125969,1353,-6801,125060,52,19234,213,1,33968,0.0010000000000000009
933999,9818,5436,128692,4299,4914,127504,42,19234,213,1,33969,0.0010000000000000009
934999,10898,-2598,127205,-5198,-2477,127844,43,19234,172,1,33970,0.0010000000000000009
935999,7015,4524,129307,-2679,3166,126182,43,19237,176,1,33971,0.0010000000000000009
936999,5914,20,128215,6002,-3538,129966,41,19234,168,1,33972,0.0010000000000000009
937999,5413,-4276,127242,-5658,-5518,127656,38,19240,156,1,33973,0.0010000000000000009
939001,11188,-1905,127797,-7154,-253,125549,35,19239,143,1,33974,0.0010020000000000584
939999,10495,4245,126118,13519,5070,124394,38,19239,156,1,33975,0.0009979999999999434
940999,7644,8032,127666,-4002,6435,121450,44,19239,156,1,33976,0.0010000000000000009
941999,7937,-2694,127307,2382,-7146,132044,50,19237,180,1,33977,0.0010000000000000009
942999,5129,-2487,127522,5194,257,129621,50,19232,205,0,33978,0.0010000000000000009
943999,9950,2023,129106,-12782,268,124098,36,19235,147,0,33979,0.0010000000000000009
944999,9644,315,127905,7393,-460,126322,38,19237,156,0,33980,0.0010000000000000009
945999,9868,-2877,126618,3682,-4632,129461,40,19237,164,0,33981,0.0010000000000000009
946999,9441,259,127089,-8479,1237,124318,42,19239,164,0,33982,0.0010000000000000009
947999,8020,2484,126938,4066,1105,127515,41,19238,172,0,33983,0.0010000000000000009
948999,7969,4673,127984,3628,4518,125040,41,19240,168,0,33984,0.0010000000000000009
949999,6976,2501,127920,-12717,-105,126334,38,19241,156,0,33985,0.0010000000000000009
950999,11035,-1546,128165,6806,-2398,129454,37,19234,152,0,33986,0.0010000000000000009
952000,7757,-3028,126319,8194,-3946,127364,45,19234,184,1,33987,0.0010010000000000296
952999,8693,1787,127493,-12085,2361,123677,37,19236,184,1,33988,0.0009989999999999721
953999,10230,1457,127810,887,93,127721,43,19237,152,1,33989,0.0010000000000000009
954999,8469,-1160,127693,5906,-1644,129851,43,19231,176,1,33990,0.0010000000000000009
955999,6825,1693,128010,-6122,992,124910,45,19240,184,1,33991,0.0010000000000000009
956999,5984,142,127931,-2809,-1374,127903,39,19236,160,1,33992,0.0010000000000000009
958001,10947,305,127278,1641,136,127095,36,19236,147,1,33993,0.0010020000000000584
959001,10219,2850,127621,3771,2044,125648,37,19236,147,1,33994,0.0010000000000000009
960000,9318,931,126784,-2392,-182,125948,42,19237,152,1,33995,0.0009989999999999721
961001,7108,-847,127442,-1307,-2201,127128,42,19240,172,1,33996,0.0010010000000000296
962000,7088,-2232,128458,-1993,-3011,130341,50,19233,205,0,33997,0.0009989999999999721
962999,8122,3411,128884,-1337,3265,126099,46,19236,188,0,33998,0.0009989999999999721
963999,7357,2299,128120,-845,1040,126404,41,19237,168,0,33999,0.0010000000000000009
964999,9236,-1299,126947,-1030,-2085,126744,44,19237,168,0,34000,0.0010000000000000009
965999,9713,-1390,126326,2897,-2256,126945,41,19235,180,0,34001,0.0010000000000000009
966999,9415,2301,127726,-57,1684,125823,41,19239,168,0,34002,0.0010000000000000009
967999,8362,1787,127855,-2965,843,126464,42,19237,172,0,34003,0.0010000000000000009
968999,7092,1048,128569,-2275,155,127676,40,19236,164,0,34004,0.0010000000000000009
969999,8346,1871,128385,1526,970,128282,41,19232,168,0,34005,0.0010000000000000009
970999,7241,-647,127069,57,-1533,127404,43,19232,168,0,34006,0.0010000000000000009
971999,9994,1097,127729,-1981,351,126030,51,19235,176,0,34007,0.0010000000000000009
972999,8968,758,126707,212,335,125338,51,19234,209,1,34008,0.0010000000000000009
974000,10924,3526,128189,969,2895,125908,39,19238,160,1,34009,0.0010010000000000296
975001,8583,-713,127287,-2131,-1383,127224,42,19236,172,1,34010,0.0010010000000000296
975999,5730,-1998,127407,-685,-3385,129094,39,19239,160,1,34011,0.0009979999999999434
976999,8555,1171,128641,-1287,563,127000,36,19239,160,1,34012,0.0010000000000000009
977999,8746,1938,127674,919,1141,126303,34,19236,147,1,34013,0.0010000000000000009
978999,10917,589,127131,-298,125,126199,34,19239,139,1,34014,0.0010000000000000009
979999,9291,98,126736,1160,-705,125720,39,19239,160,1,34015,0.0010000000000000009
981000,8721,1047,127216,726,215,127508,45,19233,184,1,34016,0.0010010000000000296
981999,6814,310,127844,-3027,-612,127502,51,19235,209,0,34017,0.0009989999999999721
982999,6927,2489,128096,-2300,703,127349,42,19235,209,0,34018,0.0010000000000000009
984000,9428,1424,127937,-745,-360,126624,42,19237,172,0,34019,0.0010010000000000296
984999,8518,-1156,127490,2121,-3425,127160,42,19233,172,0,34020,0.0009989999999999721
986000,10585,-2832,126918,-350,-3100,127710,43,19241,176,0,34021,0.0010010000000000296
986999,8512,988,127673,-629,2384,125131,42,19238,172,0,34022,0.0009989999999999721
987999,8428,4859,128662,-981,3083,126866,39,19238,160,0,34023,0.0010000000000000009
988999,6157,1294,127711,-1636,-764,127822,39,19238,160,0,34024,0.0010000000000000009
989999,6247,-11,128080,-1602,-992,127848,41,19240,160,0,34025,0.0010000000000000009
990999,8823,-356,127546,776,-985,126800,47,19237,168,1,34026,0.0010000000000000009
991999,9701,895,127488,758,752,125757,47,19236,192,1,34027,0.0010000000000000009
992999,12256,666,127625,384,-837,127269,37,19236,152,1,34028,0.0010000000000000009
993999,7605,-329,127806,-1793,-976,126783,45,19235,184,1,34029,0.0010000000000000009
994999,5877,-158,128242,-2647,-1039,128381,44,19235,180,1,34030,0.0010000000000000009
995999,5483,-684,128207,-1802,-1453,128554,38,19233,180,1,34031,0.0010000000000000009
996999,8173,2582,127825,-1626,2540,125966,35,19238,156,1,34032,0.0010000000000000009
997999,10159,2453,127160,1310,1038,125477,35,19236,143,1,34033,0.0010000000000000009
998999,10685,513,126527,1919,-601,125488,37,19237,152,1,34034,0.0010000000000000009
1000002,10118,-2339,127176,546,-3168,128406,44,19239,180,1,34035,0.0010030000000000872
1000999,6603,485,127868,-2872,598,126525,49,19235,201,1,34036,0.0009969999999999146
1001999,5516,4038,129143,-4730,2786,126779,54,19235,201,0,34037,0.0009999999999998899
1003001,6330,803,128414,-782,144,128300,40,19235,221,0,34038,0.0010020000000001694
1003999,8475,-1347,127432,712,-1816,126929,40,19234,164,0,34039,0.0009979999999998324
1004999,11003,-895,126571,1813,-776,126360,39,19238,160,0,34040,0.001000000000000112
1005999,10772,-1010,126208,18,-1050,124956,38,19236,156,0,34041,0.0009999999999998899
1006999,8701,2406,128362,343,1454,127444,39,19242,160,0,34042,0.001000000000000112
1007999,7903,1529,127866,-3219,746,127161,40,19242,160,0,34043,0.0009999999999998899
1009001,5912,1638,128182,-781,693,127429,38,19238,164,0,34044,0.0010020000000001694
1009999,6407,142,127924,-948,-1101,127757,38,19232,156,0,34045,0.0009979999999998324
1010999,9392,-317,126677,26,-762,125693,41,19238,168,1,34046,0.001000000000000112
1011999,10747,1465,127578,1188,195,126177,34,19239,139,1,34047,0.0009999999999998899
1012999,11028,872,127334,238,7,126288,42,19235,172,1,34048,0.001000000000000112
1013999,6730,-318,127920,44,-1108,127417,43,19235,172,1,34049,0.0009999999999998899
1014999,5693,-217,128511,-4322,-1312,128855,39,19240,176,1,34050,0.001000000000000112
1015999,6336,1957,128210,-2460,1032,126801,39,19238,160,1,34051,0.0009999999999998899
1016999,9148,1831,127849,320,1052,126826,35,19238,143,1,34052,0.001000000000000112
1017999,10096,1117,126608,1397,335,124787,34,19237,139,1,34053,0.0009999999999998899
1018999,9171,-200,127021,827,-873,126240,40,19235,164,1,34054,0.001000000000000112
1019999,8344,-1672,127483,-1434,-2482,128462,47,19235,164,1,34055,0.0009999999999998899
1020999,5928,2036,128781,-2606,1056,127287,50,19236,192,0,34056,0.001000000000000112
1021999,7173,2461,129018,-2687,1734,127989,50,19238,205,0,34057,0.0009999999999998899
1023000,7631,1243,127651,146,452,126055,41,19239,168,0,34058,0.0010010000000000296
1023999,9646,-1916,126866,-630,-2332,127644,40,19234,164,0,34059,0.0009989999999999721
1024999,10109,-1062,126470,2173,-2049,124772,38,19240,156,0,34060,0.001000000000000112
1025999,8562,2869,128010,-680,2111,126925,36,19240,156,0,34061,0.0009999999999998899
1026999,7728,1790,128428,-3244,1257,127653,38,19238,147,0,34062,0.001000000000000112
1028002,5900,818,127954,-1004,-472,128152,38,19236,156,0,34063,0.0010029999999998651
1028999,7104,30,128289,-1169,-819,127237,38,19238,156,0,34064,0.0009970000000001367
1029999,8170,1234,127070,-929,284,124993,41,19237,168,0,34065,0.0009999999999998899
1030999,10410,121,127054,-754,289,126571,46,19231,188,1,34066,0.001000000000000112
1032000,10414,1782,127526,1235,1244,125317,37,19231,152,1,34067,0.0010010000000000296
1032999,7776,186,127394,1261,-1699,128135,43,19239,152,1,34068,0.0009989999999999721
1033999,6024,-893,128380,-5436,-1296,127928,38,19235,176,1,34069,0.0009999999999998899
1034999,7393,-115,127950,1522,-1108,128329,38,19240,156,1,34070,0.001000000000000112
1036000,8250,2287,127739,1635,4117,125299,35,19237,143,1,34071,0.0010010000000000296
1036999,10027,1639,126666,-2408,815,124566,32,19238,131,1,34072,0.0009989999999999721
1037999,10618,-1300,125806,1696,-273,126167,36,19238,147,1,34073,0.0009999999999998899
1038999,9010,95,127713,2330,293,126835,44,19236,147,1,34074,0.001000000000000112
1039999,6212,264,128144,-3633,-1009,128769,49,19236,180,0,34075,0.0009999999999998899
1040999,5319,132,127498,-5426,-201,127020,49,19233,201,0,34076,0.001000000000000112
1041999,8245,2242,128597,2885,2155,126861,39,19237,160,0,34077,0.0009999999999998899
1042999,8869,1773,127952,-1073,-127,126515,38,19236,156,0,34078,0.001000000000000112
1043999,10181,-2211,126783,-721,-3073,126015,39,19236,160,0,34079,0.0009999999999998899
1044999,8542,-1194,127882,1327,-2173,128551,40,19237,160,0,34080,0.001000000000000112
1045999,8416,-1721,126871,31,-814,125614,38,19234,164,0,34081,0.0009999999999998899
1046999,6185,7804,128867,-2552,7085,125244,38,19236,156,0,34082,0.001000000000000112
1047999,6998,-1043,127348,-4100,-3700,131056,38,19238,156,0,34083,0.0009999999999998899
1048999,8606,3402,127926,-944,4201,122145,40,19234,164,0,34084,0.001000000000000112
1050000,8434,2572,128565,3078,-234,128140,46,19231,188,1,34085,0.0010010000000000296
1050999,7717,-5002,127191,-4003,-5994,128310,42,19231,188,1,34086,0.0009989999999999721
1052001,7959,-3806,127027,-1649,-4640,128750,43,19240,172,1,34087,0.0010019999999999474
1052999,9100,3350,127981,2650,4470,125774,43,19232,176,1,34088,0.0009980000000000544
1053999,6537,11803,127798,927,10351,121989,44,19235,180,1,34089,0.0009999999999998899
1055001,9585,-3614,127901,-12031,-5683,131268,37,19240,152,1,34090,0.0010019999999999474
1055999,12191,262,128497,7398,546,125273,33,19238,135,1,34091,0.0009980000000000544
1057000,9474,-3067,127788,9077,-5103,130546,37,19238,135,1,34092,0.0010010000000000296
1057999,5708,-4275,126823,-12003,-4529,125095,43,19236,152,1,34093,0.0009989999999999721
1058999,6686,22,127172,-1573,-874,128278,43,19234,176,1,34094,0.001000000000000112
1059999,5136,10739,127489,5449,10231,124823,49,19233,201,0,34095,0.0009999999999998899
1060999,6983,10268,127903,-14319,9053,120755,49,19242,201,0,34096,0.001000000000000112
1061999,12465,-6134,126533,5412,-7190,131208,38,19238,156,0,34097,0.0009999999999998899
1062999,9884,-4938,127822,10366,-5769,128140,39,19238,156,0,34098,0.001000000000000112
1063999,13344,-4852,128990,-10499,-5190,128225,38,19240,160,0,34099,0.0009999999999998899
1064999,6208,-1493,127683,6489,-2677,128769,38,19239,156,0,34100,0.001000000000000112
1065999,5321,4302,127752,2393,3041,127515,40,19236,164,0,34101,0.0009999999999998899
1066999,4105,11648,127446,-16255,10973,120753,40,19237,164,0,34102,0.001000000000000112
1067999,9850,2537,126809,-496,2035,125661,38,19233,156,0,34103,0.0009999999999998899
1068999,11999,-1296,126524,13590,-2161,128673,43,19233,156,0,34104,0.001000000000000112
1069999,10313,-3356,127569,-3129,-4224,126584,44,19234,176,1,34105,0.0009999999999998899
1070999,10984,-472,128420,-5716,-1832,127382,44,19238,180,1,34106,0.001000000000000112
1071999,8319,-6633,127526,8491,-7898,132475,42,19236,172,1,34107,0.0009999999999998899
1072999,6885,6649,129058,-4036,4834,122369,44,19236,180,1,34108,0.001000000000000112
1073999,3433,4215,127132,-6023,4283,127546,40,19236,164,1,34109,0.0009999999999998899
1074999,8771,-1167,126759,-4667,-2469,126452,37,19236,164,1,34110,0.001000000000000112
1075999,12348,2017,128031,5188,1506,126111,36,19239,152,1,34111,0.0009999999999998899
1076999,9773,1865,127044,6531,1399,125348,36,19238,147,1,34112,0.001000000000000112
1077999,8593,-2680,127127,-4454,-6215,129947,41,19239,168,1,34113,0.0009999999999998899
1078999,7148,-5068,127857,-2486,-1940,129237,50,19232,205,1,34114,0.001000000000000112
1079999,8739,7033,129000,1140,7443,123705,54,19236,221,0,34115,0.0009999999999998899
1080999,6120,4117,128928,-1388,205,126362,40,19236,164,0,34116,0.001000000000000112
1081999,8509,-4189,127362,-2402,-6983,130298,40,19236,164,0,34117,0.0009999999999998899
1082999,9651,-4964,126340,8028,-2593,128251,42,19240,164,0,34118,0.001000000000000112
1084000,9421,6773,128262,-1236,7070,122066,42,19238,172,0,34119,0.0010009999999998076
1084999,9624,1306,126896,-2621,-2720,128806,42,19236,172,0,34120,0.0009990000000001942
1085999,7655,-1822,126969,-1107,-113,127242,42,19238,172,0,34121,0.0009999999999998899
1086999,9614,5150,129377,379,3873,125954,39,19238,160,0,34122,0.001000000000000112
1088001,6709,881,127738,-112,-884,126502,43,19235,160,0,34123,0.0010019999999999474
1089001,7135,-2809,127830,-3242,-4827,129676,48,19236,176,0,34124,0.0009999999999998899
1089999,8706,-4392,127277,88,-3082,128771,48,19237,197,1,34125,0.0009980000000000544
1090999,9225,6111,128049,1556,6666,122336,48,19234,197,1,34126,0.001000000000000112
1091999,10335,951,127435,1492,-2058,128562,42,19238,172,1,34127,0.0009999999999998899
1093001,7177,-2196,126286,-3782,-2019,125944,42,19236,172,1,34128,0.0010019999999999474
1093999,9324,3306,128245,-498,3396,126419,35,19236,172,1,34129,0.0009980000000000544
1094999,7731,2478,128240,2270,1189,126556,37,19239,143,1,34130,0.001000000000000112
1095999,9772,-1786,127341,-1553,-3706,128184,37,19238,152,1,34131,0.0009999999999998899
1096999,8206,-3415,127402,213,-3322,128325,38,19237,156,1,34132,0.001000000000000112
1097999,9265,3638,127868,719,3000,124169,43,19236,176,1,34133,0.0009999999999998899
1098999,8840,109,127099,-493,-1146,128711,49,19235,201,0,34134,0.001000000000000112
1099999,6261,1348,127627,-3447,1010,126042,42,19235,201,0,34135,0.0009999999999998899
1100999,9426,4238,128544,-1510,4163,125193,41,19238,172,0,34136,0.001000000000000112
1101999,7788,1385,127993,1190,136,126836,41,19235,168,0,34137,0.0009999999999998899
1102999,10177,-7192,126823,1638,-8576,130032,41,19237,168,0,34138,0.0009999999999998899
1103999,8460,-2751,127380,-345,-3020,128061,44,19240,180,0,34139,0.001000000000000112
1104999,8759,5436,128416,-2588,4713,123450,41,19235,168,0,34140,0.0009999999999998899
1105999,9273,2131,128050,286,1040,127974,39,19235,168,0,34141,0.001000000000000112
1106999,5680,103,127331,-255,-1212,128619,40,19235,160,0,34142,0.0009999999999998899
1107999,7489,2031,127513,-3948,1378,124962,40,19236,164,0,34143,0.001000000000000112
1108999,7980,2472,127522,708,1491,125831,44,19235,180,1,34144,0.0009999999999998899
1109999,11797,-2527,127447,2168,-2931,128613,42,19234,172,1,34145,0.001000000000000112
1110999,10385,-1833,127688,1297,-2450,127720,44,19230,180,1,34146,0.0009999999999998899
1111999,6414,2344,128227,-2613,1463,125782,46,19230,180,1,34147,0.001000000000000112
1112999,6364,1446,128080,-3652,418,126786,40,19235,188,1,34148,0.0009999999999998899
1113999,6199,-416,128072,-996,-1400,129283,40,19234,164,1,34149,0.001000000000000112
1114999,9314,2882,127960,-1127,2067,125820,34,19237,139,1,34150,0.0009999999999998899
1115999,8995,1326,126971,715,781,124643,34,19240,139,1,34151,0.001000000000000112
1116999,10933,-2886,126745,1426,-3470,127929,41,19233,168,1,34152,0.0009999999999998899
1117999,9081,-576,127262,1522,-1882,127874,47,19233,168,1,34153,0.001000000000000112
1118999,6428,3997,128401,-3231,2784,125745,53,19232,192,0,34154,0.0009999999999998899
1120001,5111,3941,128800,-5758,3456,127251,39,19238,217,0,34155,0.0010020000000001694
1121001,8016,-919,127206,-472,-1812,128934,39,19240,160,0,34156,0.0009999999999998899
1121999,9667,-1898,127177,1191,-2624,126659,40,19236,164,0,34157,0.0009980000000000544
1122999,9607,-1575,126810,1615,-2225,126456,40,19235,164,0,34158,0.0009999999999998899
1123999,10448,-236,127216,-528,-1403,126756,40,19235,164,0,34159,0.001000000000000112
1124999,8935,2450,128056,-180,2703,127031,38,19234,164,0,34160,0.0009999999999998899
1126000,6882,5031,128360,-905,3106,125489,38,19236,156,0,34161,0.0010010000000000296
1127002,6189,1476,127160,-2826,-974,127552,38,19237,156,0,34162,0.0010020000000001694
1127999,7929,-1697,127292,-1425,-1763,127363,38,19237,156,1,34163,0.0009969999999999146
1129000,10227,114,127467,2321,-557,126244,44,19238,180,1,34164,0.0010010000000000296
1129999,10542,317,127922,692,-136,126733,42,19238,172,1,34165,0.0009989999999999721
1130999,7415,-849,127663,-3834,-2670,127876,46,19238,172,1,34166,0.0009999999999998899
1131999,6210,-816,127762,-1347,-413,128028,41,19236,188,1,34167,0.001000000000000112
1132999,6547,3758,128789,-1394,3410,126424,41,19239,168,1,34168,0.0009999999999998899
1133999,8314,1977,127586,-1873,482,126249,35,19239,143,1,34169,0.001000000000000112
1134999,9783,405,126673,-128,356,125951,33,19240,135,1,34170,0.0009999999999998899
1135999,10515,-1764,126829,3228,-2536,127383,40,19240,164,1,34171,0.001000000000000112
1136999,8934,-481,127508,4,-929,126683,45,19233,164,1,34172,0.0009999999999998899
1137999,4767,764,128275,-4904,-1796,128090,50,19235,184,0,34173,0.001000000000000112
1138999,6653,951,128763,-4535,879,127772,50,19239,205,0,34174,0.0009999999999998899
1139999,8364,4406,128396,2836,2561,126239,38,19236,156,0,34175,0.001000000000000112
1140999,7717,-665,127292,-872,-2140,127218,40,19236,164,0,34176,0.0009999999999998899
1142001,9936,-2675,126137,-1450,-3157,126259,40,19236,164,0,34177,0.0010020000000001694
1142999,9468,721,127407,1882,421,126437,39,19236,164,0,34178,0.0009979999999998324
1143999,9338,2961,128131,-472,2645,127026,38,19237,160,0,34179,0.001000000000000112
1144999,5360,1627,127750,-3494,434,126876,38,19237,156,0,34180,0.0009999999999998899
1146001,6568,504,128225,-4273,-595,127826,37,19236,152,0,34181,0.0010020000000001694
1147001,8332,599,127774,2627,-31,126817,38,19239,156,0,34182,0.0009999999999998899
1147999,9021,-118,127156,209,-919,126519,46,19234,188,1,34183,0.0009980000000000544
1149001,9386,284,127121,-3284,-206,125355,40,19234,188,1,34184,0.0010019999999999474
1149999,9474,1963,127406,2279,918,126179,43,19236,164,1,34185,0.0009980000000000544
1150999,6796,-294,127594,-2034,-1215,128280,43,19236,176,1,34186,0.0009999999999998899
1151999,5962,615,128213,-4822,-137,126946,40,19238,164,1,34187,0.001000000000000112
1152999,7742,323,127887,596,-452,128243,34,19238,139,1,34188,0.0009999999999998899
1153999,9735,2863,127911,981,2358,124846,33,19236,135,1,34189,0.001000000000000112
1154999,10383,-337,126765,-778,-1380,125771,34,19236,135,1,34190,0.0009999999999998899
1155999,9986,-2294,126570,1161,-3271,127752,40,19238,139,1,34191,0.001000000000000112
1156999,7747,1883,127797,210,1105,126041,40,19234,164,1,34192,0.0009999999999998899
1157999,5993,1224,127648,-2904,230,127961,46,19236,188,0,34193,0.001000000000000112
1159001,6660,3574,127962,-3908,2020,126590,40,19239,164,0,34194,0.0010019999999999474
1159999,8559,174,127473,991,-513,127286,39,19238,160,0,34195,0.0009980000000000544
1160999,10192,255,127413,297,-494,125516,38,19238,160,0,34196,0.0009999999999998899
1161999,9969,-1453,127196,1228,-2156,126315,41,19237,156,0,34197,0.001000000000000112
1162999,8254,-1233,127922,-639,-2231,128293,41,19233,168,0,34198,0.0009999999999998899
1164000,6839,2231,128583,-2764,1368,127264,40,19239,164,0,34199,0.0010010000000000296
1164999,5435,3231,128743,-2932,2363,127595,38,19239,156,0,34200,0.0009989999999999721
1165999,6392,1916,127916,-1354,1323,126928,40,19240,164,0,34201,0.001000000000000112
1166999,9492,-4131,125423,-1070,-4845,124406,41,19240,168,0,34202,0.0009999999999998899
1167999,11069,6383,128132,4626,4812,124772,50,19231,168,1,34203,0.001000000000000112
1168999,10981,-3645,126499,-1746,-1438,129043,42,19238,205,1,34204,0.0009999999999998899
1169999,10031,1418,129179,-3283,-851,126258,42,19234,172,1,34205,0.001000000000000112
1170999,5370,1344,129163,3082,-2939,129251,43,19243,176,1,34206,0.0009999999999998899
1172000,5793,-3480,127062,-303,-4546,129478,40,19238,164,1,34207,0.0010010000000000296
1172999,7321,-730,128569,-8679,772,126167,36,19238,147,1,34208,0.0009989999999999721
1173999,11374,4459,127521,4098,4750,123393,35,19236,147,1,34209,0.001000000000000112
1174999,11710,6780,126367,2504,4852,124074,39,19234,143,1,34210,0.0009999999999998899
1175999,7411,-3601,127689,-1494,-7374,129793,39,19235,160,1,34211,0.001000000000000112
1176999,7974,-3674,125730,2929,-753,127766,45,19235,184,1,34212,0.0009999999999998899
1177999,5339,6329,130161,-6257,4727,126972,51,19237,209,0,34213,0.001000000000000112
1179000,8712,-1075,128531,-3716,-3074,127165,39,19237,160,0,34214,0.0010010000000000296
1179999,10280,-403,127023,7475,-299,126618,38,19236,160,0,34215,0.0009989999999999721
1180999,8911,-178,127718,-2094,-1427,126934,42,19237,156,0,34216,0.0009999999999998899
1181999,10505,-812,126659,-5970,-1815,124947,42,19238,172,0,34217,0.001000000000000112
1182999,8358,305,127663,9673,209,129875,38,19238,156,0,34218,0.0009999999999998899
1183999,7359,5815,128922,-3839,5354,124534,39,19240,160,0,34219,0.001000000000000112
1184999,6377,2287,127196,-9152,-174,126851,39,19238,160,0,34220,0.0009999999999998899
1185999,8907,-3340,128028,6094,-4123,129711,42,19238,160,0,34221,0.001000000000000112
1186999,10534,1,126556,5336,546,124682,47,19235,172,1,34222,0.0009999999999998899
1187999,7997,4109,128328,-9315,2878,124779,47,19235,192,1,34223,0.001000000000000112
1189004,10571,-2661,127700,971,-4162,129301,40,19236,164,1,34224,0.0010049999999999226
1189999,8193,-2725,127369,3371,-2496,129230,44,19236,180,1,34225,0.0009950000000000792
1190999,6075,3993,128618,-2699,3386,124903,42,19236,172,1,34226,0.0009999999999998899
1191999,6176,364,127294,-3748,-1442,127554,37,19236,172,1,34227,0.001000000000000112
1192999,10197,-155,127070,-944,229,126917,37,19236,152,1,34228,0.0009999999999998899
1193999,11086,5977,127991,4523,5319,123419,37,19237,152,1,34229,0.001000000000000112
1194999,9042,1207,126412,539,-512,126185,39,19234,160,1,34230,0.0009999999999998899
1195999,7389,-5869,127769,-3746,-6924,129832,46,19235,188,1,34231,0.001000000000000112
1196999,7253,-1607,128508,-829,-2161,129265,51,19237,209,0,34232,0.0009999999999998899
1197999,7064,6550,129163,-824,5880,125598,41,19237,209,0,34233,0.001000000000000112
1198999,7506,2516,127946,-2814,1260,125845,44,19238,168,0,34234,0.0009999999999998899
1199999,8737,-3473,126324,-931,-4303,128354,44,19236,180,0,34235,0.001000000000000112
1200999,10670,938,126716,3585,415,124733,43,19234,176,0,34236,0.0009999999999998899
1201999,9541,2749,128235,10,1799,125361,41,19234,168,0,34237,0.001000000000000112
1203000,8646,-2754,127198,-1883,-3632,129774,42,19239,172,0,34238,0.0010009999999998076
1204002,5976,3560,129491,-3133,2890,126373,40,19239,172,0,34239,0.0010020000000001694
1204999,7937,1089,127651,18,151,128099,40,19239,164,0,34240,0.0009969999999999146
1205999,7956,-282,127368,289,-1010,126763,40,19238,164,0,34241,0.001000000000000112
1206999,8504,8,127242,-1434,-464,125626,48,19235,197,0,34242,0.0009999999999998899
1208006,10042,2281,127506,-1522,1195,126275,55,19234,225,1,34243,0.0010069999999999801
1209002,10185,3013,128299,2416,2956,124891,40,19238,164,1,34244,0.0009959999999999969
1209999,8288,-5659,126883,-317,-6674,131808,43,19238,164,1,34245,0.0009970000000001367
1210999,5935,2572,128000,-3322,881,124970,38,19235,176,1,34246,0.0009999999999998899
1211999,8170,2271,128570,-688,2217,126954,38,19236,156,1,34247,0.001000000000000112
1213000,9365,44,127359,443,-965,126327,36,19237,147,1,34248,0.0010009999999998076
1213999,10252,-802,126852,924,-1508,126872,37,19238,152,1,34249,0.0009990000000001942
1214999,9565,3124,127342,48,1280,122689,40,19236,164,1,34250,0.0009999999999998899
1216000,8513,1796,127865,502,2207,130141,47,19236,192,1,34251,0.0010010000000000296
1216999,7284,-4633,127567,-1538,-5819,129717,52,19237,192,0,34252,0.0009989999999999721
1218000,6725,4897,128340,-3192,5106,124129,41,19237,213,0,34253,0.0010010000000000296
1218999,8577,3382,127900,-536,525,126423,41,19240,168,0,34254,0.0009989999999999721
1220001,9625,-1713,127173,204,-4248,127899,41,19234,168,0,34255,0.0010019999999999474
1220999,10461,-4242,126851,1897,-4604,129311,43,19237,176,0,34256,0.0009980000000000544
1221999,8860,3118,128351,-620,4529,123226,41,19237,168,0,34257,0.0009999999999998899
1222999,7883,4326,128381,-1577,553,127780,40,19237,168,0,34258,0.001000000000000112
1223999,6619,-1986,127959,-1910,-2073,129193,41,19240,164,0,34259,0.0009999999999998899
1225000,6994,1810,128081,-377,1487,126305,41,19237,168,0,34260,0.0010010000000000296
1225999,7966,1605,127364,-675,569,125245,43,19235,176,0,34261,0.0009989999999999721
1226999,9681,548,127262,-624,-1223,126361,51,19237,209,1,34262,0.001000000000000112
1227999,12177,-1489,127676,1176,-2230,128253,41,19237,168,1,34263,0.0009999999999998899
1228999,8721,1595,128135,-965,1136,126098,46,19235,168,1,34264,0.001000000000000112
1229999,5233,-524,128018,-2829,-2930,128922,43,19240,188,1,34265,0.0009999999999998899
1230999,5556,-1329,127730,-3565,-1276,128292,43,19240,176,1,34266,0.001000000000000112
1231999,8048,2816,128026,-220,2732,126271,38,19236,156,1,34267,0.0009999999999998899
1232999,9710,4402,127100,1040,3487,123624,35,19238,143,1,34268,0.001000000000000112
1234001,10548,176,126626,288,-2017,126480,38,19234,156,1,34269,0.0010019999999999474
1234999,9903,-3408,126973,1185,-3116,128927,44,19234,156,1,34270,0.0009980000000000544
1235999,7783,1932,128034,-804,1910,126121,50,19236,180,1,34271,0.0009999999999998899
1236999,5429,2986,129322,-4678,2267,128243,50,19238,205,0,34272,0.001000000000000112
1237999,5725,-1766,127189,-3204,-2723,127319,45,19240,184,0,34273,0.0009999999999998899
1238999,9155,-432,127677,1626,-11,127637,39,19236,160,0,34274,0.001000000000000112
1239999,10992,4683,127306,1580,3781,122139,35,19237,143,0,34275,0.0009999999999998899
1240999,10804,-3994,126185,1088,-5523,129164,38,19237,143,0,34276,0.001000000000000112
1241999,8788,-395,127917,-828,-625,127451,39,19238,156,0,34277,0.0009999999999998899
1242999,7863,2875,128304,-1122,2314,126641,39,19241,160,0,34278,0.001000000000000112
1243999,6163,5017,128629,-1844,3855,125423,38,19235,156,0,34279,0.0009999999999998899
1245001,6382,-942,127491,-1431,-2407,128719,38,19235,156,0,34280,0.0010020000000001694
1245999,9137,-3247,126562,-236,-3694,127815,43,19233,176,1,34281,0.0009979999999998324
1246999,10593,4013,127637,1848,2850,123486,38,19233,176,1,34282,0.001000000000000112
1247999,10706,771,127551,1738,150,126809,44,19236,156,1,34283,0.0009999999999998899
1248999,7338,-1131,127969,-3631,-2236,127869,44,19234,180,1,34284,0.001000000000000112
1249999,5694,-1390,128437,-1589,-2481,130045,42,19240,172,1,34285,0.0009999999999998899
1250999,6512,4086,128296,-1743,3151,125502,37,19238,152,1,34286,0.001000000000000112
1251999,8649,1644,127434,-1054,867,125807,34,19239,139,1,34287,0.0009999999999998899
1252999,10244,404,127045,127,-325,126428,35,19239,139,1,34288,0.001000000000000112
1253999,10252,610,127193,2396,2,126346,42,19236,143,1,34289,0.0009999999999998899
1254999,7721,-310,127594,-367,-1565,127624,42,19235,172,1,34290,0.001000000000000112
1255999,6020,1295,129013,-4207,365,127805,49,19238,201,0,34291,0.0009999999999998899
1256999,6908,93,128922,-2445,-672,128972,44,19238,180,0,34292,0.001000000000000112
1257999,8636,3171,128397,475,2553,125619,40,19237,164,0,34293,0.0009999999999998899
1258999,9407,-1033,126674,211,-1399,126751,39,19237,164,0,34294,0.001000000000000112
1259999,10165,-897,126672,412,-1980,125734,39,19233,160,0,34295,0.0009999999999998899
1260999,8726,484,127835,340,-107,127670,39,19239,160,0,34296,0.001000000000000112
1261999,7877,2245,128308,-2193,1240,127434,39,19239,160,0,34297,0.0009999999999998899
1262999,5804,176,128297,-1751,-597,128281,38,19237,156,0,34298,0.001000000000000112
1264001,6910,1104,128086,-1295,747,125945,36,19236,147,0,34299,0.0010019999999999474
1265000,8536,445,127040,-907,-559,126891,41,19236,168,0,34300,0.0009989999999999721
1266000,10260,-49,126953,-332,160,125253,48,19236,168,1,34301,0.001000000000000112
1266999,9784,2123,127426,112,836,125587,39,19240,197,1,34302,0.0009989999999999721
1267999,8325,1518,128117,1591,-1430,127315,39,19239,160,1,34303,0.0009999999999998899
1268999,5989,-493,128044,-5477,-2118,128850,40,19238,164,1,34304,0.001000000000000112
1269999,7049,-233,128505,103,-792,129310,37,19235,152,1,34305,0.0009999999999998899
1270999,8125,1899,127449,1403,2626,124514,32,19235,131,1,34306,0.001000000000000112
1271999,9784,2859,127364,-1740,1400,125296,32,19236,131,1,34307,0.0009999999999998899
1273000,11106,249,126569,-437,-762,124910,38,19237,131,1,34308,0.0010010000000000296
1274001,9182,54,127978,3608,-801,128856,38,19235,156,1,34309,0.0010010000000000296
1274999,6204,40,127970,-2716,-1039,127932,44,19238,180,0,34310,0.0009980000000000544
1275999,4993,524,128011,-6287,155,126933,50,19238,205,0,34311,0.0009999999999998899
1276999,8308,2202,128903,1187,2038,127468,39,19236,160,0,34312,0.001000000000000112
1277999,9959,1012,127272,1268,-853,126370,38,19236,160,0,34313,0.0009999999999998899
1278999,10513,-1916,126247,-442,-1795,125302,38,19236,156,0,34314,0.001000000000000112
1279999,9860,1487,127726,1626,1257,125765,38,19238,156,0,34315,0.0009999999999998899
1281001,7816,174,127807,-1971,-837,128674,38,19233,156,0,34316,0.0010019999999999474
1281999,6342,1430,128867,-4307,820,128365,39,19237,160,0,34317,0.0009980000000000544
1282999,5117,1270,127856,223,252,127908,38,19240,156,0,34318,0.001000000000000112
1283999,7346,2342,127796,-2970,1777,124861,41,19240,156,0,34319,0.0009999999999998899
1284999,9049,89,127606,-748,-1328,127012,46,19233,168,0,34320,0.001000000000000112
1285999,9466,-1331,127339,-602,-1601,127115,46,19235,188,1,34321,0.0009999999999998899
1286999,11823,1360,126418,1123,652,124859,38,19236,156,1,34322,0.001000000000000112
1287999,6585,4443,128646,4534,3609,127076,42,19237,172,1,34323,0.0009999999999998899
1288999,7258,-3377,127297,-9607,-4833,130498,41,19235,168,1,34324,0.001000000000000112
1289999,9146,1914,129659,-1215,2049,126365,37,19235,168,1,34325,0.0009999999999998899
1290999,9449,1038,127989,7517,-217,127563,36,19236,152,1,34326,0.001000000000000112
1292000,8263,256,127265,-5175,-878,123420,36,19238,147,1,34327,0.0010010000000000296
1292999,7522,-5141,125834,-1847,-6236,130816,38,19237,156,1,34328,0.0009989999999999721
1293999,8430,3994,127074,3849,3484,126383,42,19236,172,1,34329,0.0009999999999998899
1294999,6489,10440,127932,-5531,9566,120417,49,19236,201,0,34330,0.001000000000000112
1295999,7388,879,128141,-3759,-75,130037,42,19236,201,0,34331,0.0009999999999998899
1296999,11259,-8128,126038,2649,-9183,129643,38,19238,172,0,34332,0.001000000000000112
1298000,8539,-484,129105,2685,-1324,126973,38,19238,156,0,34333,0.0010010000000000296
1299001,10100,-1142,126962,-2016,-1904,126412,38,19236,156,0,34334,0.0010009999999998076
1299999,7386,1434,127498,-447,419,126095,38,19237,156,0,34335,0.0009980000000000544
1301001,7732,5800,127838,-876,4420,127874,38,19234,156,0,34336,0.0010019999999999474
1302002,7146,4419,126951,-2397,3738,123997,40,19234,156,0,34337,0.0010010000000000296
1302999,9747,-76,127250,-2490,-1026,127049,40,19235,164,0,34338,0.0009970000000001367
1303999,10268,-2411,127207,4246,-2847,127076,40,19237,164,0,34339,0.0009999999999998899
1304999,9908,-1100,127971,2698,-2418,127884,43,19239,176,1,34340,0.001000000000000112
1305999,9685,-44,127923,-5747,-731,126768,39,19241,160,1,34341,0.0009999999999998899
1307001,7709,-1959,127036,2243,-3417,128070,44,19235,180,1,34342,0.0010019999999999474
1308001,6908,4246,128518,-39,3263,124968,44,19235,180,1,34343,0.001000000000000112
1308999,5941,1081,127403,-3567,1188,128649,41,19234,180,1,34344,0.0009980000000000544
1309999,8774,-2026,127582,-5085,-2829,126930,36,19238,168,1,34345,0.0009999999999998899
1310999,11810,5036,127966,5142,3714,123354,36,19238,147,1,34346,0.001000000000000112
1311999,8983,834,127066,5473,-2999,128101,39,19233,160,1,34347,0.0009999999999998899
1312999,8466,-4801,126953,-6126,-4880,128331,44,19236,180,1,34348,0.001000000000000112
1313999,7083,-1107,128043,-1168,54,128735,53,19236,217,1,34349,0.0009999999999998899
1314999,7702,5974,129164,1169,6094,124264,49,19235,217,0,34350,0.001000000000000112
1315999,6931,3436,128884,-4821,-1031,127354,42,19238,201,0,34351,0.0009999999999998899
1316999,8884,-5832,126580,648,-6215,131016,42,19236,172,0,34352,0.001000000000000112
1317999,9709,102,126781,4246,1157,124089,39,19236,160,0,34353,0.0009999999999998899
1318999,10044,4710,127705,-879,3646,124827,41,19235,168,0,34354,0.001000000000000112
1319999,9152,-350,127254,-1242,-2136,127995,42,19235,172,0,34355,0.0009999999999998899
1320999,7448,-624,128112,-2175,-135,127882,41,19238,172,0,34356,0.001000000000000112
1321999,8117,3591,129055,-1090,2462,126689,39,19239,168,0,34357,0.0009999999999998899
1322999,6825,42,127681,1578,-1924,127081,39,19239,160,0,34358,0.001000000000000112
1323999,8231,-2270,127548,-2579,-3183,128619,41,19234,168,0,34359,0.0009999999999998899
1324999,9778,467,127385,-312,831,125713,50,19234,205,1,34360,0.001000000000000112
1325999,9425,4122,127839,2282,3210,124801,43,19237,176,1,34361,0.0009999999999998899
1326999,10181,-727,127037,540,-2409,128232,43,19237,176,1,34362,0.001000000000000112
1327999,6896,-1144,127552,-3477,-1060,126840,41,19237,176,1,34363,0.0009999999999998899
1329000,7931,2496,128509,-431,1738,126972,41,19236,168,1,34364,0.0010010000000000296
1329999,7923,1478,128105,858,315,127319,37,19234,152,1,34365,0.0009989999999999721
1330999,9857,-999,127319,-491,-2217,127191,35,19236,143,1,34366,0.001000000000000112
1331999,9736,163,126931,1061,57,126016,39,19237,160,1,34367,0.0009999999999998899
1332999,9882,2786,127566,524,1871,125084,45,19237,160,1,34368,0.001000000000000112
1333999,8598,-591,127144,-655,-1254,128370,51,19232,184,1,34369,0.0009999999999998899
1334999,5742,1012,128089,-3519,701,127028,51,19235,209,0,34370,0.001000000000000112
1335999,8402,3511,128766,-1895,3365,126105,39,19239,160,0,34371,0.0009999999999998899
1336999,8279,-2151,126865,-154,-3622,127578,41,19235,168,0,34372,0.001000000000000112
1337999,9708,-3701,127504,2700,-4547,128638,40,19234,164,0,34373,0.0009999999999998899
1338999,9766,-695,127175,-1287,-1160,126417,40,19234,164,0,34374,0.001000000000000112
1340002,9550,3753,128012,-936,3163,124617,41,19238,164,0,34375,0.0010029999999998651
1340999,7361,1969,128015,-109,738,128217,41,19234,168,0,34376,0.0009969999999999146
1341999,6474,1320,127650,-2471,337,127091,38,19236,156,0,34377,0.001000000000000112
1342999,6620,1743,127798,-1652,765,126614,42,19233,172,0,34378,0.0009999999999998899
1343999,9235,-1028,127327,-22,-1843,127535,45,19236,184,1,34379,0.001000000000000112
1344999,11018,-337,127528,2105,-886,126444,38,19236,184,1,34380,0.0009999999999998899
1346008,10583,-65,128007,1011,-562,127091,46,19236,156,1,34381,0.0010090000000000376
1346999,7093,1397,128114,-3262,594,126040,46,19235,188,1,34382,0.0009909999999999641
1347999,5617,-1534,128122,-1977,-2556,129697,45,19237,184,1,34383,0.001000000000000112
1348999,6268,2196,128276,-2212,990,127033,39,19238,160,1,34384,0.0009999999999998899
1349999,8372,3687,127720,-823,3167,125312,34,19238,139,1,34385,0.001000000000000112
1351001,10104,-648,126606,189,-1154,126441,36,19238,147,1,34386,0.0010019999999999474
1352000,10645,-1839,126836,2441,-2411,126800,41,19235,147,1,34387,0.0009989999999999721
1353000,9268,218,127543,1038,-1069,127376,41,19236,168,1,34388,0.001000000000000112
1353999,6670,2702,128566,-3274,1898,126645,47,19230,192,0,34389,0.0009989999999999721
1354999,4623,917,128727,-4413,440,128866,53,19237,217,0,34390,0.0009999999999998899
1356001,8121,492,127162,-1221,-865,126396,39,19237,160,0,34391,0.0010020000000001694
1356999,8792,-38,127235,1229,-693,126396,39,19237,160,0,34392,0.0009979999999998324
1357999,10286,-1349,126271,375,-1923,126060,40,19237,160,0,34393,0.001000000000000112
1358999,10424,-1112,127066,397,-348,127221,40,19236,164,0,34394,0.0009999999999998899
1359999,8940,3038,128578,327,3114,126605,40,19237,164,0,34395,0.001000000000000112
1361000,6850,3367,127815,-1688,1298,126225,38,19237,156,0,34396,0.0010010000000000296
1361999,5796,495,127878,-3105,-726,128191,34,19236,139,0,34397,0.0009989999999999721
1363000,8323,-1046,127387,542,-2018,126930,38,19236,156,0,34398,0.0010010000000000296
1363999,8982,935,127113,1176,565,125635,40,19238,156,1,34399,0.0009989999999999721
1364999,11092,465,127392,-530,-613,126679,45,19236,164,1,34400,0.0009999999999998899
1365999,8053,-999,127722,-2051,-1745,127475,45,19234,184,1,34401,0.001000000000000112
1366999,6608,767,128421,-995,-8,127966,44,19236,180,1,34402,0.0009999999999998899
1368000,6355,716,128863,-2210,-1295,127482,39,19236,160,1,34403,0.0010010000000000296
1368999,7707,2526,127881,-2247,1172,126158,33,19236,135,1,34404,0.0009989999999999721
1369999,9415,741,127180,531,-1754,126200,33,19237,135,1,34405,0.001000000000000112
1370999,9880,1395,127316,2369,566,125716,40,19238,135,1,34406,0.0009999999999998899
1371999,8531,-1776,127087,-1095,-3533,128799,40,19234,164,1,34407,0.001000000000000112
1372999,6236,462,127603,-3895,697,126107,47,19235,192,0,34408,0.0009999999999998899
1373999,6043,3120,129107,-3355,1702,128127,50,19239,205,0,34409,0.001000000000000112
1374999,8410,1742,127685,306,855,126523,40,19238,164,0,34410,0.0009999999999998899
1375999,8560,-254,127148,-1321,-1687,127494,39,19238,164,0,34411,0.001000000000000112
1376999,9834,-2686,126361,496,-2749,126402,37,19236,160,0,34412,0.0009999999999998899
1377999,9320,2920,127408,1564,2322,124356,37,19236,152,0,34413,0.001000000000000112
1378999,7969,611,128393,-2706,-523,129050,39,19237,160,0,34414,0.0009999999999998899
1379999,6188,565,128139,-3666,-378,127296,38,19234,156,0,34415,0.001000000000000112
1380999,6516,1497,128679,-580,763,127887,36,19240,147,0,34416,0.0009999999999998899
1381999,8394,1622,127872,49,913,125732,38,19240,147,0,34417,0.001000000000000112
1382999,9170,-476,127069,-449,-1456,126581,45,19240,156,1,34418,0.0009999999999998899
1383999,9843,18,127316,-1676,-549,126511,45,19237,184,1,34419,0.001000000000000112
1384999,9508,2529,127545,2714,1511,125214,38,19237,156,1,34420,0.0009999999999998899
1386000,5817,-584,127831,-3924,-1669,128498,42,19237,172,1,34421,0.0010010000000000296
1387002,6300,-705,128098,-4896,-1712,127949,39,19240,160,1,34422,0.0010019999999999474
1387999,7907,43,128016,2267,-696,128870,33,19240,160,1,34423,0.0009970000000001367
1388999,9928,4001,127931,1104,3266,124138,34,19237,135,1,34424,0.0009999999999998899
1390000,10511,105,126447,-1554,-740,124981,34,19237,139,1,34425,0.0010010000000000296
1390999,10336,-902,126950,1061,-1524,127143,36,19236,147,1,34426,0.0009989999999999721
1391999,7702,1167,127742,2167,240,126896,43,19236,176,1,34427,0.001000000000000112
1392999,4950,1321,127992,-3823,93,127642,49,19237,201,0,34428,0.0009999999999998899
1393999,6338,2938,128277,-5611,1208,126889,39,19237,201,0,34429,0.001000000000000112
1394999,8822,691,127999,2315,-248,127740,39,19232,160,0,34430,0.0009999999999998899
1395999,10471,285,127138,850,-461,125831,39,19236,160,0,34431,0.001000000000000112
1396999,10134,-1695,127087,-683,-2259,125552,40,19234,164,0,34432,0.0009999999999998899
1397999,8245,336,128069,227,-1021,127609,39,19234,160,0,34433,0.001000000000000112
1398999,6951,1713,128578,-1670,703,128566,39,19236,160,0,34434,0.0009999999999998899
1399999,5272,2311,128366,-4321,1242,127498,38,19236,156,0,34435,0.001000000000000112
1400999,7654,-2433,126373,1167,-3694,123944,37,19239,156,0,34436,0.0009999999999998899
1401999,9799,8187,128125,1037,7119,125035,44,19234,152,0,34437,0.001000000000000112
1403001,11709,-5990,126096,-2671,-3703,129264,44,19234,180,1,34438,0.0010019999999999474
1403999,10067,1716,128924,538,-321,124804,45,19239,184,1,34439,0.0009980000000000544
1404999,7583,-411,128892,2925,385,130105,42,19236,172,1,34440,0.0009999999999998899
1405999,6104,-3906,126827,-3525,-4341,129122,44,19236,180,1,34441,0.001000000000000112
1406999,4676,1181,128575,695,1912,128637,37,19237,180,1,34442,0.0009999999999998899
1407999,9734,3001,126787,-5532,4378,122179,34,19236,152,1,34443,0.001000000000000112
1408999,12158,10181,127871,-2104,7668,122682,34,19237,139,1,34444,0.0009999999999998899
1409999,9537,-7470,126596,5578,-11936,133085,39,19238,160,1,34445,0.001000000000000112
1410999,6701,-4892,125890,-6399,-1873,125496,40,19234,164,1,34446,0.0009999999999998899
1411999,5853,3733,129010,-4346,3748,127368,48,19234,197,1,34447,0.001000000000000112
1412999,7204,6721,128667,3877,4905,125143,49,19236,197,0,34448,0.0009999999999998899
1413999,9263,1214,127842,-5798,-1146,127541,41,19237,201,0,34449,0.001000000000000112
