t_us,ax,ay,az,ax1,ay1,az1,shunt_raw,bus_raw,curr_raw,pg_rpm,seq,dt
0,1103,-4874,135776,-10642,-6258,141850,267,19212,1094,0,27947,
1002,8871,3550,137122,-8011,4595,130273,227,19215,1094,0,27948,0.0010019999999999999
2002,10490,9785,139499,3884,5373,138231,222,19213,930,1,27949,0.001
3000,7370,-2902,137822,-1968,-6968,145416,222,19229,909,1,27950,0.0009980000000000002
4000,5044,-4458,137717,-12371,-5683,137643,192,19218,786,0,27951,0.001
5000,3190,-7626,138307,1128,-7695,143565,261,19214,1069,0,27952,0.001
6001,5358,5358,137215,-2354,3551,131779,230,19214,942,0,27953,0.0010009999999999993
7000,5809,1573,136107,-13168,415,139566,289,19212,942,1,27954,0.0009989999999999999
8000,11961,-4656,134241,4451,-5432,137121,171,19225,1184,1,27955,0.0010000000000000009
9000,12743,-6364,128456,18570,-7036,131455,171,19224,700,0,27956,0.0009999999999999992
10000,13789,-3660,128846,-5926,-4873,130971,242,19217,991,0,27957,0.0010000000000000009
11000,12343,-4433,127130,3141,-3628,124423,233,19214,954,0,27958,0.0009999999999999992
12000,10789,3784,127504,6468,3556,127586,268,19212,1098,1,27959,0.0010000000000000009
13000,6958,4489,126063,-4400,5025,120977,184,19212,1098,1,27960,0.0009999999999999992
14000,6917,-8405,120931,7135,-8560,124883,215,19225,754,0,27961,0.0009999999999999992
15000,10605,-9564,115784,494,-10183,121944,215,19205,881,0,27962,0.0010000000000000009
16000,16512,7096,118655,12062,5735,103124,221,19213,905,0,27963,0.0010000000000000009
17000,19801,10183,114103,17663,10767,120648,250,19204,1024,1,27964,0.0009999999999999974
18000,12119,1474,118170,-10477,-2253,104122,177,19224,725,1,27965,0.0010000000000000009
19000,18789,6989,120106,-4420,8668,125506,205,19224,725,0,27966,0.0010000000000000009
20002,3998,-12328,118583,38248,-1035,115592,204,19204,840,0,27967,0.0010019999999999994
21000,-2579,7190,121187,-20242,-5078,120893,204,19214,836,0,27968,0.0009979999999999989
22000,5488,-11522,116789,-19827,8416,115920,230,19209,942,1,27969,0.0010000000000000009
23000,8431,35567,124433,11514,36883,103260,236,19228,967,1,27970,0.0010000000000000009
24000,20589,8407,123867,5410,-11310,128005,192,19212,786,0,27971,0.0010000000000000009
25000,1923,-12621,122267,-6429,-11197,125237,256,19212,786,0,27972,0.0009999999999999974
26000,6923,-8859,131426,-3542,-11393,140063,240,19210,1049,0,27973,0.0010000000000000009
27000,324,4104,131960,-8995,16455,117955,240,19209,983,1,27974,0.0010000000000000009
28002,3005,20896,138786,-4015,8752,137889,228,19229,934,1,27975,0.0010019999999999994
29000,-1063,-14686,130275,-12612,-10414,135744,180,19217,737,1,27976,0.0009979999999999989
30000,4145,16106,134424,-18857,13168,124790,283,19211,1159,0,27977,0.0010000000000000009
31000,14099,-1131,137349,12955,-6714,146724,231,19211,1159,0,27978,0.0010000000000000009
32000,4904,6827,137799,-5534,5660,129165,280,19213,946,1,27979,0.0010000000000000009
33000,8567,-7910,141241,-17158,-18454,155448,280,19229,1147,1,27980,0.0010000000000000009
34000,3823,-4097,139762,5447,3406,133224,184,19222,754,0,27981,0.000999999999999994
35000,4695,553,138650,262,-7427,146728,260,19216,1065,0,27982,0.0010000000000000009
36000,2145,-8783,133228,-12316,-2563,132129,228,19210,934,0,27983,0.0010000000000000009
37001,6879,12845,136072,-6069,9922,129987,275,19210,1126,1,27984,0.0010010000000000019
38003,13495,-3937,134681,7671,-5414,143349,186,19214,1126,1,27985,0.001001999999999996
39002,12951,-5491,131169,7818,-4106,126345,229,19223,762,0,27986,0.0009989999999999999
40000,8605,-13227,129227,3596,-16261,140770,229,19208,938,0,27987,0.0009980000000000058
41000,10950,-5602,125093,-3546,-1907,120578,230,19215,942,0,27988,0.000999999999999994
42000,11094,2020,125297,7930,2342,128908,255,19205,1044,1,27989,0.0010000000000000009
43000,10785,3274,124771,2430,6437,119882,172,19205,704,1,27990,0.0010000000000000009
44000,11467,2842,118671,-1035,1305,111568,200,19226,704,0,27991,0.0010000000000000009
45000,9720,-2935,119772,6291,-2537,122560,212,19203,819,0,27992,0.0010000000000000009
46000,18208,-6278,114924,24762,-8184,118169,212,19216,868,0,27993,0.0010000000000000009
47001,7318,3578,115681,-7123,4812,113433,238,19203,975,1,27994,0.0010010000000000019
48000,23456,17073,119115,-18192,15064,105565,173,19230,709,1,27995,0.0009989999999999999
49000,15259,3207,117821,44845,-320,116385,195,19230,799,0,27996,0.000999999999999994
50000,1109,-9193,119911,-4325,-10623,121555,218,19207,799,0,27997,0.0010000000000000009
51000,4337,-2967,115810,-29581,-2456,113299,233,19213,893,0,27998,0.0010000000000000009
52000,1406,15475,121719,11418,16376,114790,233,19210,954,1,27999,0.0010000000000000009
53000,15766,14894,122241,-485,13280,114321,273,19224,1118,1,28000,0.0010000000000000009
54002,12733,-1558,122412,622,-2813,120230,184,19220,754,0,28001,0.001001999999999996
55000,6896,-8794,124363,5088,-11297,133159,250,19212,1024,0,28002,0.0009980000000000058
56000,4998,-6144,128866,-10388,-3922,124033,240,19212,1024,0,28003,0.000999999999999994
57000,4579,13579,132738,-8723,12445,126926,261,19207,983,1,28004,0.0010000000000000009
58000,1687,7757,134169,-9456,7300,133084,261,19227,1069,1,28005,0.0010000000000000009
59000,884,2536,133395,-5368,1810,131609,191,19221,782,1,28006,0.0010000000000000009
60000,891,-7153,134242,-4395,-8204,141153,274,19215,1122,0,28007,0.0010000000000000009
61000,8040,4990,137136,-11896,4474,129939,233,19209,954,0,28008,0.0010000000000000009
62000,12180,6430,138893,-438,4552,137990,291,19209,954,1,28009,0.0010000000000000009
63000,9419,510,138864,3450,-2626,142646,201,19221,1192,1,28010,0.0010000000000000009
64001,3666,-7721,137781,-10329,-8802,141954,201,19218,823,0,28011,0.0010010000000000019
65001,-3731,-167,140884,-6937,-983,140092,246,19209,1008,0,28012,0.0010000000000000009
66000,3042,109,135569,-8646,-1839,139969,223,19217,913,0,28013,0.0009989999999999999
67001,8621,-645,137037,-1162,-334,132744,252,19212,1032,1,28014,0.001000999999999988
68000,10920,3668,132456,3526,2068,133955,173,19212,1032,1,28015,0.0009989999999999999
69000,19372,-12040,126942,4853,-7692,128851,212,19226,709,0,28016,0.0010000000000000009
70000,12123,353,128544,9460,-1310,129895,212,19206,868,0,28017,0.0010000000000000009
71000,12443,-6094,129685,930,-6954,131589,223,19217,913,0,28018,0.0010000000000000009
72000,5833,-954,125534,-2412,2817,121562,239,19208,979,1,28019,0.0010000000000000009
73000,5966,642,126075,4782,-165,126153,151,19225,618,1,28020,0.0010000000000000009
74000,12162,-5844,118098,1879,-5412,116375,188,19225,618,0,28021,0.0010000000000000009
75000,10454,-4699,116675,3189,-8430,119746,232,19209,770,0,28022,0.0010000000000000009
76000,20757,7263,117980,17157,21716,100254,232,19217,950,0,28023,0.0010000000000000009
77001,16220,16530,116020,14100,-1727,123164,239,19203,979,1,28024,0.0010010000000000019
78000,8110,-10343,118461,-21905,-1367,111817,211,19227,864,1,28025,0.0009989999999999999
79000,20021,4666,119419,12977,-4969,115222,183,19210,750,0,28026,0.0010000000000000009
80000,4664,-6784,119098,28446,1866,119619,248,19210,1016,0,28027,0.0010000000000000009
81002,269,8190,121518,-32449,-3219,109934,233,19215,1016,0,28028,0.001001999999999989
82003,6302,-12741,117978,-1713,-6386,124559,320,19205,954,1,28029,0.0010010000000000019
83000,7556,34668,124574,7971,41474,99673,320,19230,1311,1,28030,0.0009969999999999979
84000,20362,14175,126037,8255,-868,124933,187,19217,766,0,28031,0.0010000000000000009
85000,1438,-16702,121161,-13124,-15331,130256,282,19213,1155,0,28032,0.0010000000000000009
86000,7455,-15700,129540,-1974,-14910,138744,234,19213,958,0,28033,0.0010000000000000009
87000,584,5027,131984,-6315,15216,120218,304,19210,958,1,28034,0.0010000000000000009
88000,5912,24122,138847,-3932,15560,129390,184,19228,1245,1,28035,0.0010000000000000009
89000,-3128,-13813,131508,-10979,-12687,141262,184,19220,754,1,28036,0.0010000000000000009
90002,2675,14489,134932,-22626,15295,126820,254,19207,1040,0,28037,0.0010020000000000029
91000,10883,-358,136840,8445,-3826,142162,230,19214,942,0,28038,0.0009979999999999989
92003,4121,973,138314,3258,-746,135160,266,19214,1089,1,28039,0.0010030000000000039
93000,9971,-11638,137815,-18910,-16082,150441,183,19223,1089,1,28040,0.0009969999999999979
94001,3407,3061,140869,3236,4618,132460,229,19221,750,0,28041,0.0010010000000000019
95000,6105,4453,138937,1188,-656,144317,229,19209,938,0,28042,0.0009989999999999999
96000,366,-9689,133237,-11929,-10170,137764,227,19216,930,0,28043,0.0010000000000000009
97000,6838,10665,136542,-10848,10566,129670,244,19207,999,1,28044,0.000999999999999987
98000,11745,-6384,133448,11608,-9053,139543,165,19231,676,1,28045,0.0010000000000000009
99000,16259,-4342,132414,6486,-5844,128716,197,19231,676,0,28046,0.0010000000000000009
100000,8893,-12313,127240,8390,-13492,138145,211,19204,807,0,28047,0.0010000000000000009
101003,9180,329,127487,-6205,1967,120459,211,19214,864,0,28048,0.0010030000000000039
102000,14372,2144,125424,3391,932,128566,238,19206,975,1,28049,0.0009969999999999979
103000,8114,2330,124887,10193,4251,122074,201,19229,823,1,28050,0.0010000000000000009
104000,14509,2146,120657,-6364,1446,114618,180,19213,737,0,28051,0.0010000000000000009
105000,6214,-7944,118373,6872,-8719,118126,249,19213,737,0,28052,0.0010000000000000009
106000,20252,2672,117953,21469,1494,118240,229,19214,1020,0,28053,0.0010000000000000009
107000,8041,-7449,113502,10191,-8570,121245,229,19205,938,1,28054,0.0010000000000000009
108002,16556,27206,120263,-33770,25535,98815,245,19226,1003,1,28055,0.0010020000000000029
109000,24602,-3671,118907,33042,-3037,117769,183,19218,750,0,28056,0.0009979999999999989
110000,-5541,-2822,118377,26937,-3954,119801,259,19215,1061,0,28057,0.0010000000000000009
111000,8395,-10656,118247,-44300,-11362,118312,230,19215,1061,0,28058,0.0010000000000000009
112000,-98,14577,120947,8964,13015,107238,320,19216,942,1,28059,0.000999999999999987
113000,15018,20342,125474,8542,22035,121601,320,19223,1311,1,28060,0.0010000000000000009
114000,14298,-1691,122922,-13847,-1907,117012,184,19225,754,0,28061,0.0010000000000000009
115000,928,-6817,125673,2602,-5888,137201,262,19213,1073,0,28062,0.0010000000000000009
116005,8484,-11917,126613,7151,-1343,124601,234,19215,958,0,28063,0.0010050000000000059
117001,-2411,16814,131069,-11915,19946,121262,284,19215,958,1,28064,0.0009959999999999969
118000,6853,9459,136326,-24700,3208,136214,189,19223,1163,1,28065,0.0009989999999999999
119000,6250,2771,133613,8025,-150,130715,189,19220,774,1,28066,0.0010000000000000009
120000,-473,-10264,134964,3107,-15265,147950,238,19203,975,0,28067,0.0010000000000000009
121001,4137,-3941,136341,-19012,7180,127680,226,19215,926,0,28068,0.0010010000000000019
122000,5571,12895,139535,12017,6020,142235,250,19213,1024,1,28069,0.0009989999999999999
123000,10803,2600,138779,-5365,-1547,141638,176,19213,1024,1,28070,0.0010000000000000009
124000,7596,935,136732,-14605,-7256,136340,212,19225,721,0,28071,0.0010000000000000009
125003,3049,-11788,138578,3641,-8371,147417,212,19206,868,0,28072,0.0010030000000000039
126001,8710,2035,137237,-1226,877,129437,219,19215,897,0,28073,0.0009979999999999989
127000,5034,-1950,137630,-5786,-2360,142967,236,19199,967,1,28074,0.0009989999999999999
128000,9009,-2763,133768,-1935,-2185,134529,162,19227,664,1,28075,0.0010000000000000009
129000,12956,-3728,129507,12056,-4124,128853,182,19227,745,0,28076,0.0010000000000000009
130002,11780,-944,129308,766,-4606,132083,213,19211,745,0,28077,0.0010020000000000029
131000,11181,-8314,125350,3677,-9590,126162,235,19215,872,0,28078,0.0009979999999999989
132001,10349,-9102,126403,2149,1564,126465,235,19206,962,1,28079,0.0010010000000000019
133000,12495,10026,126052,4082,8488,119308,230,19228,942,1,28080,0.0009989999999999999
134000,10854,-6193,118284,7180,-6819,122093,177,19217,725,0,28081,0.0009999999999999731
135000,6813,-74,118528,-5846,-4201,119407,260,19217,1065,0,28082,0.0010000000000000009
136000,15207,-7265,116409,16930,-1194,107892,230,19216,1065,0,28083,0.0010000000000000009
137000,14174,17056,116730,15434,11018,119205,276,19212,942,1,28084,0.0010000000000000009
138000,11886,-8895,116748,-18592,-7020,112014,276,19230,1130,1,28085,0.0010000000000000009
139002,18734,17779,119088,9820,17141,104838,184,19219,754,0,28086,0.0010020000000000029
140000,8053,-2813,118192,29624,-4332,126071,278,19215,1139,0,28087,0.0009979999999999989
141000,-3445,4271,119384,-23954,-51,106468,230,19211,942,0,28088,0.0010000000000000009
142000,2187,-14560,117784,-13969,-12768,132827,294,19211,942,1,28089,0.0010000000000000009
143000,10067,26383,127552,9088,30686,99672,184,19213,1204,1,28090,0.0010000000000000009
144000,16305,21439,125498,14045,15474,118279,184,19222,754,0,28091,0.0010000000000000009
145000,6811,-17833,123060,-18205,-19029,133432,244,19206,999,0,28092,0.0010000000000000009
146000,5050,-5928,126953,-2411,-5060,125982,234,19213,958,0,28093,0.0010000000000000009
147000,5133,4035,132992,-3397,4478,133190,270,19208,1106,1,28094,0.0010000000000000009
148000,4591,20962,137944,-4361,20862,119053,179,19208,1106,1,28095,0.0010000000000000009
149000,-263,-18738,132710,-7412,-18376,149253,217,19223,733,1,28096,0.0010000000000000009
150000,4789,9003,132964,-18810,9810,125506,217,19205,889,0,28097,0.0010000000000000009
151000,8275,3870,136081,4147,752,137533,223,19215,913,0,28098,0.0010000000000000009
152000,7496,-892,135048,1937,-2849,141808,246,19212,1008,1,28099,0.0010000000000000009
153000,6626,-495,140057,-16352,-3621,136411,174,19224,713,1,28100,0.0010000000000000009
154000,7829,-3783,140635,-1424,-4592,146972,206,19224,713,0,28101,0.0010000000000000009
155000,3448,2016,139055,6959,1470,136942,208,19203,844,0,28102,0.0010000000000000009
156000,471,-14102,133241,-10151,-16990,146017,208,19213,852,0,28103,0.0010000000000000009
157000,6505,8057,134698,-15225,7978,127606,233,19201,954,1,28104,0.0010000000000000009
158000,11248,6162,136522,8164,6242,136096,200,19228,819,1,28105,0.0010000000000000009
159000,18548,-6665,130584,5688,-6102,128020,185,19213,758,0,28106,0.0010000000000000009
160000,7744,-9749,128814,8821,-11143,134353,248,19213,758,0,28107,0.0010000000000000009
161000,10278,-6539,126618,-3210,-8771,125771,236,19213,1016,0,28108,0.0010000000000000009
162000,11172,-680,125008,2694,-833,126792,236,19210,967,1,28109,0.0010000000000000009
163000,7401,-254,125365,5718,-511,121116,268,19226,1098,1,28110,0.0010000000000000009
164000,14668,5714,120053,-4117,-4819,114561,176,19217,721,1,28111,0.0009999999999999731
165001,5438,-4073,118172,7405,2581,113993,270,19212,1106,0,28112,0.0010010000000000019
166011,23333,3327,117762,19806,-6108,126167,231,19212,1106,0,28113,0.0010100000000000109
167000,7546,-10974,111015,22945,2728,108585,308,19211,946,1,28114,0.0009889999999999899
168002,12358,21032,121689,-28858,14820,109186,308,19228,1261,1,28115,0.0010020000000000029
169002,23507,-4258,117373,48193,-8342,119174,184,19221,754,0,28116,0.0010000000000000009
170000,-8233,-1900,118675,-2780,-4179,116847,257,19210,1053,0,28117,0.0009979999999999989
171000,12184,-8162,117509,-37852,-5303,117806,228,19213,934,0,28118,0.0010000000000000009
172002,-269,18397,119430,26326,24813,105208,273,19213,1118,1,28119,0.0010020000000000029
173000,14191,20561,124960,-5758,11145,121706,183,19205,1118,1,28120,0.0009979999999999989
174000,16444,-3949,122325,-8909,-5363,111880,227,19222,750,1,28121,0.0010000000000000009
175000,-693,-2976,127831,15761,-13483,139211,227,19213,930,0,28122,0.0010000000000000009
176001,9808,-13589,127344,-14411,-4028,126150,233,19206,954,0,28123,0.0010010000000000019
177000,-1988,17561,131853,-3980,18266,120726,256,19210,1049,1,28124,0.0009989999999999999
178000,4264,10659,136315,-15154,9160,136189,178,19210,729,1,28125,0.0010000000000000009
179002,8917,6658,134070,-13406,4884,123759,207,19224,729,1,28126,0.0010020000000000029
180002,2761,-12682,135969,12651,-17135,153884,223,19201,848,0,28127,0.0010000000000000009
181002,1357,-7008,134333,-10698,-3269,131254,223,19214,913,0,28128,0.0010000000000000009
182002,3955,9707,138090,-20887,11454,134226,236,19208,967,1,28129,0.0010000000000000009
183000,11584,9686,141052,5317,5976,146676,163,19226,668,1,28130,0.0009979999999999989
184000,12940,-2684,135749,5930,-5608,137019,200,19226,819,0,28131,0.0010000000000000009
185000,535,-10079,138164,-6089,-9692,143489,229,19207,819,0,28132,0.0010000000000000009
186000,2802,-4429,134715,-16351,-5239,134742,228,19212,938,0,28133,0.0010000000000000009
187000,5499,-1583,136793,1922,-831,139723,228,19212,934,1,28134,0.0010000000000000009
188023,10389,6318,135217,2695,6064,135624,235,19227,962,1,28135,0.0010229999999999961
189003,13437,-2007,130437,9380,-5336,129470,182,19217,745,0,28136,0.0009800000000000086
190002,11254,-7932,126647,1264,-7863,131438,256,19211,1049,0,28137,0.0009989999999999999
191002,13768,-10570,126523,479,-10750,128117,231,19211,1049,0,28138,0.0010000000000000009
192002,10809,1352,126060,6663,1728,125361,311,19209,946,1,28139,0.0009999999999999731
193000,7816,9540,126033,-2423,9780,117287,311,19229,1274,1,28140,0.0009980000000000266
194000,9840,-2786,119836,4877,-4563,121863,172,19225,704,1,28141,0.0009999999999999731
195000,8332,-12945,116184,4279,-14518,124882,253,19213,1036,0,28142,0.0010000000000000009
196000,17227,3084,118245,12056,5435,106069,230,19215,942,0,28143,0.0010000000000000009
197000,17031,10611,114350,15693,7917,115923,284,19215,942,1,28144,0.0010000000000000009
198000,13480,6187,118920,-17003,4628,107776,184,19219,1163,1,28145,0.0010000000000000009
199000,21202,-210,119256,7752,-786,117408,184,19220,754,0,28146,0.0010000000000000009
200001,2907,-4324,116870,37293,-5081,124736,246,19209,1008,0,28147,0.0010010000000000019
201000,-504,4601,119763,-30948,2995,105815,224,19215,917,0,28148,0.0009989999999999999
202001,6912,-4357,118920,-10453,-3794,124754,258,19201,1057,1,28149,0.0010010000000000019
203000,10652,26469,124763,12012,25704,106286,190,19201,1057,1,28150,0.0009989999999999999
204000,16601,6541,123919,6674,7822,119260,218,19226,778,1,28151,0.0010000000000000009
205000,1786,-5479,123847,-15243,-7291,122955,218,19204,893,0,28152,0.0010000000000000009
206002,9097,-14093,129243,1397,-13936,138889,222,19212,909,0,28153,0.0010020000000000029
207000,1218,7966,131447,-1035,4261,117238,245,19202,1003,1,28154,0.0009979999999999989
208000,2475,15203,139060,-14500,18609,139236,158,19223,647,1,28155,0.0010000000000000009
209000,-2459,-9403,131427,-4841,-9376,131641,195,19223,647,1,28156,0.0010000000000000009
210000,7295,7827,135134,-15248,7444,134601,245,19205,799,0,28157,0.0010000000000000009
211000,8510,-2394,134599,1616,-447,139411,245,19216,1003,0,28158,0.0010000000000000009
212003,5142,7655,138118,-12632,837,134821,231,19206,946,1,28159,0.0010030000000000039
213003,7162,-8741,137712,-22538,-12957,150685,202,19228,827,1,28160,0.0010000000000000009
214002,6194,1615,141622,2098,5485,134827,188,19216,770,0,28161,0.0009989999999999999
215000,5197,-3949,137626,-2085,-10298,147007,240,19216,770,0,28162,0.0009979999999999989
216000,609,-3942,134324,-15977,-145,129807,227,19218,983,0,28163,0.0010000000000000009
217000,8840,8716,133900,-1289,2423,136410,227,19215,930,1,28164,0.0010000000000000009
218000,10919,198,134526,13205,4154,133869,262,19235,1073,1,28165,0.0010000000000000009
219000,15803,1223,133658,218,-7424,130540,177,19217,725,0,28166,0.0010000000000000009
220002,8927,-18828,128547,2581,-16188,137789,263,19215,1077,0,28167,0.0010020000000000029
221000,10297,-2905,127481,1679,1208,121873,232,19215,950,0,28168,0.0009979999999999989
222000,12528,-2257,125424,4069,-1876,129882,289,19211,950,1,28169,0.0010000000000000009
223001,7976,3732,124394,1442,8402,115907,185,19216,1184,1,28170,0.0010009999999999741
224000,14138,7893,121871,466,659,119295,185,19221,758,1,28171,0.0009989999999999999
225002,9275,-16229,116655,10470,-9174,116460,243,19203,995,0,28172,0.0010020000000000029
226000,19738,10759,120824,10386,9069,114447,230,19217,942,0,28173,0.0009979999999999989
227000,13489,-18292,110261,15075,-19980,125642,266,19217,1089,1,28174,0.0010000000000000009
228002,5722,24196,118650,-27457,27157,96576,192,19208,1089,1,28175,0.0010020000000000029
229002,26138,-977,118409,23436,-8039,123463,220,19224,786,0,28176,0.0010000000000000009
230000,-5848,-1218,115675,27441,2716,112906,220,19205,901,0,28177,0.0009979999999999989
231000,8195,-5286,119000,-47780,-9250,121646,222,19216,909,0,28178,0.0010000000000000009
232003,3706,1181,117373,18192,9533,110673,249,19197,1020,1,28179,0.0010030000000000039
233000,4828,32151,125477,4135,24442,113305,180,19227,737,1,28180,0.0009969999999999979
234000,21474,-3497,124154,-17224,-4771,120624,200,19227,737,1,28181,0.0010000000000000009
235000,-2587,962,124735,19985,-2261,126593,209,19200,819,0,28182,0.0010000000000000009
236000,12818,-12662,131104,-13713,-11818,137149,209,19211,856,0,28183,0.0010000000000000009
237001,-453,16045,129427,-6036,18683,112826,234,19202,958,1,28184,0.0010010000000000019
238000,629,10375,137269,-7568,7659,141181,188,19227,770,1,28185,0.0009989999999999999
239000,10897,-2540,132620,-22857,-852,125960,199,19209,815,1,28186,0.0010000000000000009
240000,-1159,-455,136542,18068,-4400,142026,269,19209,815,0,28187,0.0010000000000000009
241000,5648,-11928,135433,-11223,-12350,144196,229,19213,1102,0,28188,0.0010000000000000009
242001,5321,11760,135387,-19343,11911,122999,229,19213,938,1,28189,0.0010010000000000019
243000,9288,5132,140087,5280,681,150885,220,19229,901,1,28190,0.0009989999999999999
244000,13950,-386,136715,104,-1693,133417,185,19218,758,0,28191,0.0010000000000000009
245000,-2441,-9570,137774,-1310,-11254,146486,258,19216,1057,0,28192,0.0010000000000000009
246000,4006,-7187,137300,-13895,-8595,138674,229,19216,1057,0,28193,0.0010000000000000009
247009,5830,1941,135387,-831,2110,132893,311,19217,938,1,28194,0.0010089999999999821
248000,11288,4882,136440,1486,3642,140944,311,19229,1274,1,28195,0.0009910000000000196
249000,12973,-4127,127493,8092,-4496,127184,174,19220,713,0,28196,0.0010000000000000009
250000,11449,-7597,128198,-1376,-8509,133218,247,19218,1012,0,28197,0.0010000000000000009
251001,14893,-7013,126765,6594,-7144,130627,230,19218,942,0,28198,0.0010009999999999741
252001,7812,-1577,125067,7538,-2557,125272,273,19218,942,1,28199,0.0010000000000000009
253000,10852,6366,126856,-7970,7100,119833,176,19218,1118,1,28200,0.0009990000000000276
254001,9084,308,118906,7437,-159,117619,176,19226,721,1,28201,0.0010009999999999741
255000,8941,-4057,117365,3664,-5198,124017,221,19203,905,0,28202,0.0009990000000000276
256000,15569,-7325,116400,5146,-8902,102672,224,19215,917,0,28203,0.0010000000000000009
257000,16838,16260,116322,21940,14857,123057,250,19209,1024,1,28204,0.0010000000000000009
258000,11056,-5759,117701,-7215,6203,106959,174,19209,1024,1,28205,0.0010000000000000009
259000,19297,13260,119421,-13334,1453,116963,205,19226,713,0,28206,0.0010000000000000009
260000,7501,-12132,116868,36906,-3996,123073,205,19205,840,0,28207,0.0010000000000000009
261000,-4337,6363,120743,-4587,-574,108410,214,19216,876,0,28208,0.0010000000000000009
262000,6631,-11247,116942,-6758,-4600,127600,240,19204,983,1,28209,0.0010000000000000009
263000,8803,26641,124912,19937,34490,100145,224,19228,917,1,28210,0.0010000000000000009
264000,17523,19409,124503,2988,2398,123973,193,19228,790,1,28211,0.0010000000000000009
265000,5097,-13490,122704,-18675,-14696,127494,248,19205,790,0,28212,0.0010000000000000009
266001,5995,-12247,127919,5244,-8332,136425,238,19217,1016,0,28213,0.0010009999999999741
267000,3959,105,131672,-8324,7263,123855,238,19208,975,1,28214,0.0009990000000000276
268000,1265,26935,138640,-9263,19011,122826,221,19227,905,1,28215,0.0009999999999999454
269000,288,-11559,132593,-10299,-15974,146122,194,19213,795,1,28216,0.0010000000000000009
270000,2315,4302,133082,-14181,10334,126715,295,19213,1208,0,28217,0.0010000000000000009
271000,11493,2563,137712,5469,-3164,142524,231,19210,1208,0,28218,0.0010000000000000009
272000,5299,2530,135842,814,3816,132669,245,19215,946,1,28219,0.0010000000000000009
273000,7077,-3062,139638,-19758,-11122,147169,245,19227,1003,1,28220,0.0010000000000000009
274002,7119,-7172,139030,3370,-2993,140524,195,19216,799,0,28221,0.0010020000000000029
275001,4164,4653,139386,5819,443,140245,268,19217,1098,0,28222,0.0009990000000000276
276000,2487,-8869,133278,-14425,-7266,139336,231,19217,946,0,28223,0.0009989999999999721
277000,7514,5471,134564,-9086,7366,128327,277,19213,946,1,28224,0.0010000000000000009
278000,12114,715,134749,15633,-2005,141419,182,19215,1135,1,28225,0.0010000000000000009
279000,15077,-3840,132040,3176,-4075,128515,182,19222,745,0,28226,0.0010000000000000009
280000,9104,-8244,129268,-244,-12501,135924,232,19209,950,0,28227,0.0010000000000000009
281000,10317,-10399,126045,2838,-7684,127216,228,19214,934,0,28228,0.0010000000000000009
282000,12750,8258,126597,5477,6254,123339,254,19212,1040,1,28229,0.0010000000000000009
283000,7003,-3138,124407,1540,-1839,127526,172,19212,1040,1,28230,0.0010000000000000009
284000,10873,6253,121796,-3912,4121,108915,201,19229,704,1,28231,0.0010000000000000009
285000,7053,-8229,118180,9016,-10419,123056,201,19205,823,0,28232,0.0010000000000000009
286000,18683,5874,119787,10040,7523,109429,238,19216,975,0,28233,0.0010000000000000009
287000,14469,-12326,110214,17360,-16322,128002,237,19195,971,1,28234,0.0010000000000000009
288000,9032,18976,120010,-19550,19284,101213,157,19227,643,1,28235,0.0010000000000000009
289001,26799,7265,117256,5314,4290,111403,194,19227,643,0,28236,0.0010010000000000296
290000,-3880,-7450,116903,43089,-8254,125468,211,19206,795,0,28237,0.0009989999999999721
291000,4610,-5310,117261,-43591,-7174,113546,211,19214,864,0,28238,0.0010000000000000009
292000,4202,1133,117579,-916,2538,118766,234,19202,958,1,28239,0.0010000000000000009
293001,5394,36481,123187,15563,34789,107417,248,19228,1016,1,28240,0.0010010000000000296
294000,24195,-6292,123179,-15344,-5334,122257,186,19211,762,1,28241,0.0009989999999999721
295000,-2037,-2075,124264,11136,-4526,124709,249,19211,762,0,28242,0.0010000000000000009
296000,13271,-11659,132090,-4138,-10576,135814,239,19214,1020,0,28243,0.0010000000000000009
297000,-614,9006,128417,-9052,7109,119146,239,19208,979,1,28244,0.0010000000000000009
298000,1204,18533,139641,-12055,20495,130050,248,19234,1016,1,28245,0.0010000000000000009
299000,11197,-6997,130863,-12004,-7321,136881,184,19222,754,1,28246,0.0010000000000000009
300000,-5881,2592,135382,10009,1480,145023,288,19215,1180,0,28247,0.0010000000000000009
301000,12329,-17903,136531,-19564,-17925,135474,229,19215,1180,0,28248,0.0010000000000000009
302000,2445,14111,137321,1372,11152,129477,273,19211,938,1,28249,0.0010000000000000009
303000,13735,2113,139749,-4626,1181,153997,273,19228,1118,1,28250,0.0010000000000000009
304001,5968,-5339,133636,-2176,-9349,130688,190,19222,778,0,28251,0.0010009999999999741
305000,-618,-3434,138519,-1546,-11319,151862,256,19212,1049,0,28252,0.0009990000000000276
306003,7099,-6810,134653,-13201,-735,128540,228,19214,934,0,28253,0.0010029999999999761
307000,1291,11468,138650,2877,7592,136404,264,19214,934,1,28254,0.0009970000000000256
308000,15321,-5272,135136,-6804,-7692,141364,176,19212,1081,1,28255,0.0010000000000000009
309000,9646,-2307,128649,10937,-2695,122155,176,19224,721,0,28256,0.0010000000000000009
310000,12265,-721,130605,1306,-11123,140854,219,19207,897,0,28257,0.0010000000000000009
311000,11319,-10886,125057,6234,-4946,119518,231,19215,946,0,28258,0.0010000000000000009
312000,9148,4507,128575,313,2480,128265,249,19201,1020,1,28259,0.0010000000000000009
313000,11820,-1557,124794,1765,2929,121614,163,19201,668,1,28260,0.0010000000000000009
314000,11375,2233,118832,4024,2968,113633,194,19224,668,1,28261,0.0010000000000000009
315000,9439,-2707,119661,320,-10869,127231,204,19201,795,0,28262,0.0010000000000000009
316000,14850,-8579,113830,16812,3799,101278,204,19216,836,0,28263,0.0010000000000000009
317000,15222,18881,119256,9925,8133,125046,241,19204,987,1,28264,0.0010000000000000009
318000,12134,-15089,114325,-15031,-5688,111310,197,19228,807,1,28265,0.0010000000000000009
319000,18099,17483,120107,7720,15066,105884,191,19228,782,0,28266,0.0010000000000000009
320000,10805,-9953,117034,27532,-11290,129470,243,19210,782,0,28267,0.0010000000000000009
321000,-3747,5347,117983,-21957,4393,102255,232,19214,995,0,28268,0.0010000000000000009
322002,5769,-10335,119600,-14731,-11566,133853,232,19207,950,1,28269,0.0010020000000000029
323000,6758,23849,123822,11300,31808,98190,300,19230,1229,1,28270,0.0009979999999999989
324002,16685,24077,126162,11245,12276,122125,188,19213,770,1,28271,0.0010020000000000029
325000,6027,-18832,121701,-17784,-18347,130735,276,19213,1130,0,28272,0.0009979999999999989
326000,5625,-2407,127829,-417,-5601,127068,236,19210,1130,0,28273,0.0010000000000000009
327000,5369,-275,132654,-1589,4226,135103,269,19211,967,1,28274,0.0010000000000000009
328003,2620,25706,137875,-6916,23939,115159,269,19229,1102,1,28275,0.0010029999999999761
329000,-515,-15683,132871,-10215,-18550,152179,187,19218,766,1,28276,0.0009969999999999701
330000,2081,6772,133257,-15773,10635,123439,266,19208,1089,0,28277,0.0010000000000000009
331000,9916,3236,137617,2219,-1016,140223,228,19216,934,0,28278,0.0010000000000000009
332003,7038,-277,135547,3452,-950,137584,276,19216,934,1,28279,0.0010030000000000316
333000,6640,310,139443,-16078,-4573,139556,198,19221,1130,1,28280,0.0009969999999999701
334000,7831,-5931,139829,-2654,-5263,145535,198,19220,811,0,28281,0.0010000000000000009
335000,4065,4554,138461,7295,4676,134504,241,19209,987,0,28282,0.0010000000000000009
336000,1237,-14658,134006,-11225,-17631,146056,229,19215,938,0,28283,0.0010000000000000009
337000,6660,4006,134652,-14694,5380,127261,252,19202,1032,1,28284,0.0010000000000000009
338000,10574,2443,134477,11031,-105,140593,179,19202,1032,1,28285,0.0010000000000000009
339000,17837,-3163,131649,7275,-2666,130210,205,19229,733,1,28286,0.0010000000000000009
340000,8682,-7558,128028,3913,-9501,132423,205,19206,840,0,28287,0.0010000000000000009
341000,10418,-7276,126410,-923,-7736,129704,218,19217,893,0,28288,0.0010000000000000009
342000,12104,2826,124818,6042,2087,122918,239,19199,979,1,28289,0.0010000000000000009
343002,7197,-4852,125624,2269,-4029,130108,185,19230,758,1,28290,0.0010020000000000029
344000,13920,11127,121341,-2269,10070,111163,180,19230,758,1,28291,0.0009979999999999989
345000,5728,-9572,116839,10433,-9656,120132,238,19213,737,0,28292,0.0010000000000000009
346000,20376,6233,119772,9029,5989,110350,238,19212,975,0,28293,0.0010000000000000009
347000,14170,-16188,110690,16876,-16883,115203,232,19211,950,1,28294,0.0010000000000000009
348000,7791,24066,121019,-15793,18874,101284,226,19224,926,1,28295,0.0010000000000000009
349000,27494,-740,117743,-2252,4379,123702,185,19214,758,1,28296,0.0010000000000000009
350000,-6443,-6397,116018,45906,-10649,115411,239,19214,758,0,28297,0.0010000000000000009
351000,8515,-8640,117253,-34494,-7100,123769,230,19215,979,0,28298,0.0010000000000000009
352000,1027,5815,116267,-8378,26954,101601,230,19217,942,1,28299,0.0010000000000000009
353000,8239,34466,125306,10682,21004,118829,329,19228,1347,1,28300,0.0010000000000000009
354000,23619,-9195,121380,-12085,-11513,119932,185,19224,758,1,28301,0.0010000000000000009
355000,-3441,-774,123965,14325,-6224,131823,276,19213,1130,0,28302,0.0010000000000000009
356000,13178,-15106,129287,-21167,-12047,132006,237,19213,971,0,28303,0.0010000000000000009
357000,-2995,16664,130264,398,22452,114258,289,19212,971,1,28304,0.0010000000000000009
358000,4759,13359,139651,-13033,1572,146007,180,19228,1184,1,28305,0.0010000000000000009
359000,5440,-3256,130064,-40,2787,121262,180,19222,737,1,28306,0.0010000000000000009
360000,-2742,2513,135841,-15499,-10363,147609,240,19199,983,0,28307,0.0010000000000000009
361002,11724,-10488,136188,-9329,-5250,133593,232,19218,950,0,28308,0.0010020000000000029
362001,3422,15760,139361,5675,11046,132790,261,19218,1069,1,28309,0.0009989999999999721
363000,12668,-5231,140236,-8311,-10335,153891,178,19211,1069,1,28310,0.0009990000000000276
364000,1288,237,136917,-2712,3549,127092,213,19224,729,0,28311,0.0010000000000000009
365000,4865,-7655,137692,-7259,-12524,154665,213,19209,872,0,28312,0.0010000000000000009
366000,7644,-2528,134568,-436,2762,124520,219,19217,897,0,28313,0.0010000000000000009
367000,3526,7403,137622,-5997,1629,139659,238,19202,975,1,28314,0.0010000000000000009
368000,13639,-7117,133313,-373,-3854,137938,161,19202,659,1,28315,0.0010000000000000009
369000,11917,4455,129078,14505,4907,125688,192,19226,659,1,28316,0.0010000000000000009
370000,13453,-12386,129225,625,-13435,140992,206,19205,786,0,28317,0.0010000000000000009
371000,9494,-4067,123827,2713,-686,115331,206,19214,844,0,28318,0.0010000000000000009
372000,10332,-212,129695,95,-1740,134779,232,19209,950,1,28319,0.0010000000000000009
373005,10898,1349,124058,3066,4630,116212,223,19228,913,1,28320,0.0010049999999999781
374000,10507,6394,122168,7281,5374,115985,181,19213,741,1,28321,0.0009950000000000236
375000,11247,-7173,118083,-1862,-11910,127134,246,19213,741,0,28322,0.0010000000000000009
376000,11420,-4255,116340,16724,1414,101744,232,19214,1008,0,28323,0.0010000000000000009
377000,16812,7689,118953,11928,118,130158,232,19207,950,1,28324,0.0010000000000000009
378000,10465,-4706,116338,-14076,-2274,103515,259,19231,1061,1,28325,0.0010000000000000009
379000,18716,18308,121154,6071,15392,109047,182,19220,745,1,28326,0.0010000000000000009
380000,9205,-14620,115188,29395,-14815,129918,270,19214,1106,0,28327,0.0010000000000000009
381000,-4285,6445,118464,-21048,4164,103117,235,19214,1106,0,28328,0.0010000000000000009
382001,5341,-10813,118305,-17572,-10272,133505,308,19212,962,1,28329,0.0010009999999999741
383000,7036,30645,125163,10366,32899,95046,308,19219,1261,1,28330,0.0009990000000000276
384000,18530,11404,125756,9921,8104,125290,184,19224,754,1,28331,0.0010000000000000009
385000,4542,-11918,121198,-14142,-13117,126747,251,19210,1028,0,28332,0.0010000000000000009
386000,5378,-174,127556,-3001,-1281,127141,234,19213,958,0,28333,0.0010000000000000009
387002,4660,1297,130990,-4070,609,134366,276,19213,958,1,28334,0.0010019999999999474
388000,1458,21959,139007,-7615,23232,116057,184,19218,1130,1,28335,0.0009979999999999989
389000,664,-17486,134254,-7935,-17600,151510,184,19224,754,1,28336,0.0010000000000000009
390000,2179,9829,134035,-14405,9168,122408,227,19196,930,0,28337,0.0010000000000000009
391000,10020,-2095,136234,480,-2960,140934,225,19213,922,0,28338,0.0010000000000000009
392000,7119,2822,134710,7041,-308,137785,248,19211,1016,1,28339,0.0010000000000000009
393000,7639,-1314,139589,-19683,-3179,138514,178,19211,1016,1,28340,0.0010000000000000009
394000,10070,-9296,139173,311,-10722,134996,209,19223,729,1,28341,0.0010000000000000009
395001,2559,2879,139727,7460,3560,145520,209,19202,856,0,28342,0.0010010000000000296
396000,1560,-14829,133839,-9358,-16636,137705,214,19210,876,0,28343,0.0009989999999999721
397002,5170,6645,133623,-14467,4389,129070,235,19201,962,1,28344,0.0010020000000000029
398001,10768,4374,134934,6533,-1300,139806,188,19231,770,1,28345,0.0009990000000000276
399000,18466,201,130054,3318,-1378,124073,187,19231,766,1,28346,0.0009989999999999721
400000,8712,-10418,129300,6572,-15801,140230,241,19208,766,0,28347,0.0010000000000000009
401000,10251,-10251,125498,3698,-1465,121938,232,19217,987,0,28348,0.0010000000000000009
402000,9262,6951,126884,-212,-1667,126014,232,19204,950,1,28349,0.0010000000000000009
403000,5355,-1644,125558,2762,2408,124113,259,19229,1061,1,28350,0.0010000000000000009
404000,13873,11393,121540,-491,7516,110243,177,19221,725,1,28351,0.0010000000000000009
405003,5683,-11770,115988,10885,-12033,121204,268,19221,1098,0,28352,0.0010030000000000316
406000,19835,5451,120410,7415,12506,110131,231,19213,1098,0,28353,0.0009969999999999701
407000,16668,-11563,111070,19532,-18040,126741,296,19210,946,1,28354,0.0010000000000000009
408000,5491,19593,121416,-27016,26729,97430,296,19226,1212,1,28355,0.0010000000000000009
409002,28213,5694,118844,19556,-7580,119809,183,19221,750,1,28356,0.0010020000000000029
410000,-4864,-6845,117381,31016,-4075,120061,263,19217,1077,0,28357,0.0009979999999999989
411000,7133,-8678,116016,-48404,-8887,119866,234,19217,958,0,28358,0.0010000000000000009
412001,4912,-1874,117204,14354,10032,110393,284,19214,958,1,28359,0.0010010000000000296
413000,5276,36935,124186,2810,30661,110780,185,19210,1163,1,28360,0.0009989999999999721
414000,24600,-3216,123161,-9555,-8394,121238,185,19226,758,1,28361,0.0010000000000000009
415002,-2364,-2455,123484,16257,-4006,128301,228,19209,934,0,28362,0.0010020000000000029
416000,12721,-14202,129246,-17451,-15079,136971,230,19212,942,0,28363,0.0009979999999999989
417000,-1669,10081,127944,-6821,17399,113793,261,19212,1069,1,28364,0.0010000000000000009
418000,3774,15404,139209,-4236,8707,141605,182,19212,1069,1,28365,0.0010000000000000009
419000,7397,-4393,130457,-3928,-5341,128036,210,19227,745,1,28366,0.0010000000000000009
420000,-4493,8258,136168,-11256,3733,138460,210,19195,860,0,28367,0.0010000000000000009
421000,11500,-10311,137001,-11962,-9236,140881,214,19212,876,0,28368,0.0010000000000000009
422000,3068,13872,138091,11399,11515,127657,233,19201,954,1,28369,0.0010000000000000009
423000,12850,-5614,141231,-13840,-9744,155784,158,19228,647,1,28370,0.0010000000000000009
424000,3415,-1286,136743,-1199,847,127947,198,19228,647,1,28371,0.0010000000000000009
425000,4091,-4242,139218,-1902,-7634,150178,224,19205,811,0,28372,0.0010000000000000009
426000,8439,-5176,135342,-4922,-4725,132058,224,19217,917,0,28373,0.0010000000000000009
427000,2010,8107,137614,-4797,5002,133642,229,19205,938,1,28374,0.0010000000000000009
428000,10778,-7169,133753,-5014,-6910,143583,238,19222,975,1,28375,0.0010000000000000009
429002,12049,1748,131370,9645,754,123842,184,19220,754,1,28376,0.0010020000000000029
430001,14955,-9760,129136,6171,-11722,141830,238,19220,754,0,28377,0.0009989999999999721
431000,7936,-7131,124158,6024,-7140,121189,236,19213,975,0,28378,0.0009990000000000276
432000,12538,2030,126696,-2419,1564,128202,236,19213,967,1,28379,0.0010000000000000009
433000,9072,1848,124511,1731,2287,122237,301,19223,1233,1,28380,0.0010000000000000009
434000,11580,8553,121708,7228,8658,112899,186,19224,762,1,28381,0.0010000000000000009
435000,10308,-7848,118908,-3148,-8476,125388,270,19213,1106,0,28382,0.0010000000000000009
436000,12320,-7184,116423,15607,-6764,107517,227,19213,1106,0,28383,0.0010000000000000009
437001,18344,12827,117934,20817,11344,122759,286,19213,930,1,28384,0.0010009999999999741
438000,9361,-3178,115339,-13990,-5423,111152,286,19218,1171,1,28385,0.0009990000000000276
439000,18714,19946,122454,-7586,21425,101111,195,19226,799,1,28386,0.0010000000000000009
440000,11400,-12695,115766,37453,-13690,132433,245,19208,1003,0,28387,0.0010000000000000009
441000,-4785,1886,119223,-9092,35,113713,227,19219,930,0,28388,0.0010000000000000009
442000,7902,-13161,117522,-29039,-13390,125180,260,19219,930,1,28389,0.0010000000000000009
443000,4971,26869,122991,13335,21656,97877,180,19201,1065,1,28390,0.0010000000000000009
444000,20129,19053,126442,10231,24823,130943,213,19222,737,1,28391,0.0010000000000000009
445000,4287,-15992,120364,-15318,-20333,120304,213,19202,872,0,28392,0.0010000000000000009
446000,7511,-3598,128129,-4565,-7456,137792,225,19213,922,0,28393,0.0010000000000000009
447000,5419,-2486,128948,2042,12440,121270,243,19209,995,1,28394,0.0009999999999999454
448000,616,23978,138486,-8379,11704,130330,168,19209,688,1,28395,0.0010000000000000009
449000,1027,-14985,133150,-9363,-15629,145340,197,19226,688,1,28396,0.0010000000000000009
450000,-155,9238,133581,-15011,13847,122310,241,19203,807,0,28397,0.0010000000000000009
451000,10903,1350,138481,5913,-5324,146565,241,19214,987,0,28398,0.0010000000000000009
452000,5610,3032,135225,448,6171,128702,230,19204,942,1,28399,0.0010000000000000009
453000,7617,-527,140100,-19901,-16093,151072,173,19229,709,1,28400,0.0010000000000000009
454000,7958,-5509,141887,3860,-550,137848,195,19229,799,1,28401,0.0010000000000000009
455000,3018,5729,139479,3873,-3879,142376,239,19211,799,0,28402,0.0010000000000000009
456001,1969,-15716,135643,-16507,-12793,142207,228,19216,979,0,28403,0.0010010000000000296
457001,4870,6753,133957,-8368,9604,126250,228,19209,934,1,28404,0.0010000000000000009
458000,11408,1886,134160,11208,-328,142406,251,19232,1028,1,28405,0.0009989999999999721
459000,18137,-580,130558,6247,882,123555,177,19218,725,1,28406,0.0010000000000000009
460000,9903,-6059,128629,2289,-12608,137758,258,19218,1057,0,28407,0.0010000000000000009
461000,10747,-12176,125002,-224,-7769,126508,230,19213,1057,0,28408,0.0010000000000000009
462000,10316,7418,125469,3469,7067,123201,301,19214,942,1,28409,0.0010000000000000009
463000,8425,-4250,125322,3450,-3387,129243,301,19228,1233,1,28410,0.0010000000000000009
464000,11750,9100,120621,-1987,11838,106781,174,19224,713,1,28411,0.0010000000000000009
465000,8673,-7934,119070,10702,-10993,123133,246,19210,1008,0,28412,0.0010000000000000009
466000,17624,5979,120195,9716,10451,108523,228,19213,934,0,28413,0.0010000000000000009
467001,16135,-11492,112596,18109,-18459,127650,272,19213,934,1,28414,0.0010010000000000296
468000,6674,16679,120326,-24268,20905,100921,182,19215,1114,1,28415,0.0009989999999999721
469000,27269,5884,119143,11564,-84,114314,182,19221,745,1,28416,0.0010000000000000009
470000,-2607,-12095,116163,43197,-12502,125409,226,19206,926,0,28417,0.0010000000000000009
471000,6004,-5683,119265,-45430,-8371,114143,226,19217,926,0,28418,0.0010000000000000009
472000,4367,-390,115382,5500,4420,116367,252,19203,1032,1,28419,0.0010000000000000009
473000,4957,36642,124698,5023,34070,106845,165,19203,1032,1,28420,0.0010000000000000009
474001,24265,-3874,121189,-9513,-7034,122937,207,19226,676,1,28421,0.0010010000000000296
475001,-2167,-2686,122927,16255,-4630,126746,207,19200,848,0,28422,0.0009999999999999454
476001,12458,-12047,130111,-12911,-12619,134608,216,19210,885,0,28423,0.0010000000000000009
477000,-578,10453,128694,-11431,11293,117196,245,19195,1003,1,28424,0.0009990000000000276
478000,2657,19959,139490,-4002,18587,134426,160,19225,655,1,28425,0.0010000000000000009
479000,5080,-6246,129313,-6642,-6822,136086,191,19225,655,1,28426,0.0010000000000000009
480001,-4494,7421,135735,-9321,6169,129700,262,19214,782,0,28427,0.0010009999999999741
481000,11389,-13581,137544,-15744,-13534,146069,262,19216,1073,0,28428,0.0009990000000000276
482000,5957,13802,138829,13811,12211,125482,235,19209,962,1,28429,0.0010000000000000009
483000,10153,-4869,141014,-8690,-7804,153673,222,19224,909,1,28430,0.0010000000000000009
484000,3418,-2202,137426,-10406,-3399,132402,191,19214,782,1,28431,0.0010000000000000009
485000,3253,-3480,138353,-344,-4122,146193,248,19214,782,0,28432,0.0010000000000000009
486000,10505,-5998,135488,-1136,-7337,138813,227,19214,1016,0,28433,0.0010000000000000009
487000,3821,4401,135401,-992,4541,125871,227,19216,930,1,28434,0.0010000000000000009
488000,10996,-8253,135918,-9789,-8848,134735,311,19231,1274,1,28435,0.0010000000000000009
489000,14539,2536,129146,10808,1296,129586,177,19222,725,1,28436,0.0010000000000000009
490000,11620,-9379,129440,7036,-10421,137663,264,19213,1081,0,28437,0.0010000000000000009
491000,10304,-3241,124133,1752,-5915,116110,232,19213,950,0,28438,0.0010000000000000009
492000,10290,-727,126883,2142,-411,133930,280,19210,950,1,28439,0.0010000000000000009
493000,11291,1984,125531,-1376,8187,115333,173,19218,1147,1,28440,0.0010000000000000009
494003,10997,5163,120439,7170,2846,118327,173,19224,709,1,28441,0.0010029999999999761
495000,7934,-4100,119366,-1507,-17726,121826,226,19206,926,0,28442,0.0009970000000000256
496000,11526,-6726,117615,5809,4865,106067,228,19216,934,0,28443,0.0010000000000000009
497000,17083,11270,117827,13445,-3954,128816,257,19216,1053,1,28444,0.0010000000000000009
498000,9547,-3426,115332,-20182,8291,99743,181,19206,1053,1,28445,0.0010000000000000009
499000,19743,21527,120735,9676,12940,111210,211,19223,741,1,28446,0.0010000000000000009
500000,10878,-12252,116763,35816,-11538,126776,211,19205,864,0,28447,0.0010000000000000009
501000,-3653,-1005,118999,-29550,-5008,110438,220,19213,901,0,28448,0.0010000000000000009
502000,4106,-13064,118407,-16427,-6140,127666,243,19205,995,1,28449,0.0010000000000000009
503000,7018,32177,124250,15615,38655,96487,222,19205,909,1,28450,0.0010000000000000009
504002,16648,16360,123828,9957,6576,127566,204,19227,909,1,28451,0.0010019999999999474
505000,7083,-16751,122045,-17176,-15297,124690,240,19204,836,0,28452,0.0009980000000000544
506000,6760,-3546,126444,865,-6521,131361,240,19214,983,0,28453,0.0010000000000000009
507000,5344,-447,130925,-2894,4246,130131,240,19204,983,1,28454,0.0010000000000000009
508000,809,22954,137681,-6744,18099,121967,222,19229,909,1,28455,0.0010000000000000009
509000,10,-11765,133080,-11460,-15090,149196,188,19216,770,1,28456,0.0010000000000000009
510000,-114,8332,133700,-17420,13917,122050,273,19216,770,0,28457,0.0010000000000000009
511003,11020,1045,137694,4746,-3784,142511,231,19214,1118,0,28458,0.0010029999999999761
512000,8572,2771,135230,5300,2393,133806,231,19216,946,1,28459,0.0009970000000000256
513000,8317,1957,139625,-17598,-4729,141971,226,19224,926,1,28460,0.0010000000000000009
514002,7839,-6419,139969,-1779,-4346,143452,191,19215,782,1,28461,0.0010019999999999474
515000,3527,3569,140162,9552,-521,138852,260,19218,1065,0,28462,0.0009980000000000544
516000,1144,-14176,135774,-14749,-14964,145185,231,19218,1065,0,28463,0.0010000000000000009
517000,5133,5097,133939,-13866,7449,126884,276,19214,946,1,28464,0.0010000000000000009
518000,10841,3739,135071,11259,1540,139309,276,19227,1130,1,28465,0.0010000000000000009
519000,18630,-1167,130148,5628,-620,129732,177,19221,725,1,28466,0.0010000000000000009
520000,9257,-6901,128442,5306,-10363,133829,236,19209,967,0,28467,0.0010000000000000009
521000,8247,-16912,125698,-1556,-13291,130845,234,19209,958,0,28468,0.0010000000000000009
522001,11877,3156,125710,3619,1956,123521,259,19209,958,1,28469,0.0010009999999999186
523000,7879,-4633,123743,3111,-4382,130586,173,19213,1061,1,28470,0.0009990000000000832
524000,13639,13453,121068,-1214,13365,108122,173,19230,709,1,28471,0.0010000000000000009
525000,7005,-11666,115129,7794,-13957,122777,208,19202,852,0,28472,0.0010000000000000009
526000,17210,8404,121109,8738,10641,106627,220,19216,901,0,28473,0.0010000000000000009
527000,16331,-14602,112056,19332,-17286,130547,247,19196,1012,1,28474,0.0010000000000000009
528000,4679,16685,121511,-15034,16446,102137,160,19196,1012,1,28475,0.0010000000000000009
529000,28447,6169,118874,-6551,7082,110356,195,19227,655,1,28476,0.0010000000000000009
530001,-2757,-2648,117407,48485,-4245,123099,195,19203,799,0,28477,0.0010009999999999186
531000,5761,-8455,117886,-32758,-8267,114304,215,19214,881,0,28478,0.0009990000000000832
532001,5744,-3046,117914,-6939,-3537,120215,238,19200,975,1,28479,0.0010009999999999186
533001,4573,36836,124402,10751,34667,103519,257,19228,1053,1,28480,0.0010000000000000009
534000,25873,-3979,122106,-11414,-1921,124764,188,19228,1053,1,28481,0.0009990000000000832
535000,-4295,-4192,120748,12983,-8411,129792,246,19212,770,0,28482,0.0010000000000000009
536000,13467,-14344,128423,-9779,-14311,133604,246,19213,1008,0,28483,0.0009999999999998899
537000,-554,11541,127449,-12984,6211,112272,235,19210,962,1,28484,0.0010000000000000009
538000,4329,13618,138740,2085,15505,144969,232,19228,950,1,28485,0.0010000000000000009
539003,5906,-5700,128325,-10939,-8576,121568,188,19221,770,1,28486,0.0010030000000000872
540000,-5446,8772,134276,-10385,-2722,142233,297,19221,1216,0,28487,0.0009969999999999146
541000,13988,-12714,137948,-15029,-7209,139099,229,19214,1216,0,28488,0.0010000000000000009
542000,2044,12136,139493,17043,6603,132884,279,19211,938,1,28489,0.0010000000000000009
543000,12122,-5592,142019,-14603,-13966,153769,279,19231,1143,1,28490,0.0010000000000000009
544000,2657,2035,138802,-2547,5124,126748,187,19222,766,1,28491,0.0010000000000000009
545003,3786,-2649,138795,229,-10565,155075,257,19211,1053,0,28492,0.0010030000000000872
546001,8039,-7448,134893,-2340,-1431,126361,233,19215,954,0,28493,0.0009979999999999434
547000,849,9745,138040,-9249,158,138810,268,19215,954,1,28494,0.0009989999999999721
548000,12642,-8690,134810,620,-7923,140265,173,19211,1098,1,28495,0.0010000000000000009
549000,13226,2076,131910,14669,-469,126901,173,19224,709,1,28496,0.0010000000000000009
550000,12752,-8326,128643,1255,-9603,139004,214,19203,876,0,28497,0.0010000000000000009
551000,7786,-4255,122538,-1498,-2806,116930,227,19216,930,0,28498,0.0010000000000000009
552000,12224,392,126239,1432,-1796,132496,253,19199,1036,1,28499,0.0010000000000000009
553003,10115,3257,126175,5492,6573,118038,162,19199,1036,1,28500,0.0010030000000000872
554000,9565,8946,121737,201,5858,115591,194,19226,664,1,28501,0.0009969999999999146
555000,6630,-6280,118574,-2888,-10004,126160,194,19201,795,0,28502,0.0010000000000000009
556000,14298,-8331,115622,19147,-519,105990,209,19219,856,0,28503,0.0010000000000000009
557000,17435,8384,117311,16785,3825,125179,238,19204,975,1,28504,0.0010000000000000009
558000,10153,659,116615,-22260,4108,102529,181,19228,741,1,28505,0.0010000000000000009
559000,21349,18998,121539,7426,15236,107401,191,19228,741,1,28506,0.0010000000000000009
560000,8393,-11955,117060,39448,-14863,131824,235,19211,782,0,28507,0.0010000000000000009
561000,-3361,-7022,117765,-27923,-7021,109056,235,19217,962,0,28508,0.0010000000000000009
562000,3980,-7458,118233,-19183,-4319,127224,232,19207,950,1,28509,0.0010000000000000009
563000,9126,27408,123821,16959,31017,98288,277,19223,1135,1,28510,0.0010000000000000009
564000,20294,20224,126048,9638,12146,119631,188,19214,770,1,28511,0.0010000000000000009
565000,5080,-16226,120484,-14421,-17853,130461,267,19214,770,0,28512,0.0010000000000000009
566000,7053,-6865,126816,-3146,-7042,126515,240,19213,1094,0,28513,0.0010000000000000009
567001,4461,3019,130854,465,2743,134233,240,19208,983,1,28514,0.0010010000000000296
568000,546,19147,136923,-9350,18755,121712,284,19229,1163,1,28515,0.0009989999999999721
569003,-496,-10392,133232,-8825,-12703,145787,186,19220,762,1,28516,0.0010029999999999761
570000,712,5861,132609,-17511,6971,126636,264,19205,1081,0,28517,0.0009970000000000256
571000,10441,5525,138799,1742,4798,135431,231,19205,1081,0,28518,0.0010000000000000009
572000,6107,-1097,135671,8898,-2525,143662,273,19214,946,1,28519,0.0010000000000000009
573000,6935,1706,139475,-23993,-1007,136147,273,19225,1118,1,28520,0.0010000000000000009
574000,6632,-7362,140399,-1444,-7989,147757,184,19220,754,1,28521,0.0010000000000000009
575000,3924,2134,138860,10008,1437,137136,236,19202,967,0,28522,0.0010000000000000009
576000,902,-10960,136779,-9662,-11692,142805,229,19213,938,0,28523,0.0010000000000000009
577000,6276,1217,133538,-17381,291,132820,249,19213,938,1,28524,0.0010000000000000009
578000,11283,8637,135380,10175,7828,132715,166,19202,1020,1,28525,0.0010000000000000009
579000,18694,-1166,130544,4939,-1561,135009,166,19220,680,1,28526,0.0010000000000000009
580000,9720,-12227,127221,687,-13301,129566,197,19210,807,0,28527,0.0010000000000000009
581000,8290,-12113,126849,9255,-14075,134260,219,19214,897,0,28528,0.0010000000000000009
582003,12112,4303,124385,-1225,1719,123284,244,19202,999,1,28529,0.0010029999999999761
583002,6333,-2637,125773,2049,-2482,126764,167,19202,684,1,28530,0.0009990000000000832
584002,14688,8869,120048,-1046,6320,108292,183,19228,684,1,28531,0.0010000000000000009
585000,10126,-5476,115365,4163,-3069,121431,243,19207,750,0,28532,0.0009979999999999434
586000,11348,2496,118923,13794,-2166,107079,243,19213,995,0,28533,0.0010000000000000009
587000,20305,-6742,112290,10790,-24138,131575,230,19206,942,1,28534,0.0010000000000000009
588000,4626,1761,119268,4067,21224,97009,243,19227,995,1,28535,0.0010000000000000009
589000,27884,22604,122436,-23841,3235,114735,200,19227,819,1,28536,0.0010000000000000009
590000,5282,-9493,116161,42242,-5270,120378,249,19215,819,0,28537,0.0010000000000000009
591000,320,-424,121540,-41207,-8761,118362,233,19216,1020,0,28538,0.0010000000000000009
592000,11505,-15503,115800,6851,-1402,119445,233,19206,954,1,28539,0.0010000000000000009
593000,-1693,38756,125331,4909,41728,100252,325,19226,1331,1,28540,0.0010000000000000009
594000,27688,7021,126318,-6451,-10753,129203,196,19221,803,1,28541,0.0010000000000000009
595001,638,-13415,119570,12287,-9979,126244,281,19221,1151,0,28542,0.0010010000000000296
596000,8688,-4859,130241,-15931,-10687,136082,239,19212,1151,0,28543,0.0009989999999999721
597001,1705,-1059,126613,-8288,14840,115517,292,19214,979,1,28544,0.0010010000000000296
598000,23,24271,139690,-1095,15087,135522,292,19225,1196,1,28545,0.0009989999999999721
599000,7481,-12739,129031,-7114,-12298,138689,181,19221,741,1,28546,0.0010000000000000009
600000,-8237,11549,133983,-14350,10498,126517,235,19206,962,0,28547,0.0010000000000000009
601000,12713,-9065,138896,-9099,-12383,148096,228,19216,934,0,28548,0.0010000000000000009
602000,4718,7418,137512,15332,9619,125600,257,19216,934,1,28549,0.0010000000000000009
603000,11286,-467,141922,-18292,-9125,153332,183,19218,1053,1,28550,0.0010000000000000009
604000,5096,-3168,139123,-2669,871,130066,183,19223,750,1,28551,0.0010000000000000009
605001,2025,6189,138836,1828,-2201,145974,218,19207,893,0,28552,0.0010010000000000296
606000,10787,-11558,136248,-6276,-9544,139501,221,19215,905,0,28553,0.0009989999999999721
607000,-134,12636,135871,-6613,11138,125167,237,19203,971,1,28554,0.0010000000000000009
608002,12809,-6224,138195,-3632,-9910,147607,158,19203,971,1,28555,0.0010019999999999474
609003,13491,-1564,129633,12443,-589,123714,192,19228,647,1,28556,0.0010010000000000296
610000,12397,-6968,130790,8776,-10215,140287,192,19206,786,0,28557,0.0009970000000000256
611000,9466,-7823,122716,-2482,-7041,122140,208,19214,852,0,28558,0.0010000000000000009
612000,11307,3258,126296,-369,1938,124875,234,19204,958,1,28559,0.0010000000000000009
613000,10864,357,125868,5329,768,128923,237,19228,971,1,28560,0.0010000000000000009
614000,10026,5516,121595,300,6531,110497,186,19228,971,1,28561,0.0010000000000000009
615000,7319,-5495,119327,-307,-8231,125048,247,19212,762,0,28562,0.0010000000000000009
616000,15822,-10069,114842,16034,-7866,111148,247,19213,1012,0,28563,0.0010000000000000009
617000,14940,7840,115061,21121,6021,120093,236,19208,967,1,28564,0.0010000000000000009
618001,10502,4983,118542,-24996,4673,108728,276,19227,1130,1,28565,0.0010010000000000296
619000,21584,15629,120424,3422,17154,103618,194,19216,795,1,28566,0.0009989999999999721
620000,5592,-8619,120610,39828,-10276,130694,252,19216,795,0,28567,0.0010000000000000009
621000,-505,-11246,117144,-22516,-11203,111831,229,19219,1032,0,28568,0.0010000000000000009
622000,1938,-1056,118721,-19583,-1561,122024,229,19213,938,1,28569,0.0010000000000000009
623000,10620,27916,125214,12168,27972,107095,310,19215,1270,1,28570,0.0010000000000000009
624000,17331,19448,123800,7412,19400,111491,186,19219,762,1,28571,0.0010000000000000009
625000,6339,-12001,124846,-12037,-12695,130293,252,19213,1032,0,28572,0.0010000000000000009
626000,7730,-9418,124598,-1760,-12525,127799,228,19213,1032,0,28573,0.0010000000000000009
627000,3368,1926,130472,1147,-961,132414,271,19214,934,1,28574,0.0010000000000000009
628000,2075,16216,136152,-11621,16017,123096,271,19222,1110,1,28575,0.0010000000000000009
629000,-362,-4945,131689,-6250,-4993,139649,180,19225,737,1,28576,0.0010000000000000009
630000,2501,4083,133843,-21076,1458,129239,225,19203,922,0,28577,0.0010000000000000009
631000,10518,1311,136887,4247,1248,137813,226,19216,926,0,28578,0.0010000000000000009
632001,7339,1893,135141,12673,-1613,137096,247,19216,1012,1,28579,0.0010009999999999186
633003,5459,-2709,138366,-23944,-6047,143058,171,19212,1012,1,28580,0.0010020000000000584
634000,8020,-3691,140334,-7390,-3424,142211,205,19224,700,1,28581,0.0009970000000000256
635000,3949,18,139812,8726,-3169,140949,205,19199,840,0,28582,0.0010000000000000009
636000,1687,-7066,138349,-4820,-9279,138205,213,19214,872,0,28583,0.0010000000000000009
637000,6796,-2374,133497,-16713,3,135323,236,19204,967,1,28584,0.0010000000000000009
638000,10390,6554,134965,13108,6312,132750,191,19204,782,1,28585,0.0010000000000000009
639000,17691,2102,131155,2946,-4144,129997,186,19227,782,1,28586,0.0010000000000000009
640000,11412,-8053,130354,5553,-15523,134918,226,19208,762,0,28587,0.0010000000000000009
641000,8032,-11148,126188,3798,-7838,128975,226,19212,926,0,28588,0.0010000000000000009
642005,12203,697,126356,-1550,-102,126325,234,19210,958,1,28589,0.0010049999999999226
643000,6236,2023,123800,2723,4553,122044,240,19231,983,1,28590,0.0009950000000000792
644002,14053,8291,121308,2650,6845,114708,177,19219,725,1,28591,0.0010019999999999474
645001,10138,-7807,115396,9117,-12581,120745,274,19219,725,0,28592,0.0009989999999999721
646002,11186,3298,120393,6635,9992,106523,231,19214,1122,0,28593,0.0010010000000000296
647000,19240,-5688,113839,15604,-18515,132024,231,19209,946,1,28594,0.0009980000000000544
648000,4827,4617,118770,-13932,17353,100980,300,19226,1229,1,28595,0.0010000000000000009
649000,26294,21856,122425,-1361,10754,111338,185,19218,758,1,28596,0.0010000000000000009
650000,3625,-12263,116091,41777,-9797,123690,268,19216,1098,0,28597,0.0010000000000000009
651000,-110,-1708,120621,-37316,-6129,113393,235,19216,1098,0,28598,0.0010000000000000009
652000,11011,-12485,115904,-1969,-7709,122758,287,19215,962,1,28599,0.0010000000000000009
653001,593,40490,125413,8882,43259,97467,287,19205,1175,1,28600,0.0010009999999999186
654000,27545,3799,124548,-6420,-7614,130944,191,19222,782,1,28601,0.0009990000000000832
655000,-1082,-10647,118547,7846,-7829,122866,239,19204,979,0,28602,0.0009999999999998899
656000,9174,-7625,128645,-9272,-12843,132527,236,19211,967,0,28603,0.0010000000000000009
657000,3471,3549,128029,-9262,7222,119058,263,19211,967,1,28604,0.0010000000000000009
658000,1540,24629,138559,-2085,21161,129180,179,19215,1077,1,28605,0.0010000000000000009
659000,6232,-15926,130618,-6516,-16206,144960,179,19224,733,1,28606,0.0010000000000000009
660000,-6241,17557,134652,-14853,16701,120394,211,19203,864,0,28607,0.0010000000000000009
661000,13407,-13977,139072,-7094,-15651,152411,209,19214,856,0,28608,0.0010000000000000009
662000,2630,7987,136880,16618,8783,124722,235,19208,962,1,28609,0.0010000000000000009
663002,11747,-2638,140978,-23970,-7979,150916,177,19208,962,1,28610,0.0010020000000000584
664000,4867,-180,139516,-798,1735,133996,207,19220,725,1,28611,0.0009979999999999434
665001,3168,3275,139822,4262,57,145065,207,19206,848,0,28612,0.0010010000000000296
666000,8728,-16029,134535,-6985,-14862,143203,215,19220,881,0,28613,0.0009989999999999721
667000,1736,13090,137122,-5242,11926,122729,234,19207,958,1,28614,0.0010000000000000009
668000,12683,-13049,133221,-6125,-14432,151994,223,19228,913,1,28615,0.0010000000000000009
669000,12382,4796,131567,9923,4466,119658,181,19228,913,1,28616,0.0010000000000000009
670000,11852,-9057,130408,5708,-11000,142907,237,19216,741,0,28617,0.0010000000000000009
671000,9776,-6906,123708,1654,-8948,123220,237,19219,971,0,28618,0.0010000000000000009
672000,11171,5061,127176,6150,3929,123883,228,19212,934,1,28619,0.0010000000000000009
673000,8241,-6159,124766,-4479,-5426,129792,297,19228,1216,1,28620,0.0010000000000000009
674000,10678,9390,120960,1718,9395,106594,174,19222,713,1,28621,0.0010000000000000009
675000,6975,-8299,119639,5676,-8826,127021,269,19222,1102,0,28622,0.0010000000000000009
676000,15672,-9102,114189,7397,-10226,105695,228,19216,1102,0,28623,0.0010000000000000009
677000,13274,9727,117437,24450,8563,124731,288,19212,934,1,28624,0.0010000000000000009
678000,13636,2890,116605,-16929,1744,98250,288,19224,1180,1,28625,0.0010000000000000009
679000,20099,16650,120293,-7088,18446,114784,184,19219,754,1,28626,0.0010000000000000009
680002,6060,-13405,118331,38873,-12481,130369,242,19211,991,0,28627,0.0010020000000000584
681000,325,-10459,116706,-10995,-6429,107111,231,19211,946,0,28628,0.0009979999999999434
682000,2058,7311,119758,-23634,9403,121976,269,19213,946,1,28629,0.0010000000000000009
683000,11953,24920,124395,7249,29207,101950,179,19201,1102,1,28630,0.0010000000000000009
684003,16683,21078,125247,9969,1912,123128,179,19227,733,1,28631,0.0010029999999999761
685000,6163,-16288,123961,-14258,-18332,132986,214,19205,876,0,28632,0.0009970000000000256
686000,7686,-6615,125969,-819,-3260,124263,227,19211,930,0,28633,0.0010000000000000009
687000,2974,3299,132453,-1340,5747,132891,255,19204,1044,1,28634,0.0010000000000000009
688000,1945,15003,136694,-9337,12501,125746,181,19204,1044,1,28635,0.0010000000000000009
689000,-99,-541,132175,-10064,-7147,139954,205,19224,741,1,28636,0.0010000000000000009
690000,195,-225,135995,-16689,5487,131123,205,19208,840,0,28637,0.0010000000000000009
691000,9527,2191,137271,5701,-2029,136388,242,19216,991,0,28638,0.0010000000000000009
692000,8384,-3693,136637,2411,-1990,140666,230,19204,942,1,28639,0.0010000000000000009
693000,6003,2034,137221,-17097,-4103,140659,173,19230,709,1,28640,0.0010000000000000009
694000,6557,-6151,139937,-182,-6682,143139,197,19230,709,1,28641,0.0010000000000000009
695000,3933,3961,138213,5373,2952,138959,247,19211,807,0,28642,0.0010000000000000009
696000,1332,-5878,139474,-14261,-8283,139592,247,19213,1012,0,28643,0.0010000000000000009
697000,6569,109,134227,-13034,1462,135112,226,19211,926,1,28644,0.0010000000000000009
698001,10146,-193,133975,15765,-3339,135767,251,19228,1028,1,28645,0.0010010000000000296
699000,16925,6179,129146,5338,3969,127710,175,19218,717,1,28646,0.0009989999999999721
700000,11423,-6124,129869,-4342,-9327,133171,249,19218,717,0,28647,0.0010000000000000009
701000,11231,-9450,129108,9170,-10065,130534,237,19214,1020,0,28648,0.0010000000000000009
702001,11379,-650,126273,5120,-337,126113,237,19212,971,1,28649,0.0010010000000000296
703000,5232,1691,125412,-5508,257,122776,307,19229,1257,1,28650,0.0009989999999999721
704000,12714,-992,118453,2416,-1477,118340,174,19220,713,1,28651,0.0010000000000000009
705000,12807,-102,118307,8589,-2520,121688,242,19207,991,0,28652,0.0010000000000000009
706000,11058,-3208,117423,8338,613,105174,229,19207,991,0,28653,0.0010000000000000009
707000,21334,9897,118253,12608,7832,120103,276,19213,938,1,28654,0.0010000000000000009
708000,5065,-20609,112896,5500,-19737,122404,276,19213,1130,1,28655,0.0010000000000000009
709000,19348,22538,120818,-24315,23887,99133,184,19226,754,1,28656,0.0010000000000000009
710000,13642,-4122,116520,36504,-5961,125791,227,19204,930,0,28657,0.0010000000000000009
711000,-5071,1705,121492,3183,1669,106600,227,19214,930,0,28658,0.0010000000000000009
712000,11746,-11531,118040,-35235,-11625,130815,251,19214,930,1,28659,0.0010000000000000009
713000,-3843,16614,122403,17110,17671,105418,162,19196,1028,1,28660,0.0010000000000000009
714000,22580,31131,127011,-3902,30022,110587,162,19229,664,1,28661,0.0010000000000000009
715000,6607,-19023,120589,-2707,-21336,133517,204,19202,836,0,28662,0.0010000000000000009
716000,375,-1783,129947,3761,-4180,125378,214,19215,876,0,28663,0.0010000000000000009
717000,7511,-1615,129908,-18032,-2802,134734,247,19201,1012,1,28664,0.0010000000000000009
718000,-2391,24717,137933,-2896,24672,112223,165,19201,676,1,28665,0.0010000000000000009
719000,8791,-5653,132168,-2509,-6640,147924,192,19224,676,1,28666,0.0010000000000000009
720000,-6158,-1620,131344,-14164,-4736,129894,261,19209,786,0,28667,0.0010000000000000009
721000,9655,4558,139879,-16209,6428,132507,261,19214,1069,0,28668,0.0010000000000000009
722000,7217,-6639,135045,17586,-10002,148071,233,19208,954,1,28669,0.0010000000000000009
723000,6777,7964,141620,-13347,7181,145896,225,19226,922,1,28670,0.0010000000000000009
724000,9655,-10925,137680,-12405,-13100,139074,192,19226,786,1,28671,0.0010000000000000009
725000,-1077,10120,138409,8480,7521,139665,255,19214,786,0,28672,0.0010000000000000009
726000,8834,-18376,136617,-7321,-14960,144609,228,19212,1044,0,28673,0.0010000000000000009
727000,842,7172,133888,-6978,120,122665,228,19213,934,1,28674,0.0010000000000000009
728000,12074,3619,138508,-1842,-9007,147781,311,19231,1274,1,28675,0.0010000000000000009
729001,16377,-9043,128716,2732,-3650,124613,178,19220,729,1,28676,0.0010010000000000296
730000,11210,1439,130296,9777,-6091,136418,262,19220,1073,0,28677,0.0009989999999999721
731002,11129,-12327,124026,5037,-8118,125895,237,19215,1073,0,28678,0.0010019999999999474
732003,10460,3093,124435,3758,1311,118820,282,19212,971,1,28679,0.0010010000000000296
733000,10066,429,128067,7510,-793,131241,282,19213,1155,1,28680,0.0009970000000000256
734000,12417,7423,119474,-6046,8936,107142,190,19224,778,1,28681,0.0010000000000000009
735000,7408,-1299,120590,7043,-7509,125389,229,19204,938,0,28682,0.0010000000000000009
736001,13433,-15572,115607,16191,-8377,113004,228,19212,934,0,28683,0.0010010000000000296
737000,17784,6870,115395,17814,5513,117217,260,19212,934,1,28684,0.0009989999999999721
738000,7661,168,118647,-23081,1608,113706,183,19206,1065,1,28685,0.0010000000000000009
739000,24981,15342,118115,2300,17028,99207,183,19227,750,1,28686,0.0010000000000000009
740001,7198,1832,120435,45942,-3344,132001,211,19206,864,0,28687,0.0010010000000000296
741000,-841,-16962,116371,-26155,-16811,118317,217,19212,889,0,28688,0.0009989999999999721
742000,1199,-5002,116201,-24381,521,117276,236,19200,967,1,28689,0.0010000000000000009
743000,9529,20050,125794,18997,24817,112663,213,19200,967,1,28690,0.0010000000000000009
744000,20272,27087,121924,9762,21546,106860,198,19234,872,1,28691,0.0010000000000000009
745000,4350,-10111,123247,-17710,-18219,135184,198,19206,811,0,28692,0.0010000000000000009
746000,6769,-14615,123648,-4506,-12204,128064,245,19212,1003,0,28693,0.0010000000000000009
747000,4284,8388,132566,5820,6433,128361,239,19206,979,1,28694,0.0010000000000000009
748000,2520,13756,136635,-12654,14529,128254,223,19229,913,1,28695,0.0010000000000000009
749000,-1109,-2714,131660,-9168,-10183,135184,184,19229,913,1,28696,0.0010000000000000009
750000,-1979,-2346,133703,-18287,-2374,138488,273,19215,754,0,28697,0.0010000000000000009
751000,12236,8944,138005,-157,8899,127109,273,19209,1118,0,28698,0.0010000000000000009
752001,6044,-146,135269,15378,-3215,143604,233,19212,954,1,28699,0.0010009999999999186
753000,6688,-2744,139178,-25508,-3737,138911,231,19227,946,1,28700,0.0009990000000000832
754000,7687,-3743,139239,-4401,-3658,142851,190,19218,778,1,28701,0.0010000000000000009
755000,5658,563,139771,13684,-626,142712,259,19218,778,0,28702,0.0010000000000000009
756002,1665,-5749,136375,-8971,-7055,136298,228,19215,1061,0,28703,0.0010019999999999474
757002,4409,-4722,134919,-20896,-4757,139676,228,19212,934,1,28704,0.0010000000000000009
758000,13246,6022,133329,12253,6518,132332,284,19228,1163,1,28705,0.0009980000000000544
759000,14666,5149,131279,12929,4167,131538,176,19225,721,1,28706,0.0010000000000000009
760000,13999,-5073,129101,-9953,-6797,131283,238,19206,975,0,28707,0.0010000000000000009
761000,7556,-11576,127055,8382,-13510,130935,229,19206,975,0,28708,0.0010000000000000009
762000,12532,-1043,126303,7914,-1959,128353,268,19216,938,1,28709,0.0010000000000000009
763000,6982,-84,125020,-2467,55,120775,268,19205,1098,1,28710,0.0010000000000000009
764000,11115,2077,119341,-1392,125,120601,175,19225,717,1,28711,0.0010000000000000009
765000,14097,-749,118334,3684,-33,118417,210,19205,860,0,28712,0.0010000000000000009
766000,9336,-2776,117237,15796,-3340,107725,224,19212,917,0,28713,0.0010000000000000009
767000,19419,9763,118914,8351,11964,117886,246,19212,1008,1,28714,0.0010000000000000009
768000,6702,-18674,114304,4724,-22202,120940,161,19202,1008,1,28715,0.0010000000000000009
769000,21322,22990,121774,-18387,24826,101914,197,19226,659,1,28716,0.0010000000000000009
770000,12400,-8691,115353,33062,-10494,118327,197,19205,807,0,28717,0.0010000000000000009
771000,-5670,5347,120538,3424,5425,113452,204,19216,836,0,28718,0.0010000000000000009
772000,13957,-13891,116467,-33078,-14327,126118,241,19202,987,1,28719,0.0010000000000000009
773000,-1352,25141,123664,15030,19638,97576,265,19202,1085,1,28720,0.0010000000000000009
774000,25810,22077,126075,-1542,27471,129047,195,19224,1085,1,28721,0.0009999999999998899
775000,5160,-13337,118278,1418,-11129,125070,249,19213,799,0,28722,0.0010000000000000009
776000,3310,-5252,128442,304,-8516,134696,249,19211,1020,0,28723,0.0010000000000000009
777000,7655,-349,130600,-16975,8354,120886,239,19206,979,1,28724,0.0010000000000000009
778000,-2130,24816,139117,3102,18989,130594,234,19232,958,1,28725,0.0010000000000000009
779000,7294,-11066,131420,-14566,-14588,142570,188,19232,770,1,28726,0.0010000000000000009
780000,-5664,9158,133301,-15716,15420,122099,295,19219,770,0,28727,0.0010000000000000009
781000,11378,-3909,139354,570,-14028,150143,226,19216,1208,0,28728,0.0010000000000000009
782006,4033,213,135753,10732,5382,128711,226,19217,926,1,28729,0.0010060000000000624
783000,9072,-3012,142503,-24285,-10582,150858,277,19228,1135,1,28730,0.0009939999999999394
784000,8290,-6974,139363,4799,1211,134502,187,19220,766,1,28731,0.0010000000000000009
785000,1780,8266,139575,1551,-1838,143767,256,19213,1049,0,28732,0.0010000000000000009
786000,7302,-18003,134220,-11185,-12468,142193,232,19213,1049,0,28733,0.0010000000000000009
787000,-792,13410,135630,-6285,12080,124097,265,19215,950,1,28734,0.0010000000000000009
788000,12539,-2287,135599,-2144,-7375,147298,265,19210,1085,1,28735,0.0010000000000000009
789000,15377,-2782,130783,12280,-1885,125238,170,19228,696,1,28736,0.0010000000000000009
790003,10405,-5662,130032,7230,-9397,139086,219,19211,897,0,28737,0.0010030000000000872
791000,9073,-6593,124044,-5233,-8418,123034,227,19212,930,0,28738,0.0009969999999999146
792000,8794,8931,125684,4197,7629,123095,254,19212,930,1,28739,0.0010000000000000009
793000,10626,-2116,127073,3811,-1660,130833,167,19200,1040,1,28740,0.0010000000000000009
794000,11549,6942,120439,-2879,4552,108125,167,19233,684,1,28741,0.0010000000000000009
795000,6774,-4493,121450,6636,-6366,123918,195,19201,799,0,28742,0.0010000000000000009
796001,16317,-12655,114881,15824,-9769,114548,212,19213,868,0,28743,0.0010010000000000296
797000,12478,4536,115331,15883,3978,117205,238,19200,975,1,28744,0.0009989999999999721
798000,12364,6295,118577,-24334,6267,110959,184,19200,975,1,28745,0.0010000000000000009
799000,22997,16041,118908,9425,15886,102022,194,19228,754,1,28746,0.0010000000000000009
800000,6887,-11028,118312,36071,-11530,131615,194,19208,795,0,28747,0.0010000000000000009
801000,1377,-16838,116748,-22542,-14358,113454,239,19213,979,0,28748,0.0010000000000000009
802006,-142,4242,117529,-16180,4199,118402,232,19211,950,1,28749,0.0010060000000000624
803002,11693,22064,124654,8386,23814,112091,284,19224,1163,1,28750,0.0009959999999999969
804000,17900,20910,122956,5534,18855,107987,190,19224,1163,1,28751,0.0009979999999999434
805000,5659,-11784,123169,-5266,-14196,135518,270,19216,778,0,28752,0.0010000000000000009
806000,5842,-7977,124919,-9115,-10493,124248,270,19213,1106,0,28753,0.0010000000000000009
807002,4909,2855,131611,1937,1880,132383,238,19211,975,1,28754,0.0010020000000000584
808000,652,14850,137706,-8281,14783,126509,292,19232,1196,1,28755,0.0009979999999999434
809000,1016,1595,131483,-11919,-833,136153,185,19216,758,1,28756,0.0010000000000000009
810000,-1700,-1151,134051,-12960,-1558,136577,269,19216,1102,0,28757,0.0010000000000000009
811000,9372,4103,137542,-5570,4280,129694,232,19207,1102,0,28758,0.0010000000000000009
812000,9434,-332,137369,8989,-1403,141502,275,19213,950,1,28759,0.0010000000000000009
813000,4819,-287,139781,-9140,-2229,138160,275,19229,1126,1,28760,0.0010000000000000009
814000,8068,-9100,138759,-14208,-9396,146139,187,19222,766,1,28761,0.0010000000000000009
815000,3824,706,139441,5603,-819,139210,235,19209,962,0,28762,0.0010000000000000009
816000,2899,-2759,139680,2071,-828,138509,234,19209,958,0,28763,0.0010000000000000009
817000,5147,-2095,132301,-20575,-6473,138706,255,19213,958,1,28764,0.0010000000000000009
818000,9707,-1354,135753,2113,-1267,136619,183,19205,1044,1,28765,0.0010000000000000009
819000,14743,-1098,129396,14785,-2910,128013,183,19225,750,1,28766,0.0010000000000000009
820000,12775,-3371,128534,-3639,-3745,132039,209,19206,856,0,28767,0.0010000000000000009
821000,11720,-4531,126339,2346,-8183,129366,221,19214,905,0,28768,0.0010000000000000009
822000,11813,-79,125240,9490,821,125026,243,19214,995,1,28769,0.0010000000000000009
823000,5866,4995,126509,173,1138,120495,173,19202,995,1,28770,0.0010000000000000009
824001,9405,-2364,119609,-2177,-3823,120162,187,19230,709,1,28771,0.0010010000000000296
825000,11203,-7832,117794,2920,-17805,122430,187,19207,766,0,28772,0.0009989999999999721
826000,13057,7080,119663,12070,20594,97460,231,19213,946,0,28773,0.0010000000000000009
827000,20706,18140,117435,11525,-2289,124584,228,19208,934,1,28774,0.0010000000000000009
828000,6155,-12169,116589,-7520,-96,108797,238,19230,975,1,28775,0.0010000000000000009
829000,20500,10456,121919,952,-1183,115762,187,19230,975,1,28776,0.0010000000000000009
830000,11387,-12954,116874,32619,-3395,120819,251,19216,766,0,28777,0.0010000000000000009
831000,-4260,12737,124114,-26103,5891,107425,251,19214,1028,0,28778,0.0010000000000000009
832002,11969,-12939,115842,-8234,-11164,128830,231,19208,946,1,28779,0.0010019999999999474
833003,286,26984,123296,6952,36737,98687,329,19229,1347,1,28780,0.0010010000000000296
834000,24623,15753,124496,-138,4318,125621,182,19219,745,1,28781,0.0009970000000000256
835000,6853,-12267,119291,3489,-10393,123572,276,19219,745,0,28782,0.0010000000000000009
836000,5011,-6512,129243,-4238,-12010,135415,239,19216,1130,0,28783,0.0010000000000000009
837000,4493,-2414,129319,-14637,4752,126117,239,19211,979,1,28784,0.0010000000000000009
838000,-757,27674,138271,-2076,22676,122666,299,19225,1225,1,28785,0.0010000000000000009
839000,5564,-9465,129258,-7812,-13612,144791,195,19222,799,1,28786,0.0010000000000000009
840000,-3175,12296,134685,-15448,14441,119734,243,19208,995,0,28787,0.0010000000000000009
841000,11155,-6363,138800,-3310,-9589,147868,228,19208,995,0,28788,0.0010000000000000009
842000,4773,1039,137782,12107,-928,132140,261,19213,934,1,28789,0.0010000000000000009
843000,7856,-2639,142367,-23306,-10526,147348,261,19209,1069,1,28790,0.0010000000000000009
844000,6422,-4398,139018,227,-356,138191,194,19223,795,1,28791,0.0010000000000000009
845000,792,7632,139488,1927,1921,139350,225,19205,922,0,28792,0.0010000000000000009
846002,8810,-17283,135443,-9047,-14258,146110,222,19216,909,0,28793,0.0010019999999999474
847000,3110,13463,134900,-4171,12686,123310,237,19216,909,1,28794,0.0009980000000000544
848000,13716,-4312,135176,-262,-6159,145604,153,19198,971,1,28795,0.0010000000000000009
849000,14737,-1414,130112,3668,-2053,127526,153,19222,627,1,28796,0.0010000000000000009
850000,11853,-12960,129836,9488,-14578,140657,192,19209,786,0,28797,0.0010000000000000009
851000,9317,-2523,123468,2100,-3043,124804,204,19217,836,0,28798,0.0010000000000000009
852000,11162,4980,125228,792,3645,122132,233,19206,954,1,28799,0.0010000000000000009
853000,10749,-2031,125349,1337,-1257,129336,223,19206,954,1,28800,0.0010000000000000009
854000,13005,8569,121813,1798,7578,112154,187,19227,913,1,28801,0.0010000000000000009
855000,6475,-6071,121163,4043,-6534,120748,187,19212,766,0,28802,0.0010000000000000009
856000,14871,-6307,117505,8916,-5665,113469,252,19214,1032,0,28803,0.0010000000000000009
857000,11905,-575,115907,27696,-1237,121493,231,19210,946,1,28804,0.0010000000000000009
858000,10357,7483,118057,-22101,6537,110617,255,19229,1044,1,28805,0.0010000000000000009
859001,24858,11378,120470,-10355,13595,101764,183,19229,750,1,28806,0.0010010000000000296
860000,6226,-3224,120790,50968,-3480,125319,264,19217,750,0,28807,0.0009989999999999721
861001,330,-18499,116917,-14528,-17751,118478,227,19212,1081,0,28808,0.0010010000000000296
862000,-633,3848,118063,-33774,1127,115725,227,19213,930,1,28809,0.0009989999999999721
863000,12378,21467,124113,19360,19818,116178,302,19220,1237,1,28810,0.0010000000000000009
864000,17991,24588,121647,8364,24343,106426,183,19224,750,1,28811,0.0010000000000000009
865001,6576,-11549,124139,-12398,-10592,137237,246,19224,1008,0,28812,0.0010009999999999186
866000,7776,-10581,123985,-6076,-16028,122721,236,19208,1008,0,28813,0.0009990000000000832
867000,3364,7921,132729,5778,5634,132170,277,19218,967,1,28814,0.0010000000000000009
868000,615,14974,135332,-10807,10481,125480,277,19221,1135,1,28815,0.0010000000000000009
869000,-1572,2470,131506,-10481,-5319,139129,184,19219,754,1,28816,0.0010000000000000009
870000,-209,-4257,134589,-18172,-722,134487,225,19200,922,0,28817,0.0010000000000000009
871000,11957,7245,139208,-7504,6528,130468,224,19214,917,0,28818,0.0010000000000000009
872000,7909,-364,137329,17733,-4328,143193,246,19214,917,1,28819,0.0010000000000000009
873000,6057,-76,139509,-16859,-3308,137007,182,19213,1008,1,28820,0.0010000000000000009
874000,7480,-7399,139055,4459,-10095,147700,182,19226,745,1,28821,0.0010000000000000009
875000,3618,1057,139613,8263,2754,138240,215,19209,881,0,28822,0.0010000000000000009
876000,5322,-8766,138162,-18694,-7696,138809,221,19210,905,0,28823,0.0010000000000000009
877002,4955,-6753,134856,-11043,-4670,138361,258,19199,1057,1,28824,0.0010019999999999474
878002,12724,3816,133559,14600,2668,131981,183,19199,1057,1,28825,0.0010000000000000009
879002,14858,3056,129412,2380,1840,132154,186,19225,750,1,28826,0.0010000000000000009
880003,13402,-1535,128845,-1936,-7474,129223,186,19214,762,0,28827,0.0010010000000000296
881002,8216,-10323,126303,10441,-12793,134151,241,19212,987,0,28828,0.0009989999999999721
882000,11459,-3195,126375,2093,-1120,125396,236,19210,967,1,28829,0.0009980000000000544
883001,6183,1481,125419,-3190,1093,122454,255,19228,1044,1,28830,0.0010009999999999186
884007,11690,3612,119497,1692,1003,118055,177,19228,1044,1,28831,0.0010060000000000624
885000,11490,4180,120943,5178,-719,118643,260,19219,725,0,28832,0.0009930000000000216
886000,9569,-6089,116791,10510,-1178,107553,260,19214,1065,0,28833,0.0010000000000000009
887001,19559,12540,119949,12194,4257,121636,232,19212,950,1,28834,0.0010009999999999186
888000,4573,-22680,112433,6167,-18974,119593,295,19226,1208,1,28835,0.0009990000000000832
889000,19710,24857,122021,-25407,27818,98853,188,19218,770,1,28836,0.0010000000000000009
890000,16610,-5582,116597,40947,-8949,125208,268,19218,770,0,28837,0.0010000000000000009
891000,-6961,1363,120659,-75,2144,107786,232,19218,1098,0,28838,0.0010000000000000009
892000,12488,-11189,116942,-36384,-14148,131742,232,19214,950,1,28839,0.0010000000000000009
893003,-4673,10679,119871,19572,19752,101455,283,19208,1159,1,28840,0.0010029999999999761
894000,23336,33219,127073,-8248,28247,113351,185,19228,758,1,28841,0.0009969999999999146
895000,10822,-18636,119522,2190,-22059,132749,233,19205,954,0,28842,0.0010000000000000009
896000,-2020,-1920,126674,5306,-4622,125953,235,19205,954,0,28843,0.0010000000000000009
897000,10158,-1747,130428,-21559,-2244,133364,265,19212,962,1,28844,0.0010000000000000009
898000,-3828,24800,136611,1216,26187,111704,265,19207,1085,1,28845,0.0010000000000000009
899000,10886,-1373,134725,-7535,-6355,150868,180,19226,737,1,28846,0.0010000000000000009
900000,-6704,-5492,130258,-11174,-4509,127166,210,19204,860,0,28847,0.0010000000000000009
901000,6310,7360,140410,-15825,6593,135690,210,19213,860,0,28848,0.0010000000000000009
902000,9424,-7081,135079,14295,-8296,148123,237,19213,971,1,28849,0.0010000000000000009
903002,5168,10097,142178,-9131,9176,128942,160,19206,971,1,28850,0.0010020000000000584
904002,10971,-12612,136745,-14631,-13789,153946,200,19225,655,1,28851,0.0010000000000000009
905000,-564,8327,138841,3941,7873,127368,200,19209,819,0,28852,0.0009979999999999434
906000,9511,-16440,136895,-3997,-15963,152846,221,19215,905,0,28853,0.0010000000000000009
907000,522,4909,135445,-4621,3635,126805,228,19204,934,1,28854,0.0010000000000000009
908002,11065,4286,136920,-5477,4462,136312,233,19204,954,1,28855,0.0010020000000000584
909000,16662,-10900,128790,2791,-11839,141727,178,19232,954,1,28856,0.0009979999999999434
910000,9875,-233,128327,10310,-3413,121169,236,19219,729,0,28857,0.0010000000000000009
911003,12718,-13800,125690,139,-16008,125514,236,19218,967,0,28858,0.0010030000000000872
912000,9437,2138,122371,906,-847,118864,234,19213,958,1,28859,0.0009969999999999146
913000,12212,61,127529,10664,1064,133071,279,19231,1143,1,28860,0.0010000000000000009
914000,13224,6470,117030,-4646,3212,104211,171,19231,700,1,28861,0.0010000000000000009
915000,6904,1087,120922,-806,2463,126740,271,19217,700,0,28862,0.0010000000000000009
916000,10105,-17847,114857,10727,-11062,112417,231,19217,1110,0,28863,0.0010000000000000009
917000,14929,8588,117712,18047,11335,115963,231,19214,946,1,28864,0.0010000000000000009
918000,10521,421,116811,1193,-6145,116525,298,19225,1221,1,28865,0.0010000000000000009
919000,24618,17726,118776,-20628,21142,95041,187,19220,766,1,28866,0.0010000000000000009
920000,12413,4181,120610,29908,-7955,132731,240,19213,983,0,28867,0.0010000000000000009
921000,-1102,-17011,117855,-14886,-14581,113905,228,19213,983,0,28868,0.0010000000000000009
922000,206,-9804,116767,-26502,-6178,123934,264,19213,934,1,28869,0.0010000000000000009
923000,6079,14169,122991,10444,27856,108329,264,19202,1081,1,28870,0.0010000000000000009
924000,21011,34925,122551,14012,25636,107441,184,19225,754,1,28871,0.0010000000000000009
925000,7810,-8193,121928,-14048,-19402,136271,219,19203,897,0,28872,0.0010000000000000009
926000,5245,-13909,122767,-7543,-10416,124752,230,19213,942,0,28873,0.0010000000000000009
927000,5961,-1247,131446,8571,8581,132480,249,19213,942,1,28874,0.0010000000000000009
928000,3754,16401,135983,-9436,14856,123313,165,19199,1020,1,28875,0.0010000000000000009
929000,-593,1087,129779,-7969,-5856,139873,165,19228,676,1,28876,0.0010000000000000009
930000,-3086,-6861,134234,-21462,-3883,137352,198,19211,811,0,28877,0.0010000000000000009
931001,8972,11006,137416,522,10883,126146,236,19215,967,0,28878,0.0010010000000000296
932000,7351,462,137721,13578,-5502,144818,237,19205,971,1,28879,0.0009989999999999721
933000,6845,-2606,139188,-23301,-4393,137113,161,19205,971,1,28880,0.0010000000000000009
934002,7985,-5579,139464,-3981,-6267,145837,192,19224,659,1,28881,0.0010020000000000584
935000,4945,-671,139190,10625,-2408,141066,192,19215,786,0,28882,0.0009979999999999434
936000,1608,-3386,139584,-6125,-8545,137508,235,19215,962,0,28883,0.0010000000000000009
937002,2468,-5500,134071,-20533,-3957,139508,229,19213,938,1,28884,0.0010020000000000584
938000,12304,4753,136121,6965,3910,129190,249,19228,1020,1,28885,0.0009979999999999434
939000,15733,3322,128735,10356,2364,135343,182,19228,1020,1,28886,0.0010000000000000009
940000,14348,-5360,128145,-5405,-8665,130711,260,19216,745,0,28887,0.0010000000000000009
941000,6034,-11764,124934,9418,-13133,131031,260,19213,1065,0,28888,0.0010000000000000009
942000,13233,-660,126931,3451,-1214,127055,234,19210,958,1,28889,0.0010000000000000009
943000,7451,74,125302,1255,627,122764,302,19226,1237,1,28890,0.0010000000000000009
944009,11638,4206,118217,-5769,4733,121139,177,19226,725,1,28891,0.0010090000000000376
945000,14377,3482,118528,3181,1719,116158,247,19226,1012,0,28892,0.0009909999999999641
946000,8471,-7043,115401,17939,-5406,109704,232,19208,1012,0,28893,0.0010000000000000009
947000,20707,9307,120391,7918,8043,120744,232,19215,950,1,28894,0.0010000000000000009
948000,4612,-20667,115022,6077,-20352,118967,260,19213,1065,1,28895,0.0010000000000000009
949000,22856,29317,123431,-22349,31340,99478,182,19224,745,1,28896,0.0010000000000000009
950000,13939,-9945,116016,38075,-11356,125782,222,19205,909,0,28897,0.0010000000000000009
951001,-7416,1153,120515,701,1551,107981,227,19205,930,0,28898,0.0010010000000000296
952000,14290,-16322,117388,-33032,-15538,131351,256,19212,930,1,28899,0.0009989999999999721
953000,-3902,22907,123768,18700,21404,100163,166,19197,1049,1,28900,0.0010000000000000009
954001,25787,26768,126698,-6695,29046,114982,166,19233,680,1,28901,0.0010010000000000296
955000,4995,-19387,118748,2054,-22264,130991,206,19201,844,0,28902,0.0009989999999999721
956001,1186,162,127632,2220,-4621,125866,212,19215,868,0,28903,0.0010010000000000296
957001,7584,-5506,128130,-19584,-8236,136144,244,19215,999,1,28904,0.0010000000000000009
958000,-1977,28743,138677,2706,27518,108974,162,19201,999,1,28905,0.0009989999999999721
959000,8816,-8641,131270,-7262,-7239,143370,196,19228,664,1,28906,0.0010000000000000009
960014,-7944,7024,133313,-15891,1752,121936,196,19210,803,0,28907,0.0010139999999999594
961003,6673,1101,138890,-16109,3017,150382,259,19216,1061,0,28908,0.0009890000000000176
962004,6411,-3351,135976,15149,-8916,128205,231,19212,946,1,28909,0.0010010000000000296
963000,6784,3814,142954,-10944,-8847,149770,219,19224,897,1,28910,0.0009959999999999969
964000,9822,-10166,139542,-15996,1243,134149,193,19224,897,1,28911,0.0010000000000000009
965003,365,9802,139822,7503,-1066,143498,249,19213,790,0,28912,0.0010029999999999761
966000,8788,-18281,136026,-5745,-15021,142008,249,19218,1020,0,28913,0.0009970000000000256
967000,-1680,11348,135502,-7659,11010,124759,229,19215,938,1,28914,0.0010000000000000009
968000,13146,-1424,137668,-3082,-10443,148614,306,19232,1253,1,28915,0.0010000000000000009
969000,17412,-6155,128870,11535,863,124304,179,19218,733,1,28916,0.0010000000000000009
970000,12149,-2698,131737,7387,-9394,138673,262,19218,733,0,28917,0.0010000000000000009
971000,9136,-8876,122747,-3358,-8765,123538,234,19211,1073,0,28918,0.0010000000000000009
972000,9809,2430,125609,3749,2084,125076,234,19209,958,1,28919,0.0010000000000000009
973000,12257,-901,126695,4211,752,128346,276,19211,1130,1,28920,0.0010000000000000009
974000,13176,11463,120066,-3740,9856,108151,172,19231,704,1,28921,0.0010000000000000009
975000,8712,-3879,120999,4855,-7988,126594,223,19205,913,0,28922,0.0010000000000000009
976000,10151,-16854,113133,12782,-13176,113179,229,19205,913,0,28923,0.0010000000000000009
977000,16365,9822,118879,18850,9274,116702,260,19219,938,1,28924,0.0010000000000000009
978000,9256,2505,116992,-11636,2608,116328,260,19209,1065,1,28925,0.0010000000000000009
979000,23788,17185,117597,-13769,19824,97930,179,19223,733,1,28926,0.0010000000000000009
980000,12177,-1164,120113,42649,-8145,129402,208,19207,852,0,28927,0.0010000000000000009
981000,-661,-15251,116161,-5626,-13274,115841,218,19212,893,0,28928,0.0010000000000000009
982000,420,-9139,117312,-32674,-7689,122095,244,19212,893,0,28929,0.0010000000000000009
983000,6884,14566,122681,10190,20464,110866,221,19199,999,1,28930,0.0010000000000000009
984000,20652,31914,122520,13380,28024,107268,221,19224,905,1,28931,0.0010000000000000009
985000,7815,-5245,122241,-10870,-12852,132004,205,19208,840,0,28932,0.0010000000000000009
986000,3178,-16430,121318,-11788,-15708,124815,238,19213,975,0,28933,0.0010000000000000009
987000,6903,216,132742,7208,290,132077,239,19211,979,1,28934,0.0010000000000000009
988001,3078,16051,135199,-8780,16485,122581,221,19211,979,1,28935,0.0010009999999999186
989000,311,790,131927,-8613,-5953,140734,191,19223,905,1,28936,0.0009990000000000832
990000,-3060,-5671,132545,-18614,-4040,135844,191,19209,782,0,28937,0.0010000000000000009
991000,10329,11332,137558,-4274,10952,127895,273,19222,1118,0,28938,0.0010000000000000009
992000,6806,367,136141,15776,-780,142667,231,19215,946,1,28939,0.0010000000000000009
993002,7805,-2123,139214,-19396,-3976,137372,246,19225,1008,1,28940,0.0010019999999999474
994000,8550,-5326,139076,-10180,-5735,146279,185,19225,758,1,28941,0.0009980000000000544
995001,6916,5007,141372,11700,3775,139244,276,19218,758,0,28942,0.0010009999999999186
996000,1106,-8298,136713,-1199,-8295,141841,231,19215,1130,0,28943,0.0009990000000000832
997000,2428,-4344,136308,-21095,-4466,136696,231,19217,946,1,28944,0.0010000000000000009
998000,12365,3503,134756,3443,2936,132910,282,19214,1155,1,28945,0.0010000000000000009
999000,16229,4789,132229,12495,4382,132640,184,19225,754,1,28946,0.0010000000000000009
1000000,14617,-5496,128479,-3848,-6833,129963,237,19225,971,0,28947,0.0010000000000000009
1001000,7404,-13493,125831,7001,-16749,134070,232,19211,971,0,28948,0.0009999999999998899
1002000,12335,661,125494,6658,-1952,126009,263,19212,950,1,28949,0.001000000000000112
1003000,6706,-4698,126376,-485,-3509,125157,263,19213,1077,1,28950,0.0009999999999998899
1004000,10796,3017,118782,-2949,-646,120418,185,19224,758,1,28951,0.001000000000000112
1005000,13994,3599,119309,513,6328,116127,210,19206,860,0,28952,0.0009999999999998899
1006000,8325,-4539,114666,16112,-8381,103674,218,19206,893,0,28953,0.001000000000000112
1007000,20152,10373,119241,9551,14341,130055,242,19213,893,1,28954,0.0009999999999998899
1008000,7473,-21254,112497,9829,-26835,107735,173,19201,991,1,28955,0.001000000000000112
1009000,20581,29270,123868,-19931,29666,106004,173,19223,709,1,28956,0.0009999999999998899
1010000,15088,-9126,116260,25048,-10429,125520,206,19205,844,0,28957,0.001000000000000112
1011000,-7753,5771,120194,13519,-4044,108933,216,19214,885,0,28958,0.0009999999999998899
1012000,13403,-10250,119039,-35950,-15353,131409,234,19207,958,0,28959,0.001000000000000112
1013000,-3092,18356,121255,16693,35627,95416,252,19207,958,1,28960,0.0009999999999998899
1014000,24207,28725,130317,-3116,6605,125332,189,19223,1032,1,28961,0.001000000000000112
1015000,8800,-19644,118483,7942,-16420,128500,189,19213,774,0,28962,0.0009999999999998899
1016000,-729,755,128826,-6789,-3832,128936,251,19209,1028,0,28963,0.001000000000000112
1017000,8784,-7210,128755,-15492,534,128590,232,19212,950,1,28964,0.0009999999999998899
1018000,-2040,27529,136282,2892,26018,118244,223,19231,913,1,28965,0.001000000000000112
1019000,10182,-3449,131784,-6883,-14652,149851,185,19231,913,1,28966,0.0009999999999998899
1020002,-5231,-2055,132363,-18366,13304,119774,296,19216,758,0,28967,0.0010019999999999474
1021000,7643,1716,137925,-7365,-8915,147551,296,19211,1212,0,28968,0.0009980000000000544
1022000,5870,-7011,134743,16644,2248,133129,232,19213,950,1,28969,0.001000000000000112
1023000,7385,9806,141851,-22980,-314,140831,277,19227,1135,1,28970,0.0009999999999998899
1024000,8689,-12732,138757,-1534,-7267,143854,186,19220,762,1,28971,0.001000000000000112
1025000,1251,10727,140480,4102,5423,133899,254,19220,762,0,28972,0.0009999999999998899
1026000,8585,-18143,136571,-7263,-19316,151340,232,19214,1040,0,28973,0.001000000000000112
1027000,-1119,8545,135629,-5586,12339,121855,232,19215,950,1,28974,0.0009999999999998899
1028000,11498,-641,136622,-4112,-10532,146614,268,19209,1098,1,28975,0.001000000000000112
1029000,14430,-1248,132660,6400,-1843,128235,174,19228,713,1,28976,0.0009999999999998899
1030000,11849,-2628,130671,10844,-7400,135072,212,19208,868,0,28977,0.001000000000000112
1031000,10321,-12217,125161,-141,-13352,130015,223,19208,868,0,28978,0.0009999999999998899
1032000,9651,5981,124133,1635,6294,118275,249,19213,913,1,28979,0.001000000000000112
1033001,12462,-4294,126326,1849,-4268,134746,249,19192,1020,1,28980,0.0010010000000000296
1034000,12565,7745,119605,-135,8451,109890,163,19226,668,1,28981,0.0009989999999999721
1035000,6493,-2928,121178,2980,-4612,121399,195,19202,799,0,28982,0.0009999999999998899
1036000,12466,-10855,114875,6404,-8973,116111,211,19216,864,0,28983,0.001000000000000112
1037000,16108,5114,115999,25885,6057,117815,238,19216,975,1,28984,0.0009999999999998899
1038000,10285,2338,116217,-15140,1273,115178,181,19204,975,1,28985,0.001000000000000112
1039000,22934,14855,117834,-15765,17554,99096,195,19228,741,1,28986,0.0009999999999998899
1040000,8805,-2717,119977,45698,-5610,127836,195,19207,799,0,28987,0.001000000000000112
1041000,-1920,-17533,116526,-7467,-16797,119148,238,19211,975,0,28988,0.0009999999999998899
1042000,-631,420,119426,-32678,823,115681,232,19207,950,0,28989,0.001000000000000112
1043000,10387,18494,122892,12237,18749,115168,275,19207,1126,1,28990,0.0009999999999998899
1044001,19558,25855,121947,12193,25569,105407,186,19226,1126,1,28991,0.0010010000000000296
1045002,8695,-11015,121801,-8390,-13048,129182,263,19219,762,0,28992,0.0010010000000000296
1046002,6731,-10383,124957,-8695,-13438,127313,263,19216,1077,0,28993,0.0009999999999998899
1047000,3113,3104,131385,5429,1542,129870,240,19210,983,1,28994,0.0009980000000000544
1048000,2599,12937,136550,-10598,12042,127730,289,19228,1184,1,28995,0.001000000000000112
1049003,-265,6370,129814,-9915,3002,132427,184,19228,754,1,28996,0.0010029999999998651
1050002,183,-3643,133646,-16288,-4127,137979,263,19217,754,0,28997,0.0009989999999999721
1051000,8965,4847,136172,-8206,4798,128928,231,19206,1077,0,28998,0.0009980000000000544
1052000,8044,-1928,136772,15604,-3118,141984,231,19209,946,1,28999,0.001000000000000112
1053000,5657,1657,139865,-16318,-842,136707,275,19227,1126,1,29000,0.0009999999999998899
1054000,6589,-6559,138940,-14252,-5995,148067,186,19223,762,1,29001,0.001000000000000112
1055000,5303,88,138891,7504,-3394,138162,236,19207,967,0,29002,0.0009999999999998899
1056000,718,-3611,138462,-1620,-980,138065,229,19207,967,0,29003,0.001000000000000112
1057000,4478,-5497,134589,-18497,-1662,137463,252,19217,938,1,29004,0.0009999999999998899
1058000,12327,1477,135151,4177,2480,131916,252,19208,1032,1,29005,0.001000000000000112
1059000,16059,4271,130936,12342,1384,132107,169,19227,692,1,29006,0.0009999999999998899
1060000,14693,-4665,129238,-4559,-9206,132847,201,19210,823,0,29007,0.001000000000000112
1061002,7669,-9480,126421,4955,-10830,131326,216,19216,885,0,29008,0.0010019999999999474
1062002,10407,-6747,124665,2280,-1733,126359,241,19216,885,0,29009,0.0009999999999998899
1063000,6747,2284,127276,-3885,-280,120701,174,19201,987,1,29010,0.0009980000000000544
1064000,12787,4589,119571,2639,2699,118785,174,19229,713,1,29011,0.001000000000000112
1065003,13060,123,120589,8301,-6972,121946,184,19207,754,0,29012,0.0010029999999998651
1066001,7168,-1777,116038,8181,5882,102248,245,19212,1003,0,29013,0.0009980000000000544
1067000,21207,14081,120234,12756,1228,125760,232,19206,950,1,29014,0.0009989999999999721
1068000,5706,-23658,112177,3587,-13499,115577,238,19206,950,1,29015,0.001000000000000112
1069000,18993,22122,121239,-21935,21296,103414,193,19227,975,1,29016,0.0009999999999998899
1070000,17122,-5755,116935,41315,-8260,123912,193,19218,790,0,29017,0.001000000000000112
1071000,-5635,8099,121162,-5801,6757,107293,248,19213,1016,0,29018,0.0009999999999998899
1072000,12494,-14769,117134,-27578,-16047,132675,232,19208,950,0,29019,0.0009999999999998899
1073000,-3587,16366,121339,16117,26089,98415,329,19225,1347,1,29020,0.001000000000000112
1074000,21619,28869,126676,-7256,18697,120043,194,19225,1347,1,29021,0.0009999999999998899
1075000,10308,-15000,120776,3200,-16981,126737,284,19225,795,0,29022,0.001000000000000112
1076000,376,-3127,127592,1766,-7316,128737,284,19215,1163,0,29023,0.0009999999999998899
1077000,9469,-5716,130351,-17166,-2460,131230,239,19210,979,1,29024,0.001000000000000112
1078000,-2294,25114,135196,172,24640,115017,296,19227,1212,1,29025,0.0009999999999998899
1079001,7189,-7799,133303,-9377,-15390,149731,179,19223,733,1,29026,0.0010010000000000296
1080000,-4721,1889,132547,-15243,4843,122056,238,19223,733,0,29027,0.0009989999999999721
1081000,6270,1611,137150,-12992,-2989,142600,226,19205,975,0,29028,0.001000000000000112
1082001,7402,-6077,134363,18814,-3754,140458,226,19217,926,1,29029,0.0010010000000000296
1083000,7315,4713,140791,-17277,1114,135955,260,19215,1065,1,29030,0.0009989999999999721
1084000,10115,-5516,137913,-9487,-3937,146214,184,19218,754,1,29031,0.0009999999999998899
1085000,271,8618,140145,5118,6631,132884,219,19206,897,0,29032,0.001000000000000112
1086001,8332,-18128,135443,-6182,-17919,152078,222,19206,909,0,29033,0.0010010000000000296
1087001,-162,6318,136464,-4650,7272,125198,237,19213,909,0,29034,0.0009999999999998899
1088000,13953,5554,135375,-2341,4015,140169,157,19199,971,1,29035,0.0009989999999999721
1089000,15026,-5074,131224,3227,-4858,133868,157,19230,643,1,29036,0.001000000000000112
1090000,12864,-2076,131555,10028,-3262,129338,195,19210,799,0,29037,0.0009999999999998899
1091001,9218,-9436,125693,2859,-13400,134436,217,19213,889,0,29038,0.0010010000000000296
1092000,10160,3097,125602,-30,2529,116935,235,19213,962,0,29039,0.0009989999999999721
1093000,11269,-4239,126747,5344,-4015,133384,230,19209,962,1,29040,0.001000000000000112
1094000,13862,7028,120303,-812,5390,114633,175,19224,942,1,29041,0.0009999999999998899
1095000,8573,-3041,119706,3742,-2804,118692,175,19219,717,0,29042,0.001000000000000112
1096001,10280,-16772,115552,5050,-17412,122345,242,19216,991,0,29043,0.0010010000000000296
1097000,16977,3098,116246,23877,2573,111047,228,19208,934,1,29044,0.0009989999999999721
1098000,8937,5088,115285,-3937,3381,119757,280,19227,1147,1,29045,0.0009999999999998899
1099002,25721,13597,115323,-24995,12311,105361,185,19227,1147,1,29046,0.0010020000000001694
1100000,10294,1468,119540,42823,3076,130500,254,19218,758,0,29047,0.0009979999999998324
1101000,-814,-17167,115496,6420,-17717,113492,254,19214,1040,0,29048,0.001000000000000112
1102000,-411,-4113,118876,-38210,-5304,119793,229,19211,938,0,29049,0.0009999999999998899
1103000,7976,16515,122852,8063,12343,110652,305,19218,1249,1,29050,0.001000000000000112
1104000,18698,29196,122356,15181,16985,109111,185,19226,758,1,29051,0.0009999999999998899
1105000,7817,234,124290,-5982,-18806,135944,253,19226,758,0,29052,0.001000000000000112
1106000,4723,-17550,122985,-13434,-13037,126472,236,19211,1036,0,29053,0.0009999999999998899
1107000,5658,4541,135327,4026,6057,131352,236,19213,967,1,29054,0.001000000000000112
1108000,2917,11057,134445,-3413,13195,126601,275,19215,1126,1,29055,0.0009999999999998899
1109000,1180,6082,131472,-9248,-1611,135467,190,19221,778,1,29056,0.001000000000000112
1110002,-1673,-6386,131935,-18345,-2569,138296,225,19200,922,0,29057,0.0010019999999999474
1111002,9586,7823,136056,2380,6719,126620,227,19200,922,0,29058,0.001000000000000112
1112000,8294,3258,137212,11299,-787,143337,249,19212,930,1,29059,0.0009979999999998324
1113000,7911,-8638,138195,-26591,-2232,139640,249,19217,1020,1,29060,0.001000000000000112
1114000,8196,-5216,138149,-5270,-6598,144145,177,19224,725,1,29061,0.0009999999999998899
1115000,4239,-1250,138667,10141,484,141876,210,19202,860,0,29062,0.001000000000000112
1116000,1664,-1231,136927,-8018,-5051,136548,209,19215,856,0,29063,0.0009999999999998899
1117001,1941,-6175,137140,-15827,-5333,139722,229,19215,856,0,29064,0.0010010000000000296
1118000,14306,1041,134984,7905,565,132441,196,19205,938,1,29065,0.0009989999999999721
1119000,14975,5065,131304,9831,2294,132918,196,19227,803,1,29066,0.001000000000000112
1120000,14029,-4100,129026,-8230,-6030,130864,186,19210,762,0,29067,0.0009999999999998899
1121000,5668,-10576,126662,10836,-18236,132126,247,19213,1012,0,29068,0.001000000000000112
1122002,10535,-2921,128272,7644,-2086,127917,233,19208,954,0,29069,0.0010019999999999474
1123000,8473,3482,125602,-1484,2641,120482,237,19208,954,1,29070,0.0009980000000000544
1124000,12380,-633,120050,-2423,-1225,121100,176,19231,971,1,29071,0.0009999999999998899
1125003,14307,7825,120396,3256,8011,113943,176,19219,721,0,29072,0.0010030000000000872
1126002,6100,-13951,112471,11994,-13074,117212,273,19216,1118,0,29073,0.0009989999999999721
1127002,18215,16183,122338,7926,19105,108252,234,19213,958,0,29074,0.001000000000000112
1128000,10136,-23793,109951,13489,-28045,132077,307,19225,1257,1,29075,0.0009979999999998324
1129000,13002,19529,120107,-25928,27297,96133,185,19225,758,1,29076,0.001000000000000112
1130000,22088,5855,116997,20125,1254,121142,260,19213,758,0,29077,0.0009999999999998899
1131000,-6683,-6112,115669,24715,-4493,115472,230,19213,1065,0,29078,0.001000000000000112
1132000,8502,-6103,120193,-45244,-7659,122008,230,19211,942,0,29079,0.0009999999999998899
1133000,-466,-4597,117447,16556,-1288,119399,282,19210,1155,1,29080,0.001000000000000112
1134002,15046,45301,127503,-1234,44300,98466,184,19223,754,1,29081,0.0010019999999999474
1135001,16775,-14952,121816,-6452,-18657,135975,235,19223,962,0,29082,0.0009989999999999721
1136000,-4717,-4991,121544,9181,-8608,122936,235,19210,962,0,29083,0.0009989999999999721
1137000,13025,-6476,131214,-15861,-6869,137250,259,19210,962,1,29084,0.001000000000000112
1138002,-3189,16011,132201,-5444,15231,112983,259,19211,1061,1,29085,0.0010019999999999474
1139000,10502,11952,137080,-3208,9276,140821,179,19224,733,1,29086,0.0009980000000000544
1140000,-3523,-13296,130629,-11133,-14229,138986,209,19196,856,0,29087,0.0009999999999998899
1141000,-621,12841,137665,-16810,12135,125734,209,19196,856,0,29088,0.001000000000000112
1142001,13049,-13074,135209,752,-14422,152889,240,19213,856,1,29089,0.0010010000000000296
1143000,2687,12665,139442,6785,10594,123949,156,19200,983,1,29090,0.0009989999999999721
1144001,14798,-11320,137387,-20611,-10757,154336,156,19226,639,1,29091,0.0010010000000000296
1145000,360,5273,137289,2733,2312,130119,196,19211,803,0,29092,0.0009989999999999721
1146000,5158,-8927,137621,-1843,-7573,148798,227,19216,930,0,29093,0.0009999999999998899
1147002,2927,-4089,134314,-7707,-9843,121099,229,19213,938,0,29094,0.0010019999999999474
1148000,8755,13699,136727,-5152,13976,144251,237,19213,938,1,29095,0.0009980000000000544
1149000,19324,-15000,130421,3183,-14449,131825,181,19225,971,1,29096,0.001000000000000112
1150000,11316,3331,128476,11644,1028,130299,181,19214,741,0,29097,0.0009999999999998899
1151000,12291,-11587,128827,976,-15601,134513,238,19212,975,0,29098,0.001000000000000112
1152000,8071,-6,122245,1855,5842,113674,233,19210,954,0,29099,0.0009999999999998899
1153001,12259,3844,129148,5961,-1725,135626,303,19226,1241,1,29100,0.0010010000000000296
1154002,12805,1293,118651,380,4712,109937,183,19226,1241,1,29101,0.0010010000000000296
1155000,7641,3364,120429,-1274,-68,119450,270,19223,750,0,29102,0.0009980000000000544
1156000,8988,-15667,116145,11200,-18217,121033,270,19212,1106,0,29103,0.0009999999999998899
1157000,15112,6270,116257,18951,12731,107645,232,19216,950,0,29104,0.001000000000000112
1158000,10251,18,116107,-5702,-7170,126934,286,19222,1171,1,29105,0.0009999999999998899
1159000,22523,11354,116974,-17059,22023,91970,185,19224,758,1,29106,0.001000000000000112
1160000,19448,12189,120119,36983,-1075,125817,234,19224,758,0,29107,0.0009999999999998899
1161000,-1605,-13517,117745,6275,-12045,119423,221,19208,958,0,29108,0.001000000000000112
1162000,-398,-7195,117536,-39960,-9597,118864,221,19211,905,0,29109,0.0009999999999998899
1163000,6674,4278,122554,9792,16553,117407,259,19200,1061,1,29110,0.001000000000000112
1164000,19836,43094,123318,20431,39356,99828,187,19223,766,1,29111,0.0009999999999998899
1165000,11542,-7239,122337,-12188,-15707,135575,220,19204,901,0,29112,0.001000000000000112
1166000,2530,-12184,123544,-14032,-11721,122364,223,19204,901,0,29113,0.0009999999999998899
1167001,8584,-4403,132653,10785,-4474,136789,247,19216,913,1,29114,0.0010010000000000296
1168000,1703,15159,136236,-7831,18449,120271,247,19211,1012,1,29115,0.0009989999999999721
1169000,1527,7547,134669,-11934,-3305,137984,168,19224,688,1,29116,0.001000000000000112
1170001,-2971,-14034,131014,-18515,-9269,141080,197,19209,807,0,29117,0.0010009999999998076
1171000,5328,15067,137160,-5442,15123,123775,246,19213,1008,0,29118,0.0009990000000001942
1172000,9925,-5565,137344,13673,-9299,146493,232,19213,950,1,29119,0.0009999999999998899
1173000,6050,2257,139251,-14967,1011,131862,180,19208,950,1,29120,0.001000000000000112
1174000,10483,-10521,139181,-15018,-12215,151646,193,19228,737,1,29121,0.0009999999999998899
1175000,5018,590,137257,8947,1863,137608,193,19213,790,0,29122,0.001000000000000112
1176000,1266,-3270,137992,2068,-6411,142275,245,19212,1003,0,29123,0.0009999999999998899
1177000,1198,-9045,133232,-21445,-7183,138410,230,19208,942,0,29124,0.001000000000000112
1178000,11931,10063,136563,2021,9366,128542,263,19208,1077,1,29125,0.0009999999999998899
1179000,17053,-887,131800,11516,-1183,139788,176,19227,1077,1,29126,0.001000000000000112
1180001,14697,-53,128477,-637,-1715,124118,266,19219,721,0,29127,0.0010009999999998076
1181000,4329,-6963,126108,4904,-11348,135214,266,19209,1089,0,29128,0.0009990000000001942
1182001,11746,-3398,126242,1030,-2946,125072,231,19214,946,0,29129,0.0010009999999998076
1183002,9174,1647,128659,4968,1944,124658,293,19230,1200,1,29130,0.0010010000000000296
1184002,11960,1982,122181,250,605,123521,175,19230,717,1,29131,0.001000000000000112
1185000,14977,3251,119077,-2121,3864,111180,242,19232,717,0,29132,0.0009980000000000544
1186000,6094,-5368,116871,15130,-6720,115050,230,19206,991,0,29133,0.0009999999999998899
1187000,22758,3957,116909,10689,5074,119615,230,19215,942,0,29134,0.001000000000000112
1188000,3927,-12232,113565,8967,-15581,119596,267,19211,1094,1,29135,0.0009999999999998899
1189000,23945,23741,122462,-24788,26412,99746,180,19226,737,1,29136,0.001000000000000112
1190000,17255,-12577,114859,35305,-13480,122985,220,19209,901,0,29137,0.0009999999999998899
1191001,-8295,-2226,119489,12128,-2762,116547,225,19209,901,0,29138,0.0010010000000000296
1192000,13629,-11900,115511,-41768,-12730,124890,250,19212,922,0,29139,0.0009989999999999721
1193000,-4723,28550,123505,18387,24828,100755,250,19194,1024,1,29140,0.0009999999999998899
1194000,26091,21752,127047,-4192,26935,127864,164,19223,672,1,29141,0.001000000000000112
1195003,6667,-15133,119775,1862,-16840,125739,202,19204,827,0,29142,0.0010030000000000872
1196002,-1338,-2743,128561,5246,-6135,134070,212,19213,868,0,29143,0.0009989999999999721
1197001,7457,-3722,129797,-23483,-5344,119396,245,19213,868,1,29144,0.0009989999999999721
1198000,-3696,28664,138753,-75,19233,129148,177,19201,1003,1,29145,0.0009989999999999721
1199000,11245,-3388,133717,-5474,-10486,141904,177,19225,725,1,29146,0.0009999999999998899
1200001,-6514,5665,132122,-9154,9294,122766,192,19210,786,0,29147,0.0010010000000000296
1201002,4231,-3493,137609,-19296,-10386,148700,255,19218,1044,0,29148,0.0010010000000000296
1202002,10190,-2984,135199,4172,6498,128588,230,19210,942,1,29149,0.001000000000000112
1203000,4943,5071,141260,-17572,-4136,149080,227,19210,942,1,29150,0.0009979999999998324
1204001,10031,-9697,137198,-9908,-2631,136530,189,19227,930,1,29151,0.0010010000000000296
1205001,1695,6662,138978,2588,1677,140194,189,19215,774,0,29152,0.001000000000000112
1206001,9212,-14976,135542,-2668,-10181,146533,262,19211,1073,0,29153,0.0009999999999998899
1207000,-948,7692,136229,-5810,10155,122508,232,19212,950,0,29154,0.0009989999999999721
1208000,10676,-3335,136582,-12580,-9863,149750,305,19226,1249,1,29155,0.001000000000000112
1209000,16405,-5107,130770,11403,-955,126575,176,19226,1249,1,29156,0.0009999999999998899
1210000,12180,-91,131798,13105,-6824,136610,253,19225,721,0,29157,0.001000000000000112
1211001,10313,-9678,125093,-6210,-12311,128402,253,19215,1036,0,29158,0.0010010000000000296
1212001,7653,125,124723,3144,49,122311,234,19213,958,0,29159,0.0009999999999998899
1213000,13626,799,126627,5892,2672,131027,279,19208,1143,1,29160,0.0009989999999999721
1214000,12319,7255,120775,-1914,2142,107859,188,19224,770,1,29161,0.001000000000000112
1215002,7932,-2688,120593,1320,-5616,123629,226,19224,770,0,29162,0.0010019999999999474
1216000,10644,-13042,113960,12024,-11034,115596,228,19205,926,0,29163,0.0009980000000000544
1217000,14729,7247,117477,22000,7967,114963,228,19217,934,0,29164,0.0009999999999998899
1218000,11944,181,116059,-15599,-1864,116342,258,19206,1057,1,29165,0.001000000000000112
1219000,22456,16989,117558,-6910,19819,99449,181,19227,741,1,29166,0.0009999999999998899
1220000,13413,-4138,119627,36697,-9734,128965,212,19203,868,0,29167,0.001000000000000112
1221000,-1556,-10903,116309,-8359,-9771,115092,217,19203,889,0,29168,0.0009999999999998899
1222000,-114,-6292,119039,-23888,-5608,121701,236,19217,889,0,29169,0.001000000000000112
1223000,8747,17065,119725,6926,22586,111803,218,19202,967,1,29170,0.0009999999999998899
1224001,16726,30312,124081,9605,27176,105676,218,19227,893,1,29171,0.0010010000000000296
1225000,12153,-12510,121741,-3281,-16473,133771,193,19210,790,0,29172,0.0009989999999999721
1226000,3922,-9436,123367,-11771,-10620,123269,247,19214,1012,0,29173,0.001000000000000112
1227002,6586,-436,133656,5229,-499,132913,240,19214,983,0,29174,0.0010019999999999474
1228002,1406,14792,133301,-8002,13922,123823,213,19208,983,1,29175,0.001000000000000112
1229000,-324,5898,133507,-9832,2215,136949,194,19228,872,1,29176,0.0009979999999998324
1230000,-627,-5932,131864,-20576,-5347,135652,194,19213,795,0,29177,0.001000000000000112
1231002,6413,11246,136701,-4007,9906,126177,278,19212,1139,0,29178,0.0010019999999999474
1232000,8220,-4293,137541,12722,-6028,146548,232,19219,950,0,29179,0.0009980000000000544
1233000,8521,2296,139292,-16700,1344,132672,246,19219,1008,1,29180,0.0009999999999998899
1234000,7032,-8105,139247,-9060,-8609,148515,199,19230,1008,1,29181,0.001000000000000112
1235000,7159,2286,139084,5187,972,138092,275,19217,815,0,29182,0.0009999999999998899
1236000,-312,-7372,136011,-2204,-7489,142213,275,19219,1126,0,29183,0.001000000000000112
1237000,4791,-5153,135731,-17178,-6274,139111,228,19216,934,0,29184,0.0009999999999998899
1238000,11557,3469,133397,3831,2418,130437,279,19219,1143,1,29185,0.001000000000000112
1239000,16402,3709,133020,10791,3421,136243,179,19222,733,1,29186,0.0009999999999998899
1240000,15121,-3344,127777,-3000,-5710,129683,233,19222,733,0,29187,0.001000000000000112
1241000,6491,-12035,126201,3973,-15156,132296,230,19206,954,0,29188,0.0009999999999998899
1242000,13262,-2071,126657,7164,-5132,122105,230,19215,942,0,29189,0.001000000000000112
1243000,6694,905,126606,2781,1589,126221,257,19205,1053,1,29190,0.0009999999999998899
1244000,13835,1121,122144,-3355,-152,116867,173,19224,709,1,29191,0.001000000000000112
1245002,14125,3700,121185,5655,-6436,121309,203,19208,831,0,29192,0.0010019999999999474
1246007,5653,-6322,116317,10987,3476,104292,215,19208,831,0,29193,0.0010049999999999226
1247000,20881,14055,120524,1771,-703,125642,242,19219,881,0,29194,0.0009930000000000216
1248000,5727,-25326,112105,20254,-15508,118362,242,19204,991,1,29195,0.001000000000000112
1249003,17749,26440,122037,-23299,27075,98913,164,19229,672,1,29196,0.0010029999999998651
1250000,20229,-4554,116385,39884,-10531,125916,199,19207,815,0,29197,0.0009970000000001367
1251000,-8819,591,117949,-3678,2222,108965,206,19214,844,0,29198,0.0009999999999998899
1252000,11257,-14613,116978,-28151,-17220,131737,233,19214,844,0,29199,0.001000000000000112
1253000,-4153,14105,118965,12842,32348,96782,250,19206,954,1,29200,0.0009999999999998899
1254000,22184,35047,127317,-3608,18548,119804,250,19228,1024,1,29201,0.001000000000000112
1255000,12689,-18525,119703,5852,-18729,129133,187,19212,766,0,29202,0.0009999999999998899
1256000,-463,-980,126675,-2836,-6020,126621,251,19212,1028,0,29203,0.001000000000000112
1257000,9604,-4047,128399,-14434,1016,129718,237,19204,971,0,29204,0.0009999999999998899
1258000,-3694,23465,135286,182,24119,115586,240,19204,971,1,29205,0.001000000000000112
1259000,11359,-158,134843,-8419,-9873,148824,184,19229,983,1,29206,0.0009999999999998899
1260001,-5372,-740,133318,-12193,4949,122388,184,19216,754,0,29207,0.0010010000000000296
1261000,5405,4510,137996,-14035,-3941,142486,288,19213,1180,0,29208,0.0009989999999999721
1262000,7668,-9624,135153,17620,-6585,140071,231,19213,946,1,29209,0.001000000000000112
1263000,6940,8058,140528,-17703,4203,136164,271,19228,1110,1,29210,0.0009999999999998899
1264000,10981,-8528,137385,-8222,-6008,146448,191,19228,782,1,29211,0.001000000000000112
1265000,1656,4725,140231,3684,1555,133778,256,19219,782,0,29212,0.0009999999999998899
1266000,7748,-19774,136315,-3558,-20813,154130,229,19217,1049,0,29213,0.001000000000000112
1267002,-801,5506,135951,-5002,9003,123728,229,19210,938,0,29214,0.0010019999999999474
1268000,11422,3182,134752,-6810,-665,143191,264,19215,1081,1,29215,0.0009980000000000544
1269001,15342,-5720,130817,3098,-5150,132907,175,19229,717,1,29216,0.0010010000000000296
1270000,13394,-335,129621,11785,-2729,130849,218,19229,893,0,29217,0.0009989999999999721
1271000,8827,-10240,126740,3547,-13040,134005,229,19204,893,0,29218,0.0009999999999998899
1272000,9669,1242,124857,-1902,1342,117172,252,19210,938,0,29219,0.001000000000000112
1273000,10021,-403,128262,5632,-1165,134272,252,19206,1032,1,29220,0.0009999999999998899
1274003,12258,10140,120788,-4276,9711,114136,164,19227,672,1,29221,0.0010030000000000872
1275000,8707,-145,120863,4218,-772,117258,193,19206,790,0,29222,0.0009969999999999146
1276000,7890,-12810,115329,6227,-13319,120626,203,19206,831,0,29223,0.001000000000000112
1277003,18647,4018,117581,19937,5205,111566,240,19211,831,0,29224,0.0010029999999998651
1278000,10108,1602,117149,207,-82,120775,198,19201,983,1,29225,0.0009970000000001367
1279000,24547,15662,116661,-23216,16245,98371,198,19228,811,1,29226,0.0009999999999998899
1280000,13406,1270,119067,39144,6,120741,191,19209,782,0,29227,0.001000000000000112
1281001,-4061,-17355,115878,6470,-18410,125909,243,19218,995,0,29228,0.0010009999999998076
1282000,3335,-9870,115775,-36348,-10331,112416,234,19206,958,0,29229,0.0009990000000001942
1283000,6240,15996,122933,9806,14352,116771,298,19206,958,1,29230,0.0009999999999998899
1284000,19908,31336,121801,14166,31825,103509,187,19229,1221,1,29231,0.001000000000000112
1285001,8850,-8234,121483,-5708,-8226,128113,187,19216,766,0,29232,0.0010009999999998076
1286000,5478,-12960,124130,-13422,-15527,128739,276,19213,1130,0,29233,0.0009990000000001942
1287000,5581,1564,133024,5994,988,128495,239,19209,979,0,29234,0.0009999999999998899
1288000,733,13120,135370,-6660,10753,124882,270,19232,1106,1,29235,0.001000000000000112
1289000,2793,5056,132894,-10399,6801,138743,185,19232,1106,1,29236,0.0009999999999998899
1290000,-2820,-3036,132142,-13099,-5928,133163,264,19224,758,0,29237,0.001000000000000112
1291002,7181,9782,137316,-15932,9890,128734,264,19206,1081,0,29238,0.0010019999999999474
1292001,7582,674,135956,11292,-3178,143295,231,19216,946,0,29239,0.0009989999999999721
1293000,6653,-1877,139070,-7691,-2687,138216,277,19219,1135,1,29240,0.0009989999999999721
1294000,8809,-5725,138542,-17113,-6702,145133,193,19218,790,1,29241,0.001000000000000112
1295000,5158,-1439,138300,8376,1087,140162,238,19218,790,0,29242,0.0009999999999998899
1296000,1112,-1873,137539,-1429,-7616,138113,229,19204,975,0,29243,0.001000000000000112
1297000,2064,-5725,135815,-15390,-4784,138604,229,19213,938,0,29244,0.0009999999999998899
1298000,12396,3709,135054,9941,5259,131884,251,19208,1028,1,29245,0.001000000000000112
1299001,14076,2848,131412,3796,3413,135915,173,19228,709,1,29246,0.0010009999999998076
1300000,16329,-3538,129657,-5760,-6521,130457,204,19204,836,0,29247,0.0009990000000001942
1301000,7144,-9592,127555,14193,-14560,133227,219,19204,836,0,29248,0.0009999999999998899
1302000,11374,-5941,126676,3528,-2696,127558,239,19212,897,0,29249,0.001000000000000112
1303000,7957,2411,126247,-3112,1755,119719,239,19204,979,1,29250,0.0009999999999998899
1304000,11387,-311,122236,-922,-119,122710,181,19230,741,1,29251,0.001000000000000112
1305000,15610,6672,121001,5098,3499,115443,181,19213,741,0,29252,0.0009999999999998899
1306000,5522,-9764,114297,12227,-5897,112058,239,19215,979,0,29253,0.001000000000000112
1307000,20756,16231,122151,7084,9994,114229,235,19215,979,0,29254,0.0009999999999998899
1308000,8713,-22139,109924,14760,-24917,125753,226,19204,962,1,29255,0.001000000000000112
1309000,14822,21728,121356,-28850,29003,98427,226,19231,926,1,29256,0.0009999999999998899
1310002,22108,-593,115692,28415,-6830,121765,185,19215,758,0,29257,0.0010019999999999474
1311000,-9128,122,117861,15341,3354,110907,237,19215,971,0,29258,0.0009980000000000544
1312001,11426,-12204,117682,-40028,-15821,131277,228,19212,934,0,29259,0.0010010000000000296
1313000,-2419,958,118283,18301,10431,106430,328,19212,1343,1,29260,0.0009989999999999721
1314000,18279,41168,126716,-4971,35514,109508,186,19228,1343,1,29261,0.0009999999999998899
1315000,15475,-17648,120558,1717,-21510,131845,279,19222,762,0,29262,0.001000000000000112
1316000,-3925,-2264,123125,3169,10,123622,279,19213,1143,0,29263,0.0009999999999998899
1317000,12668,-10223,130446,-16526,-10788,138520,235,19216,962,0,29264,0.001000000000000112
1318001,-4380,23516,131776,1772,25459,108031,290,19224,1188,1,29265,0.0010010000000000296
1319000,12903,2686,136900,-8727,-3428,150562,181,19224,741,1,29266,0.0009989999999999721
1320002,-3346,-10405,129395,-9527,-7216,126991,239,19224,741,0,29267,0.0010019999999999474
1321004,1563,12744,138810,-17925,9059,133658,232,19207,979,0,29268,0.0010019999999999474
1322000,11010,-13535,134438,9423,-14044,149608,232,19212,950,0,29269,0.0009959999999999969
1323002,2407,12461,140667,-2260,10405,125505,260,19216,1065,1,29270,0.0010020000000001694
1324000,14170,-13523,136654,-19576,-14829,157984,179,19223,733,1,29271,0.0009979999999998324
1325000,616,13779,140062,7100,12826,122133,212,19223,868,0,29272,0.001000000000000112
1326000,7213,-16014,136340,-4385,-17649,157659,220,19206,868,0,29273,0.0009999999999998899
1327000,-4,-982,135815,-5499,-1283,126910,240,19213,901,0,29274,0.001000000000000112
1328000,9471,8128,137412,-5896,7389,134727,240,19196,983,1,29275,0.0009999999999998899
1329000,16721,-10123,130945,3013,-10385,144533,154,19232,631,1,29276,0.001000000000000112
1330000,12877,2015,129405,11660,-275,121161,192,19208,786,0,29277,0.0009999999999998899
1331000,10931,-12476,126516,2238,-14751,142513,208,19212,852,0,29278,0.001000000000000112
1332000,9432,767,123331,31,-620,113715,235,19212,852,0,29279,0.0009999999999998899
1333000,10785,-1183,126104,5385,-4083,134242,226,19207,962,1,29280,0.001000000000000112
1334000,14777,3267,120448,-470,2713,122051,226,19227,926,1,29281,0.0009999999999998899
1335000,9046,1733,118196,2167,246,120698,177,19219,725,0,29282,0.001000000000000112
1336001,9328,-11280,117540,5685,-9791,116696,241,19215,987,0,29283,0.0010010000000000296
1337000,16223,1742,115730,20101,-525,116281,233,19207,954,0,29284,0.0009989999999999721
1338000,8614,2998,118423,2405,3915,114983,265,19207,954,1,29285,0.0009999999999998899
1339000,25167,14202,116153,-24177,19654,98548,184,19227,1085,1,29286,0.001000000000000112
1340000,13323,6000,119445,35229,-7473,129293,184,19216,754,0,29287,0.0009999999999998899
1341000,-1688,-19815,116351,16377,-19346,117808,269,19213,1102,0,29288,0.001000000000000112
1342000,-1237,-6256,118926,-39626,111,119132,232,19212,950,0,29289,0.0009999999999998899
1343000,7491,13129,122521,1107,22291,112317,305,19216,1249,1,29290,0.001000000000000112
1344000,18594,32053,122597,8699,28866,105075,185,19216,1249,1,29291,0.0009999999999998899
1345001,10749,-5759,121017,-10026,-17577,135326,252,19220,758,0,29292,0.0010010000000000296
1346000,4406,-15553,121240,-8163,-11466,124281,252,19203,1032,0,29293,0.0009989999999999721
1347000,6362,401,132928,5973,2014,132614,236,19212,967,0,29294,0.001000000000000112
1348000,2710,11266,134490,-8024,14778,124612,271,19221,1110,1,29295,0.0009999999999998899
1349003,884,10909,133636,-12002,1197,134867,181,19225,741,1,29296,0.0010030000000000872
1350002,-2561,-3540,130525,-22078,-968,137394,225,19225,922,0,29297,0.0009989999999999721
1351002,6605,9400,136125,1570,8681,126619,227,19201,922,0,29298,0.001000000000000112
1352002,8063,-742,136341,12906,-3552,143873,227,19212,930,0,29299,0.0009999999999998899
1353000,7089,-2048,140541,-21149,-2737,136285,248,19214,1016,1,29300,0.0009980000000000544
1354000,8211,-5173,139202,-8875,-7706,147185,177,19225,725,1,29301,0.0009999999999998899
1355000,6813,-3119,139245,8413,-2605,141883,209,19201,856,0,29302,0.001000000000000112
1356000,-482,-1308,136082,-3721,-3959,137547,212,19201,868,0,29303,0.0009999999999998899
1357000,2424,-7168,135255,-20685,-5362,140252,234,19211,868,0,29304,0.001000000000000112
1358000,14392,-2256,133620,10635,-162,130352,193,19207,958,1,29305,0.0009999999999998899
1359000,15227,4257,133551,9994,3098,135040,193,19228,790,1,29306,0.001000000000000112
