t_us,ax,ay,az,ax1,ay1,az1,shunt_raw,bus_raw,curr_raw,pg_rpm,seq,dt
0,5085,129,127424,-2285,-2910,127735,54,19538,287,0,47282,
998,9171,-63,127449,-646,-2134,127671,54,19542,221,0,47283,0.000998
1998,8943,3646,128690,-919,1703,126282,67,19538,274,0,47284,0.0009999999999999998
2998,5983,2962,127915,-2181,-95,126275,69,19541,283,0,47285,0.001
3998,4043,2198,127793,-3409,-1207,128897,68,19544,279,0,47286,0.001
4998,4251,1519,127771,-3865,-355,126049,64,19544,279,0,47287,0.001
5998,7075,3997,127697,-1875,1246,125980,62,19543,262,0,47288,0.001
6998,7517,4848,128408,-317,2087,127025,62,19542,254,0,47289,0.001
7998,6643,518,127777,-1106,-4191,128429,66,19538,270,0,47290,0.001
8999,6777,-1028,127700,-2330,-1142,127992,72,19546,295,0,47291,0.0010010000000000002
9998,5453,3192,128734,-2312,1126,127321,80,19537,328,0,47292,0.0009989999999999999
10998,5280,5306,128479,-4355,3754,125070,88,19537,360,1,47293,0.0009999999999999992
12000,4999,3955,128186,-3166,-838,127744,61,19535,360,1,47294,0.0010020000000000012
13000,7133,1467,127682,618,-3569,127829,61,19544,250,1,47295,0.0009999999999999992
14000,9265,-1205,126851,-372,-1764,126415,64,19543,262,1,47296,0.0009999999999999992
14999,7264,1056,127698,-1310,-146,126787,64,19542,262,1,47297,0.0009990000000000016
16000,5710,5414,129057,-4580,739,128397,64,19541,262,1,47298,0.0010010000000000002
17000,4721,2866,128530,-3115,2944,127348,60,19541,246,1,47299,0.0009999999999999974
18006,6074,4897,127996,-1579,-325,126749,60,19544,246,1,47300,0.001006
18999,5189,3680,127367,-2599,837,124186,67,19543,246,1,47301,0.0009930000000000008
20000,5970,1013,127077,-1717,-2945,127016,67,19539,274,0,47302,0.0010010000000000019
21000,6217,-1818,126454,-578,-4244,129705,51,19543,209,0,47303,0.0009999999999999974
21998,7928,2894,128356,-3875,2686,126481,64,19543,262,0,47304,0.0009980000000000024
23000,4701,5739,128666,-4183,3846,125261,65,19543,266,0,47305,0.0010019999999999994
24000,4802,5933,128313,-849,-1009,128073,58,19542,266,0,47306,0.0010000000000000009
24998,5619,-1273,127227,-1791,-3912,128419,56,19543,238,0,47307,0.0009979999999999989
25999,8420,952,126855,-2783,383,124238,56,19544,229,0,47308,0.0010009999999999984
27000,6500,4348,127612,98,1351,125632,59,19542,242,0,47309,0.0010010000000000019
28000,5560,4033,127891,-3205,588,127106,66,19543,270,0,47310,0.0009999999999999974
28998,3784,343,127825,-5075,-2194,129879,71,19543,291,1,47311,0.0009980000000000024
30000,6124,3300,128782,460,2266,127402,54,19546,291,1,47312,0.0010019999999999994
31000,8788,3646,127516,1611,980,125545,63,19553,221,1,47313,0.0010000000000000009
31998,7344,2838,128096,-3553,-1253,125280,63,19543,258,1,47314,0.0009979999999999989
32999,7651,-1296,127384,-1388,-4077,128568,67,19541,274,1,47315,0.0010010000000000019
33998,4172,92,127285,-1543,-626,128114,65,19544,266,1,47316,0.0009989999999999999
35000,5090,6052,128025,-5695,4208,125441,64,19548,262,1,47317,0.001001999999999996
36000,5222,8333,128388,-4698,4870,124720,60,19548,262,1,47318,0.0010000000000000009
37000,6108,1477,127389,1721,-3326,129062,63,19544,246,1,47319,0.0010000000000000009
37998,7229,-1794,127429,-1563,-4562,127553,63,19544,258,1,47320,0.0009979999999999989
39000,7011,-862,128001,-4094,-2315,127417,69,19543,283,1,47321,0.0010020000000000029
39998,4465,4399,128473,-2696,3154,125642,80,19539,328,0,47322,0.0009979999999999989
41000,1920,5081,127807,-5084,2041,127517,54,19545,221,0,47323,0.001001999999999996
41998,5624,3781,127254,-4591,1089,127155,64,19545,221,0,47324,0.0009980000000000058
43000,4792,2568,127492,-1807,-877,125760,64,19538,262,0,47325,0.001001999999999996
44000,7764,930,127893,701,-1593,126443,64,19546,262,0,47326,0.0010000000000000009
45000,8158,-445,128112,-1321,-3501,128709,63,19542,258,0,47327,0.0010000000000000009
45998,7327,2368,128134,-2350,982,127281,62,19543,254,0,47328,0.0009979999999999989
47000,4968,5976,127437,-3828,3253,125578,65,19545,266,0,47329,0.0010020000000000029
47998,3997,6190,127940,-3609,2866,125479,73,19545,266,0,47330,0.0009979999999999989
49000,5449,463,127422,-1845,-3575,128753,80,19540,299,1,47331,0.001001999999999996
50000,6086,-1767,127598,-2507,-4059,127150,80,19540,328,1,47332,0.0010000000000000009
51000,10473,3198,128079,1533,1088,125674,58,19540,238,1,47333,0.0010000000000000009
51999,8709,4535,127996,-2269,2111,125703,66,19544,270,1,47334,0.0009989999999999999
53001,4842,3441,127480,-2334,655,127742,65,19542,266,1,47335,0.0010020000000000029
54000,4631,995,127169,-2942,-1835,127750,62,19542,266,1,47336,0.0009989999999999999
55000,4766,2431,127851,-4164,1402,126155,61,19543,254,1,47337,0.0010000000000000009
55999,5910,4439,128652,-1839,-346,126538,61,19543,250,1,47338,0.0009989999999999999
56999,7797,-384,126587,-977,-813,126173,63,19544,258,1,47339,0.000999999999999994
58000,5658,6177,128271,4479,587,128397,68,19540,279,1,47340,0.0010010000000000019
58998,7568,-347,126290,-9917,-5,125640,77,19539,315,0,47341,0.0009979999999999989
60000,8954,8772,129774,6033,6809,124203,57,19539,233,0,47342,0.0010020000000000029
61000,5965,650,128617,47,-10109,133787,65,19544,233,0,47343,0.0010000000000000009
62000,3520,-6174,126594,-10572,-4873,125802,70,19541,266,0,47344,0.0010000000000000009
63000,3435,673,128381,704,862,128846,70,19540,287,0,47345,0.0010000000000000009
64000,5020,7626,126997,214,9244,121561,68,19545,279,0,47346,0.0010000000000000009
65000,7920,14177,128068,-11129,9278,121468,66,19543,270,0,47347,0.0010000000000000009
65998,9857,1903,128677,4978,-8528,133567,65,19543,266,0,47348,0.0009979999999999989
67000,7488,-7169,125811,5102,-7118,127974,69,19538,266,0,47349,0.001001999999999989
67998,6172,-1759,128725,-9743,-2948,128665,78,19540,283,0,47350,0.0009980000000000128
69000,5716,2402,129282,522,2221,126575,78,19537,319,0,47351,0.001001999999999989
69999,4041,6334,127731,-2770,2684,126642,88,19535,360,1,47352,0.0009989999999999999
71009,3590,6449,127769,-9333,6152,124302,51,19540,209,1,47353,0.0010100000000000109
72000,9072,6530,127455,5747,-1111,126456,67,19540,274,1,47354,0.0009909999999999919
73000,6575,-2505,126526,-328,-4618,127643,70,19541,274,1,47355,0.0010000000000000009
73999,8281,-1335,128120,-2271,-3818,129119,69,19540,287,1,47356,0.0009989999999999999
74998,6745,1354,128618,-287,646,128881,69,19544,283,1,47357,0.0009989999999999999
76000,6586,5897,127959,-4234,4751,123073,66,19545,270,1,47358,0.0010020000000000029
76999,4996,7530,128383,-4448,2932,125554,66,19541,270,1,47359,0.0009989999999999999
78000,5611,36,126721,4,-5311,129264,71,19536,291,1,47360,0.0010010000000000019
78998,6097,-1039,126981,-4313,-1491,125750,83,19536,291,1,47361,0.0009979999999999989
79999,5580,3250,128940,-1773,427,128730,69,19534,340,0,47362,0.0010010000000000019
80998,6986,5896,127171,-1,3369,124803,69,19546,283,0,47363,0.0009989999999999999
81998,7025,4301,128409,-4292,-1477,128586,69,19543,283,0,47364,0.0010000000000000009
82998,7318,-2147,127171,1092,-3238,128001,68,19536,279,0,47365,0.0010000000000000009
83998,5219,2654,126786,-561,139,125027,68,19540,279,0,47366,0.000999999999999987
84998,6050,5001,128877,-6919,2945,125713,66,19540,279,0,47367,0.0010000000000000009
86000,8409,4722,128557,381,949,126389,69,19545,270,0,47368,0.0010020000000000029
86999,4678,-25,127002,745,-2728,130578,69,19544,283,0,47369,0.0009989999999999999
87998,5735,2826,128155,-4916,66,125680,74,19538,303,0,47370,0.0009989999999999999
88998,7100,1071,127046,-1040,-532,126444,80,19536,328,1,47371,0.0010000000000000009
90001,7520,4954,128528,373,2149,126802,64,19547,262,1,47372,0.0010030000000000039
90998,12351,3348,128146,-1742,37,125668,66,19547,262,1,47373,0.0009969999999999979
91998,6314,1279,127897,-1764,-2277,128781,72,19544,270,1,47374,0.0010000000000000009
92998,3326,-651,126936,1270,-3300,127879,72,19541,295,1,47375,0.0010000000000000009
93998,3213,2950,127715,-7681,958,126152,70,19544,287,1,47376,0.0010000000000000009
94998,7012,5169,128453,-3637,3165,127501,65,19541,266,1,47377,0.0010000000000000009
95998,9076,6152,128112,1993,3200,124386,67,19543,274,1,47378,0.0010000000000000009
97003,8075,759,127145,-595,-2020,126778,68,19543,274,1,47379,0.001004999999999992
97998,6153,-501,127376,-1842,-3587,128250,76,19538,279,1,47380,0.0009950000000000098
98998,5130,-864,127310,-2785,-3029,128054,76,19539,311,1,47381,0.000999999999999987
99998,4234,5698,129034,-5867,3394,126010,85,19534,348,0,47382,0.0010000000000000009
100999,2694,5558,128432,-5549,2296,126816,94,19544,385,0,47383,0.0010010000000000019
102000,9071,2668,127496,-270,-2633,127277,65,19539,266,0,47384,0.0010010000000000019
103000,8066,-1250,126663,919,-3292,126854,70,19539,287,0,47385,0.0010000000000000009
104001,7602,777,127024,-289,469,126100,70,19541,287,0,47386,0.0010010000000000019
104999,6674,4593,128256,-2417,2923,126819,70,19543,287,0,47387,0.0009979999999999989
105998,5070,5680,128982,-5305,1971,127410,68,19542,279,0,47388,0.0009989999999999999
106998,5757,3348,128256,491,-1001,127621,67,19539,274,0,47389,0.0010000000000000009
107998,5918,-212,127219,196,-4010,127847,71,19539,291,0,47390,0.0010000000000000009
108998,6649,-355,127200,-2255,-1907,126444,79,19539,324,0,47391,0.0010000000000000009
109998,7860,2394,127620,-2876,1885,126201,92,19533,324,1,47392,0.0010000000000000009
110998,6211,6444,128509,-960,3427,126251,63,19539,377,1,47393,0.0010000000000000009
111998,8860,3900,128458,-959,-262,127256,63,19540,258,1,47394,0.0010000000000000009
112998,5305,565,127482,-634,-3693,128329,64,19542,262,1,47395,0.0010000000000000009
113998,6164,-1637,126874,-560,-2765,127023,64,19542,262,1,47396,0.000999999999999987
114998,5954,2106,127561,-3890,409,127171,61,19542,250,1,47397,0.0010000000000000009
115998,7892,5304,128555,-1877,4563,124857,62,19541,250,1,47398,0.0010000000000000009
116998,7313,5769,127714,-1898,1965,125644,66,19540,254,1,47399,0.0010000000000000009
117998,4540,3086,127460,-3020,-1404,127769,66,19538,270,1,47400,0.0010000000000000009
118998,4918,-198,127400,-1989,-3135,127863,71,19546,291,0,47401,0.0010000000000000009
119998,9276,-542,127369,-282,-2161,127872,61,19542,250,0,47402,0.0010000000000000009
120998,8648,4532,129137,-1755,1934,126171,67,19542,274,0,47403,0.0010000000000000009
121998,5061,2722,127709,-2018,-349,126268,71,19544,274,0,47404,0.0010000000000000009
122999,4832,2099,127668,-4189,-1351,128139,66,19542,291,0,47405,0.0010010000000000019
123998,4511,2714,127648,-4204,947,126355,66,19542,270,0,47406,0.0009989999999999999
125000,6873,4295,127372,81,2224,125782,62,19542,254,0,47407,0.0010020000000000029
126001,7292,3836,128318,-1416,-20,127287,65,19543,266,0,47408,0.0010010000000000019
126998,6613,182,127873,-986,-3649,128031,70,19543,287,0,47409,0.0009969999999999979
127998,6399,-1050,127608,-1330,-2107,128514,74,19543,287,0,47410,0.0010000000000000009
128998,5881,3374,128603,-3733,762,126979,81,19539,303,0,47411,0.0010000000000000009
129998,5591,5848,128373,-4119,4244,124900,81,19539,332,1,47412,0.0010000000000000009
130998,5156,4208,127837,-3168,323,127032,91,19541,373,1,47413,0.0010000000000000009
131998,8311,618,127458,-46,-3249,127850,61,19543,250,1,47414,0.0010000000000000009
133000,8668,-861,127121,-31,-2621,126696,64,19540,262,1,47415,0.0010020000000000029
133998,7024,269,127548,-408,-1481,127013,63,19540,262,1,47416,0.0009979999999999989
134998,5851,6152,129048,-4082,2182,127167,61,19545,258,1,47417,0.0010000000000000009
135998,5280,3079,128462,-3468,1482,128114,61,19546,250,1,47418,0.0009999999999999731
136998,6006,4561,127342,-1514,1051,126544,58,19542,238,1,47419,0.0010000000000000009
137998,5287,3589,127114,-2570,662,124344,65,19539,266,1,47420,0.0010000000000000009
138999,5962,1132,127661,-1237,-1978,126390,72,19544,295,0,47421,0.0010010000000000019
139998,7201,-2693,126202,-391,-6376,130408,61,19544,295,0,47422,0.0009989999999999999
140998,7159,3998,128691,-2410,2624,125963,65,19543,250,0,47423,0.0010000000000000009
141998,5449,6025,128470,-3936,3297,126093,65,19548,266,0,47424,0.0010000000000000009
142999,4846,5122,128047,-1491,1386,126155,62,19544,254,0,47425,0.0010010000000000019
144000,6312,-1352,127015,-2242,-4471,127131,59,19546,242,0,47426,0.0010010000000000019
144998,8328,1794,127115,-1946,8,124268,57,19547,233,0,47427,0.0009979999999999989
145998,6083,3598,127724,259,616,126880,62,19547,233,0,47428,0.0010000000000000009
146998,4975,3316,128163,-3270,434,128144,69,19544,254,0,47429,0.0010000000000000009
147998,4674,14,127633,-4665,-312,129455,69,19540,283,1,47430,0.0010000000000000009
148998,6497,4715,128785,221,2247,126041,59,19548,242,1,47431,0.0010000000000000009
149998,10070,3271,127492,473,668,124704,60,19544,246,1,47432,0.0010000000000000009
150998,7858,3682,128601,-2266,-1980,126516,67,19543,274,1,47433,0.0010000000000000009
151998,6794,-2417,127273,145,-6046,130491,69,19543,274,1,47434,0.0010000000000000009
152998,3962,-652,127400,-5070,1607,126927,64,19544,283,1,47435,0.0010000000000000009
153998,5056,7203,128579,-4070,4845,125469,64,19541,262,1,47436,0.0010000000000000009
154998,5567,8111,128278,-2077,3608,125288,61,19546,250,1,47437,0.0010000000000000009
155998,6161,2274,127505,-267,-3487,128532,60,19543,246,1,47438,0.0010000000000000009
156998,7802,-2600,127538,-1424,-5939,128302,64,19544,262,1,47439,0.0010000000000000009
157998,6850,-950,127744,-2235,-115,126082,73,19544,299,1,47440,0.0010000000000000009
158998,4079,4904,128716,-5231,2822,126645,84,19541,299,0,47441,0.0010000000000000009
159998,2394,4610,127794,-3539,1735,127219,62,19548,344,0,47442,0.0010000000000000009
160998,5063,3954,127066,-3612,424,126709,62,19542,254,0,47443,0.0010000000000000009
161998,5006,2393,127445,-2039,-1054,126078,63,19538,258,0,47444,0.0010000000000000009
162998,8014,1196,127904,1042,-2077,126858,65,19545,266,0,47445,0.0010000000000000009
163998,7911,-643,128062,-1630,-2582,128902,62,19545,254,0,47446,0.0010000000000000009
165000,7270,3111,128256,-3426,1832,126561,61,19541,254,0,47447,0.0010019999999999751
166000,5148,5719,127602,-3215,3489,125728,67,19540,250,0,47448,0.0010000000000000009
166998,3732,5520,127611,-3621,971,126123,67,19543,274,0,47449,0.0009979999999999989
167998,5333,117,127329,-3218,-4294,128632,74,19537,303,1,47450,0.0010000000000000009
168998,6562,-812,127824,-624,-2088,127795,72,19544,295,1,47451,0.0010000000000000009
169998,9975,3423,128366,1653,2257,125781,62,19543,254,1,47452,0.0010000000000000009
170998,8151,4334,127829,-5707,1574,125797,66,19543,254,1,47453,0.0010000000000000009
171999,5123,3097,127449,-470,-728,127635,65,19541,270,1,47454,0.0010010000000000019
172999,4797,-496,126603,-1164,-3955,128780,65,19543,266,1,47455,0.0010000000000000009
173998,4864,3079,127434,-4854,4114,122693,63,19546,258,1,47456,0.0009989999999999999
174998,8081,6125,128394,-2899,276,127971,63,19544,258,1,47457,0.0010000000000000009
175998,7179,2303,127473,5007,1844,125666,66,19542,270,1,47458,0.0010000000000000009
176998,5456,3679,128282,-4785,-2703,128859,73,19542,270,1,47459,0.0010000000000000009
177998,6270,-1971,127216,-8238,-2200,126791,74,19540,299,0,47460,0.0010000000000000009
178998,5291,5938,129469,6385,2758,126027,74,19547,303,0,47461,0.0010000000000000009
179998,7419,-1219,127239,-1933,-4650,131393,62,19544,254,0,47462,0.0010000000000000009
181000,3044,3113,127587,-10034,2253,122400,69,19541,283,0,47463,0.0010020000000000029
181998,5505,4624,128292,-439,1300,128306,69,19542,283,0,47464,0.0009979999999999989
182998,4651,4443,127178,1891,2314,125259,67,19542,283,0,47465,0.0010000000000000009
183998,6971,4421,128200,-7403,1057,125715,66,19540,274,0,47466,0.0010000000000000009
184998,8398,334,128010,-3274,-2546,129353,66,19544,270,0,47467,0.0010000000000000009
185998,7990,495,127772,7383,-1965,127239,68,19539,279,0,47468,0.0010000000000000009
186999,6375,-220,128073,-4953,-2656,128601,72,19542,295,0,47469,0.0010010000000000019
187998,5165,1850,128206,-6743,-502,126534,80,19535,328,0,47470,0.0009989999999999999
188998,4821,5292,128305,-1728,2965,126559,91,19535,328,1,47471,0.0010000000000000009
189998,4213,5844,128082,-2017,3299,125003,64,19542,373,1,47472,0.0010000000000000009
190998,7881,4359,127952,-806,843,128188,64,19541,262,1,47473,0.0010000000000000009
191998,7125,-2172,127144,-3302,-5085,128139,69,19544,283,1,47474,0.0010000000000000009
192998,7617,-737,127696,3248,-2937,128294,70,19545,287,1,47475,0.0010000000000000009
193998,5428,3586,128603,-590,1212,126631,68,19545,279,1,47476,0.0010000000000000009
194998,7342,5721,128031,-10241,5297,122736,65,19545,279,1,47477,0.0010000000000000009
195998,5509,6199,128506,-198,-1240,129800,67,19544,266,1,47478,0.0009999999999999731
196998,4536,-1240,126742,2439,-4540,127262,67,19540,274,1,47479,0.0010000000000000009
198000,5391,14,127023,-8930,-654,125755,76,19536,311,1,47480,0.0010020000000000029
198998,5886,2869,128511,-2350,1086,128490,87,19541,356,0,47481,0.0009979999999999989
199998,8437,6404,127216,-1315,3519,124662,64,19542,262,0,47482,0.0010000000000000009
200998,7677,3461,127936,-6698,-1426,128557,69,19542,283,0,47483,0.0010000000000000009
201998,6914,437,127674,3963,-3189,127193,66,19545,283,0,47484,0.0010000000000000009
202998,5152,-514,126355,-2539,-1159,126262,66,19541,270,0,47485,0.0010000000000000009
203998,5420,5108,129048,-6652,2959,126469,66,19538,270,0,47486,0.0010000000000000009
204998,7856,4597,128196,1571,1070,126546,65,19546,266,0,47487,0.0010000000000000009
205998,4904,2700,127043,-1125,36,127807,70,19538,287,0,47488,0.0010000000000000009
206998,6407,2018,127960,-3220,-1404,126728,75,19538,307,0,47489,0.0010000000000000009
207998,7517,1410,127257,58,-116,126155,85,19536,307,1,47490,0.0010000000000000009
208998,7524,2948,128118,-220,798,127773,60,19540,348,1,47491,0.0010000000000000009
209999,11616,3351,128338,-367,11,126427,60,19541,246,1,47492,0.0010010000000000019
210998,5808,1245,127783,-276,-1731,128376,66,19536,270,1,47493,0.0009989999999999999
211998,2947,258,126742,-1871,-2054,127070,73,19542,299,1,47494,0.0010000000000000009
212998,4147,2981,127396,-8019,2486,125392,69,19542,283,1,47495,0.0010000000000000009
213998,8289,6701,128385,-221,4790,125953,68,19544,283,1,47496,0.0010000000000000009
214998,9391,5374,127920,1937,867,126166,68,19539,279,1,47497,0.0010000000000000009
215998,8024,-192,127369,-1473,-4146,128196,68,19541,279,1,47498,0.0010000000000000009
216998,5423,-2126,127296,-1927,-4715,128240,73,19535,299,1,47499,0.0010000000000000009
217998,4484,1160,127755,-3130,-34,127606,79,19537,324,1,47500,0.0010000000000000009
218998,4315,6337,128905,-6567,4173,125807,87,19532,356,0,47501,0.0010000000000000009
219998,3135,5833,128315,-4648,1933,126487,51,19532,356,0,47502,0.0010000000000000009
220998,9324,2143,126975,2273,-1309,127008,67,19545,209,0,47503,0.0010000000000000009
221998,8436,-342,127049,-349,-3484,127275,67,19540,274,0,47504,0.0010000000000000009
222998,7507,-274,127178,1485,-1825,127038,71,19539,291,0,47505,0.0010000000000000009
223998,6541,3582,128386,-5272,1853,126990,71,19539,291,0,47506,0.0010000000000000009
224998,5600,6444,129209,-5751,3724,126865,66,19541,270,0,47507,0.0010000000000000009
225998,6259,4112,128225,1264,356,127328,66,19541,270,0,47508,0.0009999999999999731
226998,6124,25,127149,-631,-3514,127531,73,19536,270,0,47509,0.0010000000000000009
227998,7079,-611,127317,-1784,-3114,127041,73,19537,299,0,47510,0.0010000000000000009
228998,8052,2468,127775,-1138,594,126650,83,19534,340,1,47511,0.0010000000000000009
229998,5937,5714,128716,-2898,2819,126493,70,19539,287,1,47512,0.0010000000000000009
230998,8501,4239,128571,-1506,1917,126301,65,19542,266,1,47513,0.0010000000000000009
232000,5583,551,127232,-954,-2683,128207,65,19542,266,1,47514,0.0010020000000000029
232998,6771,-1057,126845,987,-3498,127181,63,19537,266,1,47515,0.0009979999999999989
234000,6023,1735,127615,-3871,-469,127073,63,19544,258,1,47516,0.0010020000000000029
234998,8499,5547,128828,-2310,3704,125598,62,19545,254,1,47517,0.0009979999999999989
235998,6785,4382,127584,-954,1256,126411,62,19542,254,1,47518,0.0010000000000000009
236998,4473,3484,127697,-2563,225,127829,69,19543,283,0,47519,0.0010000000000000009
237998,4652,411,127171,-2473,-2488,127397,60,19543,283,0,47520,0.0010000000000000009
238998,9588,875,127227,-572,-2017,127121,65,19547,246,0,47521,0.0010000000000000009
239998,8801,3720,128829,-251,1368,126662,65,19539,266,0,47522,0.0010000000000000009
240998,5587,2283,127753,-2176,-449,126179,71,19544,291,0,47523,0.0010000000000000009
242001,4067,1439,127802,-3818,-1775,128719,69,19540,283,0,47524,0.0010030000000000039
242998,4749,2361,127960,-3968,931,126453,64,19543,262,0,47525,0.0009969999999999979
243998,6727,4400,127534,-1351,3335,125014,63,19543,262,0,47526,0.0010000000000000009
244998,7864,4697,128207,-1046,-1309,127660,65,19544,258,0,47527,0.0010000000000000009
245998,6824,-14,127682,-2179,-3738,127996,65,19547,266,0,47528,0.0010000000000000009
246999,7084,-1289,127625,-1268,-1899,128415,71,19539,291,0,47529,0.0010010000000000019
247998,5360,3160,128500,-3629,1795,126771,78,19539,319,0,47530,0.0009989999999999999
248998,5005,6376,128755,-4687,3032,125722,88,19533,360,1,47531,0.0010000000000000009
249998,4365,3520,127809,-3033,303,126809,69,19533,283,1,47532,0.0010000000000000009
250998,8550,1346,127359,1155,-4197,127875,62,19541,283,1,47533,0.0010000000000000009
251998,8358,-720,126977,-802,-1340,126203,63,19541,254,1,47534,0.0010000000000000009
252999,7367,327,127275,-1191,-460,126606,63,19542,258,1,47535,0.0010009999999999741
253998,5399,5226,128972,-4355,602,128576,64,19542,262,1,47536,0.0009990000000000276
254998,5124,3647,128811,-3247,2873,127432,59,19546,242,1,47537,0.0010000000000000009
255998,5354,3783,127354,-1765,263,125930,58,19546,238,1,47538,0.0010000000000000009
256999,5331,4267,127362,-2429,8,124555,66,19542,238,1,47539,0.0010009999999999741
257998,6145,1311,127322,-1655,-2563,126823,56,19542,270,0,47540,0.0009990000000000276
258998,7882,-1979,126124,-743,-4574,130010,56,19545,229,0,47541,0.0010000000000000009
259998,6525,3559,128496,-4015,2582,126245,64,19540,262,0,47542,0.0010000000000000009
260998,5191,5887,128653,-3638,3609,125542,67,19543,274,0,47543,0.0010000000000000009
261999,4128,5028,128313,-1166,-600,127992,62,19546,254,0,47544,0.0010009999999999741
263000,6110,-1183,127091,-2643,-3977,128414,57,19546,254,0,47545,0.0010010000000000296
263998,8289,1976,127182,-2088,1195,123891,58,19544,233,0,47546,0.0009979999999999989
264998,6658,3931,127541,96,589,126299,58,19544,238,0,47547,0.0010000000000000009
265998,5277,2797,127995,-3440,-577,127294,65,19541,266,0,47548,0.0010000000000000009
266999,4195,-226,127736,-5253,-1895,129932,72,19544,295,1,47549,0.0010009999999999741
267998,6385,4838,129066,1737,3598,126778,55,19548,225,1,47550,0.0009990000000000276
268998,9159,3502,127385,-50,346,125878,65,19548,225,1,47551,0.0010000000000000009
269999,7397,3535,128431,-2645,-46,124520,66,19544,266,1,47552,0.0010009999999999741
270998,6524,-1822,127361,-170,-5669,129909,66,19542,270,1,47553,0.0009989999999999721
272000,3985,-489,127247,-2817,-828,128106,66,19544,270,1,47554,0.0010020000000000029
272998,4609,7232,128705,-5980,4731,125560,62,19540,254,1,47555,0.0009979999999999989
273998,5577,7316,128167,-3351,4669,125175,62,19546,254,1,47556,0.0010000000000000009
274998,6300,2052,127392,791,-2025,128094,62,19546,254,1,47557,0.0010000000000000009
275998,8039,-3587,127335,-2012,-6259,128517,68,19542,254,1,47558,0.0010000000000000009
276998,7693,7,127868,-2570,-1257,125814,68,19537,279,1,47559,0.0010000000000000009
277998,4124,5032,128426,-2684,2452,126589,80,19537,328,0,47560,0.0010000000000000009
278998,2306,4957,127818,-5720,2366,127117,55,19541,225,0,47561,0.0010000000000000009
279998,4689,3831,127393,-3932,730,127316,62,19541,254,0,47562,0.0010000000000000009
280998,4473,2189,127438,-1420,-687,126041,66,19541,254,0,47563,0.0010000000000000009
281998,8084,1380,127790,-187,-1640,125990,63,19545,270,0,47564,0.0010000000000000009
282998,8065,-652,128218,-1187,-3228,128729,63,19544,258,0,47565,0.0010000000000000009
283998,7333,3376,128038,-1980,1005,125799,62,19540,254,0,47566,0.0010000000000000009
284998,5015,6402,127682,-4434,3857,125555,64,19550,262,0,47567,0.0010000000000000009
285998,3573,5014,127673,-3031,1708,127012,68,19542,279,0,47568,0.0010000000000000009
286998,5019,-776,127142,-1697,-3906,128975,80,19542,279,1,47569,0.0010000000000000009
287998,6793,-837,128019,-3378,-3267,127056,53,19542,328,1,47570,0.0010000000000000009
288998,10790,3717,128694,1802,2911,125049,53,19547,217,1,47571,0.0010000000000000009
289998,7960,4440,127672,-2224,775,126216,65,19542,266,1,47572,0.0010000000000000009
290998,4607,2949,127347,-3349,-1277,127875,67,19541,274,1,47573,0.0010000000000000009
292000,4010,365,127060,-2609,-1715,128533,65,19543,266,1,47574,0.0010020000000000029
292998,5120,3728,128267,-3398,2840,124881,62,19543,254,1,47575,0.0009979999999999989
294001,8152,3317,127785,-134,-2774,127030,65,19546,254,1,47576,0.0010030000000000316
294998,5584,3706,128057,2235,4226,124244,69,19542,266,1,47577,0.0009969999999999701
295998,9505,536,126694,-4937,-6971,132160,69,19539,283,1,47578,0.0010000000000000009
297000,7102,2179,127742,-2072,8658,120924,75,19535,307,0,47579,0.0010020000000000029
297998,4999,8529,130116,138,-2893,130256,50,19546,205,0,47580,0.0009979999999999989
298999,6875,-3562,127036,-3892,-4530,128210,66,19546,270,0,47581,0.0010009999999999741
299998,1250,-1241,128298,-2594,-6306,130034,70,19541,270,0,47582,0.0009990000000000276
300998,6267,-632,126690,-2547,3590,124937,68,19542,287,0,47583,0.0010000000000000009
301998,4542,13663,128013,-4119,11760,120249,68,19545,279,0,47584,0.0010000000000000009
302998,9773,8770,129233,-2641,1333,128433,67,19543,274,0,47585,0.0010000000000000009
303998,7577,-2882,126260,2547,-7274,129233,64,19545,262,0,47586,0.0010000000000000009
304999,5983,-2963,128377,-1577,-4721,129763,69,19545,283,0,47587,0.0010009999999999741
305998,7470,-2550,128040,-2869,-3356,127645,77,19541,283,0,47588,0.0009990000000000276
306998,4932,4845,128908,390,3448,125849,87,19532,315,0,47589,0.0010000000000000009
308000,5024,5204,128187,-10365,2423,127276,87,19536,356,1,47590,0.0010020000000000029
308999,6149,7374,127645,-378,5396,123284,56,19546,229,1,47591,0.0009989999999999721
309998,7018,3989,127667,3778,-2647,128923,67,19540,274,1,47592,0.0009990000000000276
310998,7426,-1821,127308,-4730,-4105,126064,70,19542,287,1,47593,0.0010000000000000009
311998,6960,-1668,127772,1186,-4203,131382,70,19542,287,1,47594,0.0010000000000000009
312998,6410,2668,128606,-310,1419,127218,67,19539,287,1,47595,0.0010000000000000009
313998,5552,7855,127742,-7687,6666,121110,67,19545,274,1,47596,0.0010000000000000009
315001,6490,6074,128141,-1707,318,128776,65,19540,266,1,47597,0.0010029999999999761
316000,4571,-1859,126147,174,-4837,127140,73,19543,299,1,47598,0.0009990000000000276
316998,6429,65,127770,-5609,-1428,127078,82,19539,336,1,47599,0.0009979999999999989
317999,4710,2931,128357,-1348,754,128119,69,19539,336,0,47600,0.0010009999999999741
318998,8780,6894,127575,-111,3750,124582,66,19542,283,0,47601,0.0009990000000000276
319998,6931,1346,127684,-4626,-2650,129650,66,19539,270,0,47602,0.0010000000000000009
320998,7777,1123,126943,1693,-962,125660,68,19545,279,0,47603,0.0010000000000000009
321998,4938,1637,126752,-1833,-1077,126737,67,19542,274,0,47604,0.0010000000000000009
322998,6675,5090,129142,-5923,2952,125059,66,19536,270,0,47605,0.0010000000000000009
323998,6767,3640,128173,402,102,127923,66,19536,270,0,47606,0.0010000000000000009
324998,5204,1276,127287,-705,-1058,128765,72,19542,270,0,47607,0.0010000000000000009
325998,5808,2031,127588,-2883,-897,126254,72,19536,295,0,47608,0.0010000000000000009
326999,8000,1930,127251,-962,188,126178,79,19536,324,1,47609,0.0010009999999999741
327998,7614,4891,128220,-885,2086,126096,68,19546,279,1,47610,0.0009990000000000276
328998,11872,3051,128242,-649,-285,126560,65,19543,266,1,47611,0.0010000000000000009
329998,4753,173,127580,-1035,-3236,129221,71,19543,266,1,47612,0.0009999999999999454
330998,3027,196,126825,-354,-2287,126662,70,19541,291,1,47613,0.0010000000000000009
331998,3998,3701,127700,-7925,1307,126766,70,19541,287,1,47614,0.0010000000000000009
332998,8365,6035,128216,-1445,3689,124415,67,19542,274,1,47615,0.0010000000000000009
333998,8865,5785,127882,1219,2947,127277,66,19537,270,1,47616,0.0010000000000000009
334998,8438,-134,127537,-1084,-2950,126938,69,19544,283,1,47617,0.0010000000000000009
335998,5611,-1476,127487,-1354,-4758,128991,76,19544,311,1,47618,0.0010000000000000009
336998,4547,-160,127917,-2936,1114,127829,85,19540,311,1,47619,0.0010000000000000009
337998,4402,6613,129082,-6543,3613,125849,93,19540,348,0,47620,0.0010000000000000009
338998,3096,4756,128329,-5463,1508,126849,93,19544,381,0,47621,0.0010000000000000009
339998,9531,2533,127156,3279,-2315,127053,65,19540,266,0,47622,0.0010000000000000009
340998,7649,-1309,126767,-1067,-3344,126890,69,19543,283,0,47623,0.0010000000000000009
342000,7169,1133,127307,-1374,737,126424,71,19543,291,0,47624,0.0010020000000000029
342999,6602,4796,128606,-4230,2583,127483,67,19537,291,0,47625,0.0009990000000000276
343999,5292,5565,128887,-4343,2283,127243,64,19542,274,0,47626,0.0010000000000000009
345000,6142,2831,127971,-89,-2083,127739,64,19545,262,0,47627,0.0010009999999999741
345998,6532,-852,127017,-295,-3396,127265,70,19542,287,0,47628,0.0009979999999999989
346998,7170,241,127369,-1489,-1819,126768,78,19536,319,0,47629,0.0010000000000000009
347998,6951,2919,127816,-2843,2720,126095,92,19536,377,1,47630,0.0010000000000000009
348998,6468,6891,128507,-1465,3259,126222,63,19539,377,1,47631,0.0010000000000000009
350001,8283,3439,128524,-636,-258,127173,64,19539,258,1,47632,0.0010030000000000316
350999,5704,316,127473,-160,-4199,128172,64,19543,262,1,47633,0.0009979999999999989
351998,6683,-2003,126953,-445,-3020,126992,63,19542,258,1,47634,0.0009989999999999721
352999,5880,2140,127937,-4116,-73,127301,61,19541,250,1,47635,0.0010010000000000296
353999,7570,6211,128497,-2330,5526,124367,62,19543,254,1,47636,0.0010000000000000009
354998,5830,5962,127687,-2973,1729,126117,65,19543,254,1,47637,0.0009989999999999721
355998,5220,2781,127421,-2136,-892,127258,69,19538,266,0,47638,0.0010000000000000009
356998,4948,-204,127147,-1940,-3336,127838,69,19542,283,0,47639,0.0010000000000000009
358000,10754,-525,127225,936,-2011,127536,60,19543,246,0,47640,0.0010020000000000029
358999,7992,4784,128729,-2149,1542,126008,67,19540,274,0,47641,0.0009989999999999721
359998,5114,2040,127653,-2625,-186,126325,71,19541,291,0,47642,0.0009990000000000276
360998,3672,2218,127548,-3557,-1676,128519,65,19541,291,0,47643,0.0010000000000000009
361998,4930,2403,127649,-4071,698,126586,63,19542,266,0,47644,0.0010000000000000009
362998,6478,4519,127333,-1185,2791,124785,63,19543,258,0,47645,0.0010000000000000009
363999,8039,4234,128185,-787,123,127081,66,19542,270,0,47646,0.0010009999999999741
364998,6986,38,127966,-66,-3248,128098,68,19544,279,0,47647,0.0009990000000000276
365998,6456,-1281,127659,-2212,-2836,128618,75,19539,307,0,47648,0.0010000000000000009
366998,5746,3056,128473,-4182,732,127310,80,19539,307,0,47649,0.0010000000000000009
367998,5189,6487,128868,-3199,3964,124874,91,19536,328,1,47650,0.0010000000000000009
368998,4859,2982,127737,-3301,-50,127505,91,19532,373,1,47651,0.0010000000000000009
369998,8874,760,127390,-769,-3261,127432,55,19539,225,1,47652,0.0010000000000000009
370998,8266,-513,127055,394,-2315,126678,65,19544,266,1,47653,0.0010000000000000009
371998,7018,1448,127707,-586,-871,127126,66,19541,270,1,47654,0.0010000000000000009
372999,5474,5264,128632,-4428,1613,127399,62,19541,270,1,47655,0.0010009999999999741
373998,5101,4298,128729,-3444,2315,128041,61,19544,254,1,47656,0.0009990000000000276
374998,6038,2827,127232,-1673,-344,127184,61,19547,250,1,47657,0.0010000000000000009
375998,5535,3803,127438,-2071,1032,123916,61,19546,250,1,47658,0.0010000000000000009
376998,5923,260,127440,-1403,-2510,126500,69,19544,283,0,47659,0.0010000000000000009
377998,7995,-2093,126321,-1022,-5431,128016,60,19544,246,0,47660,0.0010000000000000009
378998,6531,5038,128706,-2335,2558,126589,65,19544,266,0,47661,0.0010000000000000009
379998,5126,6702,128736,-3952,3941,124694,62,19545,266,0,47662,0.0010000000000000009
380999,4908,4027,127650,-2003,-2937,129074,57,19542,254,0,47663,0.0010009999999999741
381998,6631,-1713,127227,-1608,-3584,127654,57,19546,233,0,47664,0.0009990000000000276
382999,8191,1713,127325,-1506,1561,123989,58,19543,238,0,47665,0.0010009999999999741
383998,5806,3950,127829,-719,991,126642,61,19547,250,0,47666,0.0009990000000000276
384998,4964,3620,128288,-3380,-1476,128404,68,19547,279,0,47667,0.0010000000000000009
385998,4587,418,127663,-3109,-176,129103,63,19543,279,1,47668,0.0010000000000000009
386998,7952,4553,128768,1011,1736,126403,60,19551,258,1,47669,0.0010000000000000009
387998,9588,3126,127671,-2216,873,124500,60,19546,246,1,47670,0.0010000000000000009
388999,7867,2852,128348,59,-2472,126766,65,19538,266,1,47671,0.0010009999999999741
390000,6434,-2432,127181,-1245,-5661,130169,67,19540,274,1,47672,0.0010009999999999741
391000,3596,1002,127503,-5173,2386,126486,64,19540,262,1,47673,0.0010000000000000009
391998,4369,7580,128455,-4515,4801,125322,59,19550,262,1,47674,0.0009979999999999989
392998,5779,7672,128025,-1385,3176,125649,59,19545,242,1,47675,0.0010000000000000009
393998,6438,889,127530,-66,-4341,128563,59,19545,242,1,47676,0.0010000000000000009
394998,7722,-3223,127276,-2169,-5308,127817,65,19539,266,1,47677,0.0010000000000000009
395999,7306,198,127990,-2115,222,126110,73,19539,299,1,47678,0.0010010000000000296
397001,4412,5431,128456,-4905,3454,126084,81,19539,332,0,47679,0.0010020000000000029
397998,2483,4472,127665,-4034,1206,127626,59,19544,332,0,47680,0.0009969999999999701
398998,5255,3576,127188,-4824,199,126529,64,19540,242,0,47681,0.0010000000000000009
399998,5263,2093,127625,-369,-1358,126166,64,19546,262,0,47682,0.0010000000000000009
400999,7806,1119,128282,944,-2413,127228,63,19543,258,0,47683,0.0010010000000000296
401998,7548,-762,127959,-2705,-2450,128569,62,19542,254,0,47684,0.0009989999999999721
402998,6993,4043,128385,-2715,1992,126721,63,19542,258,0,47685,0.0010000000000000009
403998,4891,6096,127446,-3169,4068,125266,68,19542,258,0,47686,0.0010000000000000009
404998,3349,5834,127845,-3864,953,126025,73,19544,279,0,47687,0.0010000000000000009
405998,5484,-1734,127250,-2598,-5343,129388,73,19539,299,1,47688,0.0010000000000000009
406998,6830,-711,127960,-539,-2148,127469,85,19548,348,1,47689,0.0010000000000000009
407998,10403,2933,128491,1626,1886,125780,60,19543,246,1,47690,0.0010000000000000009
408998,7818,3974,127038,-3434,1879,124757,67,19541,274,1,47691,0.0010000000000000009
409998,5993,4420,127283,-1701,475,127433,67,19541,274,1,47692,0.0010000000000000009
410998,4895,-370,126543,-2865,-2201,128564,65,19546,274,1,47693,0.0010000000000000009
411998,5171,6409,128959,-4366,3542,124711,65,19544,266,1,47694,0.0010000000000000009
412998,5971,1193,127968,-2224,-2716,128073,62,19546,254,1,47695,0.0010000000000000009
414000,6015,260,127316,850,-1953,126695,65,19541,266,1,47696,0.0010020000000000029
415000,6256,1466,127349,2268,-1360,129048,70,19540,287,1,47697,0.0010000000000000009
416001,7580,4616,126975,-10264,3854,123518,77,19540,287,0,47698,0.0010009999999999741
416998,10050,8479,129803,-628,6115,124260,63,19546,315,0,47699,0.0009970000000000256
417998,5423,-451,128394,7205,-4926,131180,63,19538,258,0,47700,0.0010000000000000009
418998,2634,-8032,126318,-8918,-10825,130232,70,19542,287,0,47701,0.0010000000000000009
419998,2970,1717,128674,-6880,1035,126461,70,19540,287,0,47702,0.0010000000000000009
421000,4588,10490,127959,4505,8003,124291,66,19541,270,0,47703,0.0010020000000000029
421998,9170,11011,127920,-8439,8781,121537,67,19541,270,0,47704,0.0009979999999999989
422999,8582,1238,128169,-3061,-3268,130174,69,19541,274,0,47705,0.0010009999999999741
423998,8130,-6345,126383,7606,-8634,130319,69,19544,283,0,47706,0.0009990000000000276
424998,4959,-647,128573,-3913,-3086,127820,72,19540,295,0,47707,0.0010000000000000009
425998,5814,2939,129771,-6459,283,128089,83,19535,340,0,47708,0.0010000000000000009
426998,3635,4388,127440,-17,1822,126315,91,19544,373,1,47709,0.0010000000000000009
427998,5317,7675,128362,-7197,5768,123370,62,19544,254,1,47710,0.0010000000000000009
428998,8699,4962,127472,206,-3415,127489,67,19544,254,1,47711,0.0010000000000000009
429998,7528,-1829,126806,2039,-4302,127568,69,19537,274,1,47712,0.0010000000000000009
430998,7740,-2047,128315,-1509,-3122,130515,69,19540,283,1,47713,0.0010000000000000009
431998,6033,3002,128809,-1688,2912,126236,68,19540,279,1,47714,0.0010000000000000009
432998,5262,7752,128555,-3437,4090,124275,66,19539,270,1,47715,0.0010000000000000009
433998,4665,3987,127523,-1369,-423,126773,69,19539,283,1,47716,0.0010000000000000009
434998,5069,-136,126460,-2844,-4526,128579,76,19542,283,1,47717,0.0010000000000000009
435998,6839,51,127282,-3643,835,125165,85,19545,311,1,47718,0.0010000000000000009
436998,5294,4693,128770,-325,1480,127405,85,19536,348,0,47719,0.0010000000000000009
437998,9200,4055,127728,-2497,1166,126272,62,19541,254,0,47720,0.0010000000000000009
438998,6196,2197,127806,-3918,-3136,129219,66,19540,270,0,47721,0.0010000000000000009
439998,7418,-1501,126860,3740,-2334,127078,68,19540,279,0,47722,0.0010000000000000009
440998,5019,2989,126879,-5389,2010,124121,68,19541,279,0,47723,0.0010000000000000009
441998,7133,6628,128943,-5313,3645,125703,68,19538,279,0,47724,0.0010000000000000009
442998,7079,3936,128095,2747,-627,127890,68,19538,279,0,47725,0.0010000000000000009
444004,4914,-287,126958,-1145,-2288,128819,71,19537,291,0,47726,0.0010059999999999514
444998,5707,2448,128023,-4614,-912,126621,75,19538,307,0,47727,0.0009940000000000504
446001,7911,1526,127508,447,621,125936,82,19538,336,1,47728,0.0010029999999999761
447000,7666,4408,128580,583,1651,127674,56,19538,336,1,47729,0.0009989999999999721
448000,12046,2974,127865,-1322,50,126121,68,19545,229,1,47730,0.0010000000000000009
448998,5054,1265,127553,-624,-1890,127571,68,19535,279,1,47731,0.0009979999999999989
449998,3314,443,126939,-1146,-2152,127877,73,19546,299,1,47732,0.0010000000000000009
450998,3869,3265,127918,-7595,1603,126404,71,19539,291,1,47733,0.0010000000000000009
451998,8113,5772,128563,-1478,4047,126360,68,19542,279,1,47734,0.0010000000000000009
452999,8043,4975,127803,2014,426,126268,65,19542,279,1,47735,0.0010010000000000296
453998,9022,315,127378,-625,-2215,126700,70,19538,266,1,47736,0.0009989999999999721
454998,5502,-1435,127141,-2834,-4380,128274,70,19540,287,1,47737,0.0010000000000000009
455998,5003,1139,127908,-3307,5,127621,79,19536,324,1,47738,0.0010000000000000009
456999,4920,6452,129335,-5920,3532,126422,88,19532,360,0,47739,0.0010010000000000296
458001,2349,4960,128343,-4609,1430,126942,62,19544,254,0,47740,0.0010020000000000029
458999,8814,1022,126950,2210,-2764,127675,66,19544,254,0,47741,0.0009979999999999989
459998,8171,-1305,126899,-936,-3612,127133,69,19538,270,0,47742,0.0009989999999999721
460998,7355,1773,127199,1267,185,126120,69,19536,283,0,47743,0.0010000000000000009
461999,6566,5863,128498,-5110,3433,126309,69,19543,283,0,47744,0.0010010000000000296
462998,6169,5445,128995,-5960,2133,127697,66,19541,270,0,47745,0.0009989999999999721
463998,5185,2155,128048,1266,-1000,127909,67,19541,274,0,47746,0.0010000000000000009
464998,6674,-1146,127134,-177,-4021,127987,73,19541,274,0,47747,0.0010000000000000009
465998,7118,227,127473,-2050,-2287,126698,85,19540,299,0,47748,0.0010000000000000009
466998,7597,3469,127873,-2328,1377,125663,85,19532,348,1,47749,0.0010000000000000009
467998,6671,6815,128216,-2479,3580,126315,81,19539,332,1,47750,0.0010000000000000009
468998,8757,3718,128080,-989,1257,126318,63,19543,258,1,47751,0.0010000000000000009
469998,4286,20,127372,-888,-3091,128298,64,19544,262,1,47752,0.0010000000000000009
470998,6923,-1910,126883,178,-4362,126854,62,19544,254,1,47753,0.0010000000000000009
471999,5939,2207,127895,-3436,-296,127111,61,19543,254,1,47754,0.0010010000000000296
472998,8187,6330,128493,-2244,4218,124400,64,19543,250,1,47755,0.0009989999999999721
473998,6476,4909,127352,-1904,2263,125782,64,19541,262,1,47756,0.0010000000000000009
474998,5327,3204,127377,-2620,390,127929,69,19542,283,0,47757,0.0010000000000000009
475998,4573,-25,127077,-1619,-2918,128117,62,19544,254,0,47758,0.0010000000000000009
476999,9653,-442,127294,-1214,31,127270,64,19544,262,0,47759,0.0010009999999999741
477998,7731,4487,128958,-937,91,126791,70,19543,262,0,47760,0.0009990000000000276
478998,4589,2228,127620,-1696,607,125971,67,19541,287,0,47761,0.0010000000000000009
479999,4550,1363,127270,-3897,-1192,128123,67,19544,274,0,47762,0.0010009999999999741
480999,5945,3814,127805,-3854,1838,126136,66,19544,270,0,47763,0.0010000000000000009
481998,6607,4958,127726,685,2794,125147,63,19544,258,0,47764,0.0009990000000000276
482998,7900,2738,127952,-906,-2014,128094,65,19539,266,0,47765,0.0010000000000000009
484000,6326,-645,127973,-2543,-4923,129149,69,19539,266,0,47766,0.0010020000000000029
484999,6406,-873,127905,-1288,-228,127610,77,19540,283,0,47767,0.0009989999999999721
485998,6014,3746,128305,-3428,1985,126759,77,19539,315,0,47768,0.0009990000000000276
486998,5332,7212,128532,-4917,3108,125379,80,19533,328,1,47769,0.0010000000000000009
487998,4635,3241,127484,-2486,160,126866,83,19543,340,1,47770,0.0010000000000000009
488998,9420,-73,126869,1724,-4934,128417,63,19541,258,1,47771,0.0010000000000000009
489998,7698,-45,127509,-835,-2106,126824,64,19541,258,1,47772,0.0010000000000000009
490998,6836,461,127753,-1616,708,126261,62,19539,262,1,47773,0.0010000000000000009
491998,5520,4877,128604,-4441,447,129238,62,19543,254,1,47774,0.0010000000000000009
492998,5591,5026,128864,-2945,3374,126861,58,19543,238,1,47775,0.0010000000000000009
493998,5915,3248,127066,-1768,1104,125211,58,19546,238,1,47776,0.0010000000000000009
494998,5590,3711,127165,-2155,-426,125338,64,19537,262,1,47777,0.0010000000000000009
495998,6173,607,127838,-1473,-3623,127496,64,19537,262,0,47778,0.0010000000000000009
496998,7993,-2814,126387,-1272,-3901,129772,63,19551,262,0,47779,0.0010000000000000009
497998,6163,4560,128685,-4134,2337,126681,63,19543,258,0,47780,0.0010000000000000009
498998,4960,7138,128661,-2922,4649,124701,66,19544,270,0,47781,0.0010000000000000009
499998,4690,3531,127550,-1456,-1100,128195,62,19546,254,0,47782,0.0010000000000000009
500998,6661,-1673,126962,-2285,-4082,128309,56,19545,229,0,47783,0.0009999999999999454
501998,8092,3178,127463,-1863,1428,124155,58,19545,229,0,47784,0.0010000000000000009
502998,5978,3032,127753,228,350,126444,65,19544,238,0,47785,0.0010000000000000009
503998,4809,2431,128042,-4074,-1486,127943,65,19543,266,0,47786,0.0010000000000000009
505000,4953,403,127943,-4891,-1169,129244,72,19541,295,1,47787,0.0010020000000000584
505998,7456,5178,129029,2319,3520,126717,50,19542,205,1,47788,0.0009979999999999434
506998,9313,3274,127526,-1001,234,125443,61,19544,250,1,47789,0.0010000000000000009
507998,7512,3607,128601,-2308,-262,124853,68,19544,250,1,47790,0.0010000000000000009
508998,6252,-3010,127205,122,-6014,130522,66,19541,279,1,47791,0.0010000000000000009
509998,3243,706,127502,-3652,-688,127709,66,19540,270,1,47792,0.0010000000000000009
510998,4946,7733,128708,-5534,5078,125419,62,19545,254,1,47793,0.0010000000000000009
511998,5812,6935,127909,-2882,4330,124957,61,19548,250,1,47794,0.0010000000000000009
512998,6935,862,127439,447,-2580,127969,62,19550,254,1,47795,0.0010000000000000009
513998,8099,-2940,127452,-1848,-5607,128440,69,19550,254,1,47796,0.0010000000000000009
514998,7082,442,127998,-2126,-1547,126401,77,19543,283,1,47797,0.0010000000000000009
515998,3500,5249,128583,-3910,2425,126642,77,19543,315,0,47798,0.0010000000000000009
516998,3122,4638,127929,-5005,2130,127411,65,19543,266,0,47799,0.0010000000000000009
518000,4234,3524,127337,-3065,611,126363,63,19543,258,0,47800,0.0010020000000000584
519000,5550,2071,127427,-3166,-730,125837,66,19544,270,0,47801,0.0010000000000000009
519998,8394,1320,128173,1013,-1335,127851,65,19544,266,0,47802,0.0009979999999999434
520998,7657,-365,128125,-650,-2931,128120,63,19545,266,0,47803,0.0010000000000000009
521999,6469,3594,128042,-3472,2421,126257,62,19544,258,0,47804,0.0010010000000000296
522999,4855,5707,127706,-3735,2947,125964,62,19539,254,0,47805,0.0010000000000000009
523999,3592,4328,127567,-2539,-912,126665,68,19542,279,0,47806,0.0010000000000000009
524998,4871,-1008,127082,-3224,-4414,129054,75,19536,307,1,47807,0.0009989999999999721
525998,7511,380,128048,-2493,-257,126472,54,19536,221,1,47808,0.0010000000000000009
526998,9882,4321,128841,423,2556,125315,64,19545,221,1,47809,0.0010000000000000009
527998,7272,4376,127774,-4837,926,126218,67,19540,262,1,47810,0.0010000000000000009
528998,5036,2393,127509,-789,-2075,128619,67,19544,274,1,47811,0.0010000000000000009
530000,3659,-114,127204,-3496,-1650,128318,67,19542,274,1,47812,0.0010020000000000584
530998,6159,3323,127871,-4470,31,125846,60,19540,246,1,47813,0.0009979999999999434
531998,6489,2527,127143,2211,4332,122094,61,19541,250,1,47814,0.0010000000000000009
532998,9282,7724,128595,-1196,-1502,130964,66,19541,250,1,47815,0.0010000000000000009
533998,7008,-4924,125506,-840,-1310,126271,75,19540,270,1,47816,0.0010000000000000009
534999,5684,11751,130451,-7640,4451,124440,75,19540,307,0,47817,0.0010010000000000296
535998,6584,-4105,127697,3117,-5473,131302,58,19542,238,0,47818,0.0009989999999999721
536998,4188,3549,128544,60,-2704,126641,66,19541,270,0,47819,0.0010000000000000009
537999,3532,-7587,126780,-9987,-7437,132541,70,19539,287,0,47820,0.0010010000000000296
538999,6571,9744,127594,-9,12119,116818,69,19539,287,0,47821,0.0010000000000000009
539998,4207,11549,128440,-1756,5271,129175,66,19540,283,0,47822,0.0009989999999999721
540999,10686,4054,127807,-4499,-202,123912,66,19542,270,0,47823,0.0010010000000000296
541998,4943,-3312,126846,1232,-7078,131940,66,19545,270,0,47824,0.0009989999999999721
542998,9059,-3222,128499,-1082,-5406,129953,68,19538,279,0,47825,0.0010000000000000009
543998,4863,1670,128266,587,1138,124086,78,19536,319,0,47826,0.0010000000000000009
544998,5984,4007,128762,-5361,261,130015,83,19536,319,0,47827,0.0010000000000000009
546000,4442,5270,127286,-9271,3997,123235,64,19538,340,1,47828,0.0010019999999999474
546999,6886,8608,128689,4007,5194,125598,64,19543,262,1,47829,0.0009990000000000832
547998,7234,311,127285,375,-4191,129022,64,19540,262,1,47830,0.0009989999999999721
548998,7542,-996,127497,-6220,-3524,124783,69,19542,283,1,47831,0.0010000000000000009
549998,6931,-2265,128435,3928,-4366,133494,71,19541,291,1,47832,0.0010000000000000009
550998,5724,4423,127662,-203,3287,123773,68,19541,291,1,47833,0.0010000000000000009
551998,5792,8805,128518,-11366,5965,123161,66,19540,279,1,47834,0.0010000000000000009
552998,6292,4024,127825,1080,391,127510,66,19547,270,1,47835,0.0010000000000000009
553998,5282,-1805,126178,1279,-5456,128535,69,19539,283,1,47836,0.0010000000000000009
554998,5363,-281,128351,-7192,-2024,127319,81,19537,332,0,47837,0.0010000000000000009
555998,4930,4320,128194,-1855,1454,126556,81,19545,332,0,47838,0.0010000000000000009
556998,9209,4479,127644,699,2478,126817,66,19545,332,0,47839,0.0010000000000000009
557998,7478,2853,127712,-5036,-393,127304,69,19543,270,0,47840,0.0010000000000000009
558998,7482,867,126898,1713,-1522,126254,69,19546,283,0,47841,0.0010000000000000009
559998,5494,1161,126916,-2208,-1438,126406,65,19539,266,0,47842,0.0010000000000000009
561005,7009,4735,129317,-4851,1915,126155,65,19543,266,0,47843,0.0010069999999999801
561999,6753,2321,128023,393,-466,128500,66,19541,270,0,47844,0.0009940000000000504
562998,4393,2465,127261,-1301,-94,127764,69,19541,283,0,47845,0.0009989999999999721
563998,6711,2296,127606,-3606,-527,126356,77,19541,283,0,47846,0.0010000000000000009
564998,7862,3342,127780,566,1061,125603,83,19535,315,1,47847,0.0010000000000000009
565998,7904,2940,128089,-874,288,127414,83,19539,340,1,47848,0.0010000000000000009
566998,11352,3335,128716,-1432,364,128111,64,19539,262,1,47849,0.0010000000000000009
567998,4304,-1080,127478,-15,-3989,128363,71,19540,291,1,47850,0.0010000000000000009
568998,2362,1432,127409,-463,-630,127049,69,19540,283,1,47851,0.0010000000000000009
569999,4910,3039,127675,-8427,2860,126033,66,19539,283,1,47852,0.0010009999999999186
570998,9373,7642,128523,-1569,4976,124597,64,19541,270,1,47853,0.0009990000000000832
571998,8597,3571,127270,2833,-1065,127157,64,19542,262,1,47854,0.0010000000000000009
572998,8980,1318,127969,-1842,-3212,127294,67,19543,274,1,47855,0.0010000000000000009
573998,5127,-3570,127023,-2675,-5390,129566,76,19536,311,1,47856,0.0010000000000000009
574998,3299,2400,128339,-3850,2272,127024,84,19536,344,1,47857,0.0010000000000000009
575998,4534,6168,128973,-6797,3401,126447,91,19537,344,0,47858,0.0010000000000000009
576998,3178,5696,128228,-1639,1463,126122,64,19537,373,0,47859,0.0010000000000000009
577998,9430,642,126561,3117,-2851,127478,64,19540,262,0,47860,0.0010000000000000009
578998,8413,-212,127129,-1165,-2598,126297,66,19540,270,0,47861,0.0010000000000000009
579998,7045,1131,127522,-101,219,127043,70,19541,287,0,47862,0.0010000000000000009
580998,5527,4403,128633,-6108,1923,127474,69,19538,283,0,47863,0.0010000000000000009
581998,6057,5045,128823,-4417,2440,127171,66,19538,283,0,47864,0.0010000000000000009
582998,5317,3667,128010,1079,-1255,127411,70,19541,270,0,47865,0.0010000000000000009
584002,7270,-469,126639,-81,-3040,126856,70,19542,287,0,47866,0.0010040000000000049
584998,7530,349,127268,-3022,-2167,126467,76,19537,311,0,47867,0.0009959999999999969
585998,7073,3573,127926,-1761,2489,126472,87,19538,356,1,47868,0.0010000000000000009
586998,6340,6189,128392,-523,2300,126685,56,19541,229,1,47869,0.0010000000000000009
587998,8373,3173,128105,-2106,-372,127235,63,19541,229,1,47870,0.0010000000000000009
588998,4386,-195,127465,107,-4093,128352,63,19540,258,1,47871,0.0010000000000000009
589998,6775,-413,126937,-638,-1397,126191,63,19541,258,1,47872,0.0010000000000000009
590998,6388,2479,128029,-4006,146,126918,63,19545,258,1,47873,0.0010000000000000009
591998,8293,7226,128656,-1670,5324,124497,64,19540,262,1,47874,0.0010000000000000009
592998,5192,3861,127435,-2102,154,126934,63,19538,258,1,47875,0.0010000000000000009
593998,4795,2182,127524,-3028,-1343,127857,70,19538,258,0,47876,0.0010000000000000009
594998,4508,-202,127419,-2154,-3365,127839,55,19540,287,0,47877,0.0010000000000000009
595999,9722,1383,127257,876,101,126963,55,19544,225,0,47878,0.0010009999999999186
596998,8591,4085,128625,-2742,675,126303,65,19541,266,0,47879,0.0009989999999999721
597999,4896,2754,127767,-1750,659,125650,69,19544,283,0,47880,0.0010010000000000296
598999,4135,938,127295,-3791,-2287,128843,68,19542,279,0,47881,0.0010000000000000009
599998,5738,3532,128029,-4689,1335,126336,65,19542,279,0,47882,0.0009989999999999721
600999,6875,4203,127843,154,1777,126118,62,19541,266,0,47883,0.0010010000000000296
601998,7952,3148,128125,-556,-73,127068,62,19543,254,0,47884,0.0009989999999999721
603000,7155,-634,127704,-1915,-3939,128266,66,19542,270,0,47885,0.0010020000000000584
603998,6164,512,127987,-1567,-1219,127852,71,19541,291,0,47886,0.0009979999999999434
605001,5911,3413,128226,-3577,695,127460,78,19538,319,0,47887,0.0010030000000000872
605999,4534,7051,128593,-4127,4291,125175,90,19538,319,1,47888,0.0009979999999999434
606998,4127,2776,127779,-3429,-379,127413,53,19536,369,1,47889,0.0009989999999999721
607998,9679,-430,126754,490,-3692,127808,63,19541,217,1,47890,0.0010000000000000009
609000,8196,102,127238,-35,-2236,126512,63,19545,258,1,47891,0.0010020000000000584
609998,7400,1418,127908,-688,-664,126944,65,19543,266,1,47892,0.0009979999999999434
610998,5263,4417,128453,-4208,1444,127820,61,19545,250,1,47893,0.0010000000000000009
612001,5405,4555,128857,-3807,2164,126994,60,19545,246,1,47894,0.0010030000000000872
613000,5269,3361,127126,-1863,507,124742,60,19545,246,1,47895,0.0009989999999999721
613999,5304,3552,127300,-2154,496,125684,71,19541,246,1,47896,0.0009989999999999721
615000,6630,988,127504,-1848,-2018,128274,71,19544,291,0,47897,0.0010010000000000296
615998,8538,-2028,126510,608,-1116,128037,58,19545,238,0,47898,0.0009979999999999434
616998,6809,4729,128495,-3159,3107,126195,67,19542,274,0,47899,0.0010000000000000009
617998,4489,6368,128586,-4163,3524,125281,65,19542,266,0,47900,0.0010000000000000009
618998,4978,2645,127796,-1489,-3210,129394,56,19538,266,0,47901,0.0010000000000000009
620000,6128,-2115,127034,-2865,-3279,127147,54,19546,229,0,47902,0.0010020000000000584
620998,7579,2911,127287,-1412,1573,124125,54,19546,221,0,47903,0.0009979999999999434
621998,5729,3686,127572,-432,1520,125812,59,19544,242,0,47904,0.0010000000000000009
622998,5784,3751,128014,-4909,-902,128006,68,19536,279,0,47905,0.0010000000000000009
623998,4346,1035,127909,-4509,-771,129456,71,19544,291,1,47906,0.0010000000000000009
624998,8963,4593,128703,2601,1553,126238,59,19544,291,1,47907,0.0010000000000000009
626001,7984,2469,127580,-1858,-364,125279,63,19540,242,1,47908,0.0010029999999999761
627000,7134,1383,127849,-2568,-2985,126451,63,19548,258,1,47909,0.0009990000000000832
627998,6695,-1687,127199,346,-4112,129173,68,19538,279,1,47910,0.0009979999999999434
628998,4760,2683,127442,-4258,3209,126151,65,19548,266,1,47911,0.0010000000000000009
629998,4505,7874,128164,-5818,4699,124638,64,19547,262,1,47912,0.0010000000000000009
631001,5859,6396,128138,-990,2160,126614,62,19547,262,1,47913,0.0010029999999999761
631998,7250,-1288,127402,1144,-5719,129234,63,19545,254,1,47914,0.0009970000000000256
632998,6749,-2555,127512,-3553,-4075,127275,63,19545,258,1,47915,0.0010000000000000009
633998,7371,1810,128400,-2537,12,126343,70,19541,287,1,47916,0.0010000000000000009
634998,3772,5968,128276,-3780,3783,125698,80,19543,328,0,47917,0.0010000000000000009
635998,2655,4513,127800,-4959,698,128038,58,19543,238,0,47918,0.0010000000000000009
636998,5069,2896,127551,-4569,542,126347,65,19543,238,0,47919,0.0010000000000000009
638000,5979,1627,127600,51,-1978,126846,66,19545,266,0,47920,0.0010020000000000584
638998,8217,902,128495,304,-1876,126873,66,19546,270,0,47921,0.0009979999999999434
640001,7289,-173,128027,-2525,-2516,128809,62,19541,254,0,47922,0.0010029999999999761
640998,6966,3876,127996,-2103,2271,126399,61,19545,250,0,47923,0.0009970000000000256
641998,4759,6486,127452,-4052,3830,124961,65,19542,266,0,47924,0.0010000000000000009
643001,4058,4302,127889,-3011,557,126749,73,19542,299,0,47925,0.0010029999999999761
643998,5575,-1210,127454,-1766,-4715,128924,83,19538,299,1,47926,0.0009970000000000256
645000,6852,138,128368,-1887,-1886,127750,83,19544,340,1,47927,0.0010020000000000584
645998,9774,3724,129071,1503,2340,126007,59,19547,242,1,47928,0.0009979999999999434
646998,6629,3953,127524,-3246,890,126065,68,19543,279,1,47929,0.0010000000000000009
647998,5197,2552,127308,-2416,-544,127312,67,19543,274,1,47930,0.0010000000000000009
648998,4139,981,127228,-3263,-1412,128037,63,19543,274,1,47931,0.0010000000000000009
649998,6021,4623,128429,-3716,2382,125743,61,19544,258,1,47932,0.0010000000000000009
650998,7294,3300,128227,-2286,-70,126499,61,19547,250,1,47933,0.0010000000000000009
651998,6444,768,127136,4594,-685,126196,63,19543,258,1,47934,0.0010000000000000009
652998,6528,2219,126924,-2862,-1897,129709,72,19540,295,1,47935,0.0010000000000000009
653998,9020,2439,127524,-9805,933,124639,79,19540,324,0,47936,0.0010000000000000009
654998,6509,9751,130624,7112,7077,125063,61,19540,250,0,47937,0.0010000000000000009
655998,5731,-4644,126647,-1958,-8034,132044,67,19542,250,0,47938,0.0010000000000000009
656998,2115,-2731,127578,-10008,-5293,126477,67,19540,274,0,47939,0.0010000000000000009
657998,5177,1948,127610,2020,-493,126066,67,19544,274,0,47940,0.0010000000000000009
658998,4187,11562,126897,-1444,9196,119381,67,19544,274,0,47941,0.0010000000000000009
659998,9830,11663,129716,-10672,9292,128747,66,19544,270,0,47942,0.0010000000000000009
660998,8391,-5176,126306,5156,-7987,130989,66,19544,270,0,47943,0.0010000000000000009
661998,7065,-4146,126810,4479,-6755,127214,73,19541,270,0,47944,0.0010000000000000009
662998,5671,58,129386,-9550,-1156,128533,80,19539,299,0,47945,0.0010000000000000009
663998,5935,4480,128403,798,3563,125201,80,19540,328,0,47946,0.0010000000000000009
664998,2917,5344,127558,-2978,2439,127740,89,19541,365,1,47947,0.0010000000000000009
665998,7375,7605,128584,-9193,4638,123229,58,19542,238,1,47948,0.0010000000000000009
666998,6950,2288,126468,3616,-4152,128133,68,19542,279,1,47949,0.0010000000000000009
667999,8544,-1484,127528,-2755,-3355,127249,70,19536,279,1,47950,0.0010010000000000296
668998,6903,-1361,128156,-67,-3019,129861,67,19541,287,1,47951,0.0009989999999999721
670000,6691,3270,128243,-2320,2473,126682,67,19539,274,1,47952,0.0010019999999999474
671000,5072,7295,128179,-5641,5088,122494,65,19543,266,1,47953,0.0010000000000000009
671998,5287,4861,127650,-252,-1292,128592,68,19542,279,1,47954,0.0009980000000000544
673000,5217,-2574,126231,-3073,-5091,127955,74,19540,303,1,47955,0.0010019999999999474
673998,6339,2085,128174,-4194,919,125927,81,19540,303,0,47956,0.0009980000000000544
674998,5113,3566,128481,-359,1139,127972,50,19530,332,0,47957,0.0010000000000000009
675998,8944,5576,128449,-2363,3137,124445,50,19541,205,0,47958,0.0010000000000000009
676998,6701,-654,127377,-3859,-5237,131200,67,19539,274,0,47959,0.0010000000000000009
677998,7432,186,126997,3770,-952,125410,68,19539,279,0,47960,0.0010000000000000009
678998,5173,2540,127289,-5204,964,125635,66,19544,270,0,47961,0.0010000000000000009
679998,7904,6129,129209,-5052,3104,125990,65,19544,270,0,47962,0.0010000000000000009
680998,6543,2893,127793,2733,-1111,128937,65,19540,266,0,47963,0.0010000000000000009
681998,4951,826,127522,-2195,-637,127887,65,19537,266,0,47964,0.0010000000000000009
682999,5807,2009,127762,-3523,-1795,126720,73,19539,299,0,47965,0.0010010000000000296
683999,7791,2642,128092,625,1202,125955,81,19536,332,1,47966,0.0010000000000000009
685000,8070,3576,128351,-630,1285,127348,52,19543,213,1,47967,0.0010009999999999186
686000,10841,3135,128260,-590,144,126992,69,19543,213,1,47968,0.0010000000000000009
686998,4847,-389,127699,46,-2960,128438,71,19539,283,1,47969,0.0009980000000000544
687998,2665,675,127082,-2726,-1362,126952,71,19540,291,1,47970,0.0010000000000000009
688998,4990,3779,127930,-6897,1682,126928,69,19540,283,1,47971,0.0010000000000000009
689999,9487,6202,128535,-113,4265,125469,64,19543,262,1,47972,0.0010009999999999186
690998,7763,4176,127268,1383,100,126297,65,19541,266,1,47973,0.0009990000000000832
691998,8136,768,127669,-1612,-2078,126815,70,19541,266,1,47974,0.0010000000000000009
693001,5300,-1501,126902,-2305,-4819,128344,79,19540,287,1,47975,0.0010029999999999761
694000,3708,1774,128058,-3197,211,127883,79,19536,324,1,47976,0.0009989999999999721
694999,4815,6196,129032,-6659,3749,125861,85,19534,348,0,47977,0.0009989999999999721
695998,3768,4154,128122,-3926,1424,126803,69,19539,283,0,47978,0.0009990000000000832
696998,9383,531,126898,3070,-2312,127196,66,19538,270,0,47979,0.0010000000000000009
697998,7876,-999,126930,-1196,-3679,127206,71,19538,270,0,47980,0.0010000000000000009
698998,6899,2437,127458,324,335,126095,69,19536,291,0,47981,0.0010000000000000009
699998,5785,5492,128612,-4569,2877,126812,69,19541,283,0,47982,0.0010000000000000009
700998,6205,5265,128791,-5487,2467,127255,69,19543,283,0,47983,0.0010000000000000009
701998,5420,2254,127814,603,-949,127690,66,19541,270,0,47984,0.0010000000000000009
702998,7070,-763,126946,9,-3606,127639,71,19537,291,0,47985,0.0010000000000000009
703998,7458,423,127374,-1661,-2294,126675,83,19537,340,0,47986,0.0010000000000000009
705001,6943,4202,128024,-2822,1735,125910,91,19536,340,1,47987,0.0010029999999999761
705998,6963,6523,128091,-2239,2899,126682,63,19542,373,1,47988,0.0009970000000000256
706998,8294,3372,127760,-432,918,127466,63,19545,258,1,47989,0.0010000000000000009
707998,4964,-869,127259,-586,-3598,128446,65,19544,266,1,47990,0.0010000000000000009
708998,6293,-123,127290,-387,-870,126355,63,19544,258,1,47991,0.0010000000000000009
710001,5796,2710,128159,-3732,1797,126894,62,19544,254,1,47992,0.0010029999999999761
710998,8193,7509,128618,-2203,4357,124717,62,19545,254,1,47993,0.0009970000000000256
712000,4955,4496,127360,-1754,721,126541,66,19540,254,1,47994,0.0010019999999999474
712998,5488,1848,127396,-2796,-2268,127681,66,19541,270,0,47995,0.0009980000000000544
713998,5441,-915,127064,-1137,-2970,128465,75,19544,307,0,47996,0.0010000000000000009
714998,10059,1293,127689,860,1226,126573,64,19539,262,0,47997,0.0010000000000000009
715998,7526,3885,128500,-2519,165,126784,69,19540,283,0,47998,0.0009999999999998899
716998,4440,2446,127743,-3125,159,126189,68,19540,283,0,47999,0.0010000000000000009
717998,3786,1387,127351,-4028,-1209,128122,66,19542,279,0,48000,0.0010000000000000009
718998,6692,3936,127643,-2900,1829,125719,66,19544,270,0,48001,0.0010000000000000009
719998,7137,4661,127928,213,2081,125760,60,19544,246,0,48002,0.0010000000000000009
720998,7971,2389,128040,-1082,-1803,127550,66,19540,270,0,48003,0.0010000000000000009
721998,6376,-886,127767,-2016,-4250,128867,72,19541,295,0,48004,0.0010000000000000009
722998,5726,377,128130,-1907,-329,127547,77,19541,295,0,48005,0.0010000000000000009
723998,5432,3941,128282,-3950,2274,126309,83,19538,315,0,48006,0.0010000000000000009
724998,5337,6472,128512,-4389,3040,125611,83,19537,340,1,48007,0.0010000000000000009
725998,4485,2595,127634,-2142,-592,127144,95,19543,389,1,48008,0.0010000000000000009
726998,10132,-989,126612,1428,-4656,127886,60,19540,246,1,48009,0.0010000000000000009
727998,7548,319,127475,-749,-1704,126662,65,19540,266,1,48010,0.0010000000000000009
728998,6938,1918,128114,-1148,969,126428,64,19540,266,1,48011,0.0010000000000000009
729998,5057,4366,128623,-4769,285,128985,62,19544,262,1,48012,0.0010000000000000009
731000,5962,5126,128673,-2809,3090,127165,62,19542,254,1,48013,0.0010020000000000584
731998,5728,3391,127123,-1496,763,125361,59,19544,242,1,48014,0.0009979999999999434
732998,5738,3254,127288,-1866,-494,125383,64,19546,262,1,48015,0.0010000000000000009
733998,6246,-55,127576,-1812,-3662,127570,67,19544,274,0,48016,0.0010000000000000009
734998,8757,-3033,126876,-1330,-3730,129639,61,19544,274,0,48017,0.0010000000000000009
735998,5866,5824,128758,-4244,3553,126237,64,19543,250,0,48018,0.0010000000000000009
736998,5151,6112,128306,-2580,3164,125292,64,19542,262,0,48019,0.0010000000000000009
737998,5069,2669,127551,-1548,-1415,128352,62,19546,254,0,48020,0.0010000000000000009
738998,7463,-1298,127114,-2434,-3729,127991,57,19545,233,0,48021,0.0010000000000000009
740000,7468,3372,127343,-1216,1409,123947,57,19545,233,0,48022,0.0010020000000000584
740998,5323,3158,127856,-418,275,126657,65,19545,233,0,48023,0.0009979999999999434
741998,4892,2789,128272,-4393,-442,127400,72,19541,266,0,48024,0.0010000000000000009
742998,4779,737,127836,-3852,-1563,129913,72,19536,295,1,48025,0.0010000000000000009
744001,9243,5299,128639,1719,2811,126422,45,19552,184,1,48026,0.0010029999999999761
744998,9458,2769,127628,-1752,596,124913,63,19544,258,1,48027,0.0009970000000000256
746000,7265,1896,128088,-1056,-1203,125576,67,19544,274,1,48028,0.0010020000000000584
747000,5998,-3253,126945,-475,-6119,130342,69,19544,283,1,48029,0.0010000000000000009
748000,3991,2922,127792,-4513,790,127126,64,19544,283,1,48030,0.0010000000000000009
748998,4031,7489,128296,-4650,4551,125629,60,19543,262,1,48031,0.0009979999999999434
749998,5706,7375,128120,-2720,4683,124936,60,19543,246,1,48032,0.0010000000000000009
750998,7384,-374,127543,130,-3145,128465,61,19547,250,1,48033,0.0010000000000000009
751998,7256,-3182,127496,-1438,-5647,126901,66,19543,270,1,48034,0.0010000000000000009
752998,6749,1505,128313,-2156,-832,126436,75,19543,307,1,48035,0.0010000000000000009
753998,4069,5493,128681,-4588,2942,126738,71,19535,307,0,48036,0.0010000000000000009
754998,3803,4091,127645,-4298,1736,127581,62,19544,291,0,48037,0.0010000000000000009
755998,4610,3586,127400,-3539,207,126230,62,19541,254,0,48038,0.0010000000000000009
756999,6218,1807,127529,-2479,-1233,125898,65,19541,266,0,48039,0.0010010000000000296
757999,8418,931,128265,1007,-3105,128162,65,19542,266,0,48040,0.0010000000000000009
758998,7353,105,128097,-1441,-640,127952,62,19545,254,0,48041,0.0009989999999999721
759999,6337,4369,127915,-2918,2694,126158,64,19545,254,0,48042,0.0010010000000000296
760998,4405,6238,127715,-3183,3064,125599,69,19541,262,0,48043,0.0009989999999999721
762001,3501,3772,127720,-3601,-1583,127194,69,19543,283,0,48044,0.0010029999999999761
762998,5326,-1527,127309,-2536,-4312,128994,77,19538,315,1,48045,0.0009970000000000256
763998,7029,546,128139,1776,-215,126430,62,19544,254,1,48046,0.0010000000000000009
764998,9593,4487,128740,-695,2567,125266,63,19542,258,1,48047,0.0010000000000000009
765998,6710,4439,127688,-3778,1159,125980,65,19542,258,1,48048,0.0010000000000000009
767000,5328,2427,127303,-644,-1713,128598,64,19542,266,1,48049,0.0010020000000000584
767998,4502,-942,126542,-3099,-4090,128259,64,19543,262,1,48050,0.0009979999999999434
769000,5076,4992,128385,-3225,6254,121359,63,19542,258,1,48051,0.0010020000000000584
769998,9344,5145,127802,-1276,-1970,130199,62,19546,254,1,48052,0.0009979999999999434
770998,6197,1392,127202,4220,2195,125013,66,19540,270,1,48053,0.0010000000000000009
771999,7236,4043,128448,-9919,-2535,127848,73,19540,270,1,48054,0.0010010000000000296
772998,6026,-2397,127180,-1161,-1570,127608,62,19540,299,0,48055,0.0009989999999999721
773998,6347,5969,129623,5511,524,126288,62,19542,254,0,48056,0.0010000000000000009
774998,5376,-4849,126261,-8435,-6652,131783,63,19542,258,0,48057,0.0010000000000000009
775998,4775,7260,128427,-5866,6229,120339,69,19541,283,0,48058,0.0010000000000000009
776998,4986,4241,127708,1997,670,129771,69,19540,283,0,48059,0.0010000000000000009
777998,5748,6056,127371,-2630,3636,123520,66,19540,283,0,48060,0.0010000000000000009
778998,6580,1300,128024,-6029,-2780,128605,65,19544,270,0,48061,0.0010000000000000009
779998,8456,-116,127711,-383,-2129,128341,65,19543,266,0,48062,0.0010000000000000009
780998,6553,1251,128578,5550,-1702,127662,69,19545,283,0,48063,0.0010000000000000009
782000,6273,366,128145,-7374,-2272,128015,74,19537,303,0,48064,0.0010019999999999474
782999,4518,2505,127741,-5056,692,126204,83,19530,340,0,48065,0.0009990000000000832
783998,5638,6789,128486,-2588,3884,125917,77,19530,340,1,48066,0.0009989999999999721
784998,6416,5021,127931,461,2350,126286,66,19545,315,1,48067,0.0010000000000000009
785998,8098,2064,127710,-3718,-1872,126461,66,19540,270,1,48068,0.0010000000000000009
786998,7533,-2839,127385,-1672,-5556,129568,71,19539,291,1,48069,0.0010000000000000009
787998,6769,667,127772,5440,-1029,127481,70,19539,287,1,48070,0.0010000000000000009
788998,5280,4800,128362,-6775,1971,126970,66,19535,270,1,48071,0.0010000000000000009
789998,7235,7170,128311,-7421,5066,122506,65,19535,266,1,48072,0.0010000000000000009
790998,4672,3547,127806,3210,-82,129200,70,19538,266,1,48073,0.0010000000000000009
792000,5238,-2019,126605,-1967,-5093,128383,78,19536,287,1,48074,0.0010019999999999474
792998,4843,2336,128243,-8184,-540,124696,78,19538,319,0,48075,0.0009980000000000544
793998,5964,2685,128199,1255,-29,129448,89,19549,365,0,48076,0.0010000000000000009
795011,9219,4670,128667,-182,3647,124721,65,19537,266,0,48077,0.0010129999999999306
795999,6821,1835,128054,-6435,-1040,128186,69,19537,283,0,48078,0.0009880000000001
797000,6524,391,126597,2209,-2402,127094,66,19537,283,0,48079,0.0010009999999999186
797998,5446,1321,127204,-1253,-1561,126160,66,19540,270,0,48080,0.0009980000000000544
798998,7483,5005,128947,-6425,2304,126558,66,19542,270,0,48081,0.0010000000000000009
799998,6934,3676,127511,902,1192,127645,68,19540,279,0,48082,0.0010000000000000009
801000,5247,2348,127511,-1040,-397,127373,71,19535,291,0,48083,0.0010019999999999474
801998,6882,1690,127478,-2690,-1030,125984,76,19535,311,0,48084,0.0009980000000000544
802999,7412,2089,127517,-629,-36,127366,84,19535,311,1,48085,0.0010010000000000296
803998,8886,3308,128763,-944,1605,126254,61,19544,344,1,48086,0.0009989999999999721
804998,9896,2677,128248,-426,-1914,128222,61,19540,250,1,48087,0.0010000000000000009
805998,4631,22,127634,-260,-1938,127632,69,19538,283,1,48088,0.0010000000000000009
807001,2522,714,126789,-5444,-1712,126860,70,19540,287,1,48089,0.0010029999999999761
808000,5495,4498,128191,-5012,4196,125757,69,19542,283,1,48090,0.0009989999999999721
808998,9483,7467,128517,957,4125,124917,65,19542,283,1,48091,0.0009980000000000544
809998,8031,4246,127590,-27,-945,127357,68,19543,266,1,48092,0.0010000000000000009
810998,7456,-1324,127381,-1041,-5104,128273,68,19537,279,1,48093,0.0010000000000000009
812001,4797,-1918,127179,-2553,-3552,128150,72,19537,295,1,48094,0.0010029999999999761
812998,3882,2454,127995,-4371,1739,127384,82,19537,336,1,48095,0.0009970000000000256
813998,5261,7155,129156,-6212,4137,125288,89,19539,365,0,48096,0.0010000000000000009
814998,3878,3793,127838,-1536,456,127371,62,19539,365,0,48097,0.0010000000000000009
815998,9685,1614,127248,2561,-1941,126700,69,19540,254,0,48098,0.0010000000000000009
816998,7898,-1076,127003,-339,-3454,127353,69,19536,283,0,48099,0.0010000000000000009
818000,6515,1665,127809,-447,-139,126861,70,19541,287,0,48100,0.0010019999999999474
819004,5835,3885,128663,-6173,2122,127392,70,19543,287,0,48101,0.0010040000000000049
819998,6531,6650,129139,-3815,3131,126811,67,19540,274,0,48102,0.0009940000000000504
820998,5142,2302,127502,1147,-1380,127523,69,19540,274,0,48103,0.0010000000000000009
821998,7068,-36,127002,-932,-3350,127169,76,19541,283,0,48104,0.0010000000000000009
822998,8029,-406,127269,-2564,-2136,126928,76,19534,311,0,48105,0.0010000000000000009
823998,6741,4209,128275,-760,2356,126422,91,19530,373,1,48106,0.0010000000000000009
824998,8113,5767,127980,-902,2269,126453,51,19540,209,1,48107,0.0010000000000000009
825998,7797,3659,127957,-2123,-402,126982,67,19541,274,1,48108,0.0010000000000000009
826998,5180,-870,127152,521,-3693,128297,62,19541,274,1,48109,0.0010000000000000009
827998,6478,792,127273,-1332,-1695,126424,60,19539,254,1,48110,0.0010000000000000009
828998,6093,3026,128208,-4053,988,126783,60,19543,246,1,48111,0.0010000000000000009
829998,8126,7361,128647,-1294,4130,125163,60,19543,246,1,48112,0.0010000000000000009
830998,5178,2953,127258,-1580,80,126752,63,19544,258,1,48113,0.0010000000000000009
831999,4998,1756,127490,-2789,-1407,127523,71,19540,291,0,48114,0.0010009999999999186
832998,5434,-112,127146,-2677,-2236,127551,52,19540,213,0,48115,0.0009990000000000832
833998,10160,1960,127664,981,106,127056,68,19542,213,0,48116,0.0010000000000000009
834998,7401,3890,128479,-2577,929,126478,70,19540,279,0,48117,0.0009999999999998899
835999,4367,2207,127850,-1458,-536,126250,70,19542,287,0,48118,0.0010010000000000296
836998,3920,748,127345,-4053,-2100,128776,67,19544,274,0,48119,0.0009989999999999721
837998,7043,3444,127796,-4720,902,126172,64,19544,262,0,48120,0.0010000000000000009
838998,6564,5471,128148,1227,3082,125493,63,19544,258,0,48121,0.0010000000000000009
839998,7895,2307,127692,-1634,-834,127547,69,19542,258,0,48122,0.0010000000000000009
840998,6081,-177,127810,-2720,-3182,127517,73,19539,283,0,48123,0.0010000000000000009
842000,6056,104,127952,-997,-2439,128741,73,19536,299,0,48124,0.0010020000000000584
842998,5642,3834,128330,-2868,1339,126908,77,19532,315,0,48125,0.0009979999999999434
843998,5339,5971,128594,-5239,3319,125270,86,19532,352,1,48126,0.0010000000000000009
844998,4146,2436,127706,-3194,-358,126876,51,19532,209,1,48127,0.0010000000000000009
845998,10111,-901,126337,976,-3731,127679,62,19539,209,1,48128,0.0010000000000000009
846998,6703,1860,127723,-849,-744,126677,66,19542,254,1,48129,0.0010000000000000009
847998,6866,1625,128042,-1238,-1352,126040,66,19544,270,1,48130,0.0010000000000000009
848998,4988,3646,128573,-3986,852,129627,63,19543,258,1,48131,0.0010000000000000009
849998,6167,5803,128903,-3132,1829,126893,59,19540,242,1,48132,0.0010000000000000009
850999,5174,2890,127044,-1741,1463,123768,61,19540,250,1,48133,0.0010010000000000296
851998,5614,2513,127145,-2783,-1651,126304,69,19543,250,0,48134,0.0009989999999999721
852998,6140,264,127443,-1675,-5025,128516,56,19543,283,0,48135,0.0010000000000000009
853998,8524,-2668,127460,-684,-354,127516,56,19547,229,0,48136,0.0010000000000000009
854998,5256,5511,128801,-4804,2456,126527,65,19545,266,0,48137,0.0010000000000000009
855998,5092,6256,128435,-2110,3158,125218,65,19541,266,0,48138,0.0010000000000000009
857000,4554,1653,127395,-1428,-3181,129361,58,19547,238,0,48139,0.0010020000000000584
858000,7550,-747,127117,-3082,-2084,126392,54,19547,238,0,48140,0.0010000000000000009
859000,7457,4430,127425,-1014,2304,123896,60,19541,221,0,48141,0.0010000000000000009
859998,5725,3096,127575,-839,321,127092,60,19541,246,0,48142,0.0009979999999999434
861000,4863,1818,128095,-4863,-2990,129040,67,19544,274,1,48143,0.0010020000000000584
861998,5530,813,128121,-3831,807,128603,73,19546,299,1,48144,0.0009979999999999434
862998,9102,5533,128367,2587,1763,126236,55,19544,225,1,48145,0.0010000000000000009
863998,8847,2973,127682,-3281,699,124640,64,19544,225,1,48146,0.0010000000000000009
864999,7084,1824,127968,-1426,-2622,126721,69,19543,262,1,48147,0.0010010000000000296
865998,5488,-2727,126845,-332,-5462,130420,69,19543,283,1,48148,0.0009989999999999721
866998,4355,3440,127779,-4729,2923,126054,65,19549,266,1,48149,0.0010000000000000009
867998,4395,7285,128500,-5602,4770,125551,62,19545,254,1,48150,0.0010000000000000009
868998,6035,5895,127933,-238,1806,126183,62,19544,254,1,48151,0.0010000000000000009
869998,7333,-276,127863,451,-4186,128453,65,19544,254,1,48152,0.0010000000000000009
870998,7620,-3391,127230,-3973,-5230,127960,70,19539,266,1,48153,0.0010000000000000009
871998,6450,2621,128302,-1676,914,125773,70,19539,287,1,48154,0.0010000000000000009
873001,3875,5886,128320,-4453,2983,126773,77,19536,315,0,48155,0.0010029999999999761
874000,4183,4583,127653,-4979,1137,127121,57,19540,233,0,48156,0.0009990000000000832
874998,4806,2757,127419,-4600,-124,127104,67,19541,274,0,48157,0.0009979999999999434
875998,6150,1359,127536,439,-1344,126108,68,19541,274,0,48158,0.0010000000000000009
877001,8591,673,128151,195,-2502,127293,65,19542,279,0,48159,0.0010029999999999761
877998,7307,309,128025,-2510,-1682,128549,65,19549,266,0,48160,0.0009970000000000256
878998,6036,4636,127578,-2869,2187,126202,64,19542,262,0,48161,0.0010000000000000009
880000,4550,6563,127767,-3492,4007,125398,64,19544,262,0,48162,0.0010020000000000584
880998,4172,3345,127741,-3005,-274,126497,70,19540,287,0,48163,0.0009979999999999434
881998,5368,-2352,127152,-1758,-5325,129144,81,19540,332,1,48164,0.0010000000000000009
882998,7874,1349,128294,-714,-1591,127126,59,19542,332,1,48165,0.0010000000000000009
883998,10020,5035,128502,1444,2818,125443,66,19542,242,1,48166,0.0010000000000000009
884998,5756,4863,127656,-3238,1870,125513,66,19543,270,1,48167,0.0010000000000000009
885998,5097,1784,127216,-2782,-1329,128095,65,19541,266,1,48168,0.0010000000000000009
886999,3627,702,127356,-3122,-1956,128171,62,19545,254,1,48169,0.0010010000000000296
888000,6130,4423,128493,-3575,1922,125775,61,19545,250,1,48170,0.0010010000000000296
888998,8273,1840,127356,-2192,-898,126734,63,19544,250,1,48171,0.0009979999999999434
889998,6100,4059,128022,5382,2009,124282,69,19543,258,1,48172,0.0010000000000000009
890998,8190,-120,125916,-4705,-3044,130954,69,19542,283,1,48173,0.0010000000000000009
891998,8456,5395,128422,-7541,2664,120920,77,19544,315,0,48174,0.0010000000000000009
892998,7248,7068,130318,6413,4750,132205,61,19544,250,0,48175,0.0010000000000000009
894000,5072,-6645,126412,-3269,-7105,128179,69,19541,283,0,48176,0.0010019999999999474
894998,1861,-1513,128120,-7769,-4673,128977,68,19541,283,0,48177,0.0009980000000000544
896000,5819,3899,127423,295,999,123933,66,19539,279,0,48178,0.0010019999999999474
896998,5286,14581,127564,-1764,12439,119658,66,19539,270,0,48179,0.0009980000000000544
897999,9847,8115,129448,-9232,-3211,130789,64,19543,262,0,48180,0.0010010000000000296
898998,6734,-7166,125879,5083,-8445,129398,66,19540,270,0,48181,0.0009989999999999721
899998,7114,-2774,128364,2812,-4926,129461,72,19540,295,0,48182,0.0010000000000000009
901000,5483,-755,128783,-4720,-360,127354,81,19540,295,0,48183,0.0010019999999999474
901998,5437,6848,128729,1529,3981,125540,89,19533,332,1,48184,0.0009980000000000544
902998,3658,4579,127350,-12638,3471,126900,89,19538,365,1,48185,0.0010000000000000009
903998,9069,9278,128309,2225,4179,123255,57,19542,233,1,48186,0.0010000000000000009
904998,6731,-564,126427,1991,-5181,129358,65,19543,266,1,48187,0.0010000000000000009
905998,8931,-1718,127453,-3895,-3691,126969,67,19543,274,1,48188,0.0010000000000000009
907000,6387,-1668,128330,1815,-2784,131292,68,19543,274,1,48189,0.0010019999999999474
908000,6553,4123,128085,-2875,3026,125758,66,19540,279,1,48190,0.0010000000000000009
908998,4259,8810,128202,-7523,6562,121807,66,19541,270,1,48191,0.0009980000000000544
909998,5810,3890,127338,956,-2312,129557,66,19547,270,1,48192,0.0010000000000000009
910998,5202,-2704,126182,-1742,-4725,127236,73,19539,299,1,48193,0.0010000000000000009
911998,6239,2303,128670,-5503,10,126823,85,19538,348,0,48194,0.0010000000000000009
912998,4629,3338,128272,410,1064,127590,55,19538,348,0,48195,0.0010000000000000009
914004,8684,5356,129082,-1324,2862,124810,68,19539,225,0,48196,0.0010059999999999514
915003,5742,-1340,127255,-3971,-4478,130531,68,19541,279,0,48197,0.0009990000000000832
915998,7448,1952,126715,2489,82,124488,69,19543,283,0,48198,0.0009949999999999681
916998,5355,3012,127674,-5211,871,125855,69,19539,283,0,48199,0.0010000000000000009
917998,8594,5322,128925,-3688,2613,125903,67,19541,274,0,48200,0.0010000000000000009
918998,5650,1754,127693,2070,-2128,129579,70,19541,274,0,48201,0.0010000000000000009
919998,5470,1447,127652,-2910,-302,127415,73,19544,287,0,48202,0.0010000000000000009
920998,5842,1924,127276,-2773,-1349,126766,73,19537,299,0,48203,0.0010000000000000009
921998,7936,3715,127946,528,1776,125744,80,19536,328,1,48204,0.0010000000000000009
922998,9636,3737,128501,-753,1603,126405,57,19542,233,1,48205,0.0010000000000000009
923998,9859,1865,128208,-674,-952,127492,67,19539,274,1,48206,0.0010000000000000009
924998,4352,-442,127894,871,-3274,128714,73,19539,299,1,48207,0.0010000000000000009
925998,2255,787,127103,-4041,-1252,126943,70,19539,299,1,48208,0.0010000000000000009
926998,4833,4766,128435,-7274,2429,126956,67,19540,287,1,48209,0.0010000000000000009
927998,10107,6724,128362,778,4523,125084,67,19542,274,1,48210,0.0010000000000000009
928998,7868,3456,127139,1026,194,126125,64,19542,262,1,48211,0.0010000000000000009
930000,7553,118,127662,-1381,-2798,126994,70,19536,287,1,48212,0.0010019999999999474
930998,5211,-1656,127124,-2776,-4501,128254,76,19536,311,1,48213,0.0009980000000000544
931998,3445,2604,128548,-2776,316,128399,86,19540,311,1,48214,0.0010000000000000009
933000,4019,6287,128994,-6872,3462,126054,79,19530,352,0,48215,0.0010019999999999474
934000,4812,3447,128108,-4486,1144,126762,79,19542,324,0,48216,0.0010000000000000009
935000,9761,713,127056,3563,-1913,126898,65,19537,266,0,48217,0.0010000000000000009
935998,8060,-1096,126826,207,-3712,127349,67,19540,274,0,48218,0.0009980000000000544
936998,6555,3378,128027,-1776,809,125639,68,19540,279,0,48219,0.0010000000000000009
937998,4980,5498,128981,-4470,2797,127263,68,19537,279,0,48220,0.0010000000000000009
938998,6189,5247,128836,-3877,2495,127246,68,19542,279,0,48221,0.0010000000000000009
939999,5123,853,127636,-824,-2049,127898,68,19537,279,0,48222,0.0010009999999999186
941000,7246,-799,127066,-453,-3519,126777,72,19539,295,0,48223,0.0010010000000000296
941998,8246,337,127142,-176,-2362,126540,79,19532,324,0,48224,0.0009980000000000544
942998,5990,5170,128160,-2568,4152,125793,91,19542,373,1,48225,0.0010000000000000009
943999,8465,6985,127659,-2920,2507,126707,61,19542,373,1,48226,0.0010009999999999186
944998,7180,2903,127834,-360,-1672,127692,66,19540,250,1,48227,0.0009990000000000832
945998,6584,-1541,127350,-732,-5249,128594,66,19546,270,1,48228,0.0010000000000000009
946998,5904,-419,127111,663,-1975,127079,63,19542,258,1,48229,0.0010000000000000009
947998,6067,2797,127906,-3684,2279,126285,61,19544,250,1,48230,0.0010000000000000009
948998,7585,8350,128522,-3071,5306,124232,60,19544,246,1,48231,0.0010000000000000009
950000,4956,5394,127488,-1407,1155,126821,66,19544,246,1,48232,0.0010019999999999474
950998,4625,970,127294,-1135,-2904,128018,73,19539,270,0,48233,0.0009980000000000544
951998,5882,-1867,127296,-2239,-3777,128698,73,19544,299,0,48234,0.0010000000000000009
952998,10324,1369,127967,530,1299,126293,60,19544,246,0,48235,0.0010000000000000009
953998,7596,4210,128766,-724,450,126700,69,19541,283,0,48236,0.0009999999999998899
954998,4091,2849,127650,-3410,370,126229,70,19542,287,0,48237,0.0010000000000000009
955998,3824,1552,127305,-5906,-1567,128144,64,19542,287,0,48238,0.0010000000000000009
956998,6776,3935,127650,-2094,2164,125698,62,19543,262,0,48239,0.0010000000000000009
957998,7216,5047,128225,971,1894,125904,62,19542,254,0,48240,0.0010000000000000009
958999,7893,1017,127768,-1521,-2399,127917,64,19542,262,0,48241,0.0010010000000000296
959998,6532,-905,127709,-2364,-4141,128530,69,19538,283,0,48242,0.0009989999999999721
960998,5855,881,128103,-1208,-205,127888,74,19534,303,0,48243,0.0010000000000000009
961998,5225,5420,128485,-3600,3100,125618,82,19534,303,0,48244,0.0010000000000000009
962999,5122,5463,128239,-5330,2211,126268,96,19533,336,1,48245,0.0010010000000000296
963998,4257,2228,127845,-1451,-623,127233,96,19542,393,1,48246,0.0009989999999999721
964998,10655,-2114,126600,2488,-4754,128404,61,19542,250,1,48247,0.0010000000000000009
965998,6676,1184,127571,-598,-1387,126203,63,19541,258,1,48248,0.0010000000000000009
966998,6529,2760,128249,-2821,1398,126070,64,19540,262,1,48249,0.0010000000000000009
968000,5080,4049,128527,-4743,447,129457,60,19540,262,1,48250,0.0010020000000000584
968999,6345,6104,128543,-1635,3240,126820,60,19543,246,1,48251,0.0009989999999999721
969999,5363,3385,127112,-2443,860,124735,60,19547,246,1,48252,0.0010000000000000009
970998,5980,1760,127156,-2352,-1821,125797,65,19540,266,0,48253,0.0009989999999999721
971999,6002,-1152,127382,-877,-4359,128231,75,19547,307,0,48254,0.0010010000000000296
973005,8256,-2312,127824,-1191,-2636,129047,61,19541,250,0,48255,0.0010060000000000624
973998,4951,7242,128897,-5704,4260,125416,65,19541,266,0,48256,0.0009929999999999106
974998,5307,6601,128132,-1954,3759,125125,61,19542,266,0,48257,0.0010000000000000009
976000,5141,722,127165,-853,-2844,129157,56,19543,250,0,48258,0.0010020000000000584
976999,8283,-1057,127177,-3224,-3360,127483,56,19546,229,0,48259,0.0009989999999999721
977998,7595,4069,127590,-964,1857,123920,56,19545,229,0,48260,0.0009989999999999721
978998,5202,2981,127753,281,193,126920,64,19540,262,0,48261,0.0010000000000000009
979998,4484,2017,128107,-5170,-976,127974,68,19540,279,1,48262,0.0010000000000000009
980998,5183,1807,128000,-3883,-779,129356,54,19544,279,1,48263,0.0010000000000000009
981998,9490,5537,128200,1965,2592,126081,61,19543,221,1,48264,0.0010000000000000009
982998,9314,3198,127939,-1974,931,124681,61,19544,250,1,48265,0.0010000000000000009
984000,7124,120,127906,-808,-2414,126509,65,19547,266,1,48266,0.0010020000000000584
984998,5347,-3405,126820,-567,-6116,130333,65,19545,266,1,48267,0.0009979999999999434
985998,4469,4797,128297,-4769,1818,125482,64,19543,262,1,48268,0.0010000000000000009
987000,4500,7592,128159,-4586,4879,124972,62,19543,262,1,48269,0.0010020000000000584
987998,5672,6284,127915,-2016,3872,127223,61,19546,254,1,48270,0.0009979999999999434
988998,7836,-1032,127938,-226,-3426,128902,61,19545,250,1,48271,0.0010000000000000009
989998,7216,-2948,127560,-1605,-3481,126895,64,19544,262,1,48272,0.0010000000000000009
990998,5856,2312,128458,-1565,1383,126532,73,19538,299,1,48273,0.0010000000000000009
991998,3608,5396,128416,-5207,2413,126906,74,19544,303,0,48274,0.0010000000000000009
992998,4812,4323,127452,-4272,1188,127277,61,19544,303,0,48275,0.0010000000000000009
993999,5161,3546,127389,-4017,240,126084,65,19544,250,0,48276,0.0010010000000000296
994998,6300,1628,127396,1069,-1542,126261,65,19544,266,0,48277,0.0009989999999999721
995998,8475,-441,128052,-319,-3898,128691,66,19541,270,0,48278,0.0010000000000000009
996999,8020,604,128248,-2982,-312,127710,62,19544,254,0,48279,0.0010010000000000296
997998,5784,4892,127686,-2844,2962,125889,63,19542,258,0,48280,0.0009989999999999721
998998,3643,6959,128029,-2958,3410,125394,65,19542,258,0,48281,0.0010000000000000009
999998,4338,2661,127584,-4127,-2597,127797,75,19545,266,0,48282,0.0010000000000000009
1000998,5623,-1868,127416,-2210,-3989,128903,75,19538,307,1,48283,0.001000000000000112
1002001,7610,2265,128137,2333,255,126135,66,19545,270,1,48284,0.0010029999999998651
1002998,9642,4554,128211,-1629,1632,125577,63,19541,258,1,48285,0.0009970000000001367
1003998,6196,2786,127302,-2052,-754,126850,67,19536,274,1,48286,0.0009999999999998899
1004998,4413,1949,127148,-1154,166,126611,65,19536,274,1,48287,0.001000000000000112
1006000,5016,2789,127272,-4968,-1033,128367,62,19544,266,1,48288,0.0010019999999999474
1006998,6638,5272,128371,-2329,4525,123502,62,19545,254,1,48289,0.0009980000000000544
1008001,7812,4723,128641,-272,-1216,128267,62,19545,254,1,48290,0.0010029999999998651
1008999,3968,-2439,126763,2738,-4360,128977,67,19543,274,1,48291,0.0009980000000000544
1009998,7787,1040,127480,-9757,-1091,125548,73,19537,299,1,48292,0.0009989999999999721
1011001,7998,3224,128496,-645,2119,127895,66,19537,299,0,48293,0.0010030000000000872
1012000,7675,7974,128657,5493,3945,123801,62,19544,270,0,48294,0.0009989999999999721
1012998,4708,-1990,127023,-12864,-5619,129919,62,19543,254,0,48295,0.0009980000000000544
1013998,4057,-46,127731,-2047,-2046,127022,67,19542,274,0,48296,0.0009999999999998899
1014998,3725,2207,126762,5306,-149,127862,68,19539,279,0,48297,0.0009999999999998899
1015998,6827,8231,128152,-10304,6647,122673,66,19546,270,0,48298,0.001000000000000112
1016998,9278,6116,128954,-3126,1855,126388,67,19546,274,0,48299,0.0009999999999998899
1017998,7310,-2411,126859,5672,-5086,130794,68,19540,274,0,48300,0.001000000000000112
1018998,6582,-676,128083,-1739,-3404,127211,73,19540,279,0,48301,0.0009999999999998899
1019998,5110,873,128546,-6918,-1843,127368,73,19539,299,0,48302,0.001000000000000112
1020998,4538,3741,128211,-97,1330,127201,82,19535,336,1,48303,0.0009999999999998899
1021998,4390,5752,128348,-5734,3293,126213,80,19544,328,1,48304,0.001000000000000112
1022998,7814,5960,127892,-2644,3085,125457,64,19544,262,1,48305,0.0009999999999998899
1023998,7613,828,126644,-641,-2005,126101,72,19542,262,1,48306,0.001000000000000112
1024998,8223,-1547,127414,-41,-4209,128290,70,19541,295,1,48307,0.0009999999999998899
1025998,6993,-238,127903,1900,-2803,129444,70,19541,287,1,48308,0.001000000000000112
1026998,6548,5168,128364,-7048,2555,126040,67,19538,274,1,48309,0.0009999999999998899
1027998,5519,6934,128658,-3696,4264,124321,65,19542,266,1,48310,0.001000000000000112
1029000,3946,2416,127026,1668,-577,128017,69,19542,283,1,48311,0.0010019999999999474
1029998,5213,-1546,126485,-6233,-4372,127660,76,19539,283,1,48312,0.0009980000000000544
1030998,5998,3726,128543,-4292,886,125251,89,19542,311,0,48313,0.0009999999999998899
1031998,5523,3975,127901,2190,1168,128230,89,19543,365,0,48314,0.001000000000000112
1032998,8858,4036,128854,-3599,2541,126822,64,19542,262,0,48315,0.0009999999999998899
1033998,6523,-1159,127736,-4470,-3860,129053,69,19538,283,0,48316,0.001000000000000112
1034998,6109,-47,126355,4437,-2956,126438,67,19543,274,0,48317,0.0009999999999998899
1035998,5379,4199,128036,-4551,855,124701,67,19543,274,0,48318,0.001000000000000112
1036998,7957,6261,128599,-6769,2542,126439,64,19543,274,0,48319,0.0009999999999998899
1037998,6288,2929,127227,2321,-1066,128659,64,19541,262,0,48320,0.001000000000000112
1038998,5869,1776,127736,-992,-932,126884,68,19539,279,0,48321,0.0009999999999998899
1039998,6706,752,127398,-3346,-1625,126814,78,19538,319,0,48322,0.001000000000000112
1040998,7485,2479,127773,294,532,126990,88,19543,360,1,48323,0.0009999999999998899
1041998,10753,3360,129111,-1177,1065,126452,62,19543,360,1,48324,0.001000000000000112
1042998,8501,2568,127930,-956,-1150,127900,70,19544,254,1,48325,0.0009999999999998899
1043998,4656,439,127570,174,-2198,127355,70,19540,287,1,48326,0.001000000000000112
1044999,3049,777,126859,-5974,-1031,126845,70,19541,287,1,48327,0.0010010000000000296
1046000,5904,5171,128366,-3376,3758,126446,68,19543,279,1,48328,0.0010010000000000296
1046998,9644,6764,128214,787,3302,125286,66,19542,270,1,48329,0.0009979999999998324
1047998,7474,2461,127306,-906,-1597,127154,67,19542,270,1,48330,0.001000000000000112
1048998,6742,-496,127711,-495,-4133,127973,71,19544,274,1,48331,0.0009999999999998899
1049998,5368,-1236,127225,-3241,-2992,127968,71,19542,291,1,48332,0.001000000000000112
1050998,3860,3860,128598,-4769,2268,127060,81,19532,332,1,48333,0.0009999999999998899
1051998,4651,6485,128883,-5281,3089,125995,88,19535,360,0,48334,0.001000000000000112
1052998,5870,3445,127959,-741,189,127125,62,19540,254,0,48335,0.0009999999999998899
1053998,8597,258,127238,1896,-3081,127431,65,19540,254,0,48336,0.001000000000000112
1054998,8595,-867,127058,-541,-2819,127043,70,19543,266,0,48337,0.0009999999999998899
1055999,6378,3259,128107,-1201,1283,126403,70,19539,287,0,48338,0.0010010000000000296
1057000,5191,5482,129003,-6130,2819,127013,70,19538,287,0,48339,0.0010010000000000296
1057998,6942,4667,128549,-2549,1320,127598,67,19539,274,0,48340,0.0009980000000000544
1058998,5081,977,127561,581,-2224,127718,68,19538,279,0,48341,0.0009999999999998899
1059998,6406,-693,127029,-672,-3363,127435,75,19538,279,0,48342,0.001000000000000112
1060998,8379,949,127580,-2621,-1274,126515,85,19533,307,0,48343,0.0009999999999998899
1061998,6298,5252,128426,-1835,2849,126473,85,19529,348,1,48344,0.001000000000000112
1062998,9303,6549,127820,-1502,3249,126137,56,19543,229,1,48345,0.0009999999999998899
1063998,7570,2338,127634,-1272,-1235,127308,63,19542,258,1,48346,0.001000000000000112
1064998,5810,-1473,127052,796,-4384,128574,64,19539,262,1,48347,0.0009999999999998899
1065998,5962,416,127510,-2026,-2013,126856,62,19539,254,1,48348,0.001000000000000112
1066998,6757,3569,128568,-3539,1615,127086,62,19544,254,1,48349,0.0009999999999998899
1067998,7718,6519,128369,-1266,3714,125083,64,19540,254,1,48350,0.001000000000000112
1068998,4408,3832,127561,-2105,947,126268,64,19543,262,1,48351,0.0009999999999998899
1069998,4912,1266,127129,-2779,-1776,127605,69,19537,283,0,48352,0.001000000000000112
1070998,6109,-65,127326,-1459,-2364,127833,54,19543,221,0,48353,0.0009999999999998899
1071998,9593,2865,128257,879,460,126951,66,19543,270,0,48354,0.001000000000000112
1072998,7061,3212,128358,-2666,438,126616,72,19541,270,0,48355,0.0009999999999998899
1073998,3838,2400,127866,-2326,-257,126377,68,19541,295,0,48356,0.001000000000000112
1074999,4499,895,127318,-4220,-1966,128319,68,19541,279,0,48357,0.0010010000000000296
1075998,7151,4295,127619,-3482,1838,125860,63,19540,258,0,48358,0.0009989999999999721
1076998,6968,5263,128009,547,2693,125334,63,19544,258,0,48359,0.0009999999999998899
1077998,7257,1173,127557,-1592,-1259,127608,66,19544,270,0,48360,0.001000000000000112
1078999,7047,-1279,127625,-2136,-3923,129311,70,19544,270,0,48361,0.0010010000000000296
1080000,5558,1590,128335,-1173,-1394,126885,77,19540,287,0,48362,0.0010009999999998076
1080998,5383,4795,128260,-3764,1924,125466,77,19537,315,0,48363,0.0009980000000000544
1081998,5259,5518,128176,-4698,3082,126402,87,19532,356,1,48364,0.001000000000000112
1082998,4310,2677,127394,-2549,52,127148,63,19544,258,1,48365,0.0009999999999998899
1083999,9877,-1729,126280,1055,-3441,127301,63,19542,258,1,48366,0.0010010000000000296
1084998,6946,1132,127805,-1004,-2355,127351,65,19542,258,1,48367,0.0009989999999999721
1085998,6280,2977,128464,-1033,2711,126172,62,19544,266,1,48368,0.001000000000000112
1087000,4726,3453,128523,-4472,243,129230,62,19542,254,1,48369,0.0010019999999999474
1088001,6199,5350,128343,-2004,1687,126871,58,19544,238,1,48370,0.0010010000000000296
1088999,5514,3401,127090,-2564,1371,123776,61,19542,250,1,48371,0.0009980000000000544
1090000,5931,2444,127143,-1627,-1345,125881,70,19540,287,0,48372,0.0010009999999998076
1091000,6098,-637,127282,-1300,-5967,129450,53,19540,287,0,48373,0.001000000000000112
1091998,8022,-1346,128028,-967,299,127279,65,19547,217,0,48374,0.0009980000000000544
1092998,4654,6122,128893,-4600,2934,126429,65,19540,266,0,48375,0.0009999999999998899
1093998,5078,5994,128248,-1789,3024,125272,64,19545,262,0,48376,0.001000000000000112
1094998,5080,568,127306,-1847,-3933,129296,59,19542,242,0,48377,0.0009999999999998899
1095998,7919,-362,127156,-2851,-1160,126125,57,19546,233,0,48378,0.001000000000000112
1096998,7454,4576,127813,-221,1599,124445,60,19546,233,0,48379,0.0009999999999998899
1097998,5722,2857,127829,-1732,342,127187,65,19544,246,0,48380,0.001000000000000112
1098998,4479,985,127937,-5173,-3052,129324,65,19543,266,1,48381,0.0009999999999998899
1099998,5217,2172,128489,-2405,1316,128385,72,19544,295,1,48382,0.001000000000000112
1100998,9149,5273,127805,1799,1164,126448,56,19544,229,1,48383,0.0009999999999998899
1101998,8320,3804,127998,-3279,1536,123700,63,19546,258,1,48384,0.001000000000000112
1102998,6653,520,127832,-647,-3639,128222,67,19546,258,1,48385,0.0009999999999998899
1103998,4745,-2891,126699,-1011,-4745,129953,66,19541,274,1,48386,0.001000000000000112
1104998,4607,4946,128418,-5647,3219,126046,66,19546,270,1,48387,0.0009999999999998899
1105998,4973,7027,128273,-4284,4941,125264,63,19544,258,1,48388,0.001000000000000112
1106998,5949,5192,127975,-28,1354,126371,60,19540,246,1,48389,0.0009999999999998899
1107998,8452,-1811,127566,-886,-4757,128820,62,19543,254,1,48390,0.001000000000000112
1108998,7416,-2353,127302,-2443,-4474,127073,68,19543,279,1,48391,0.0009999999999998899
1109998,5414,3561,128224,-2135,1516,126089,77,19541,279,1,48392,0.001000000000000112
1110998,3198,5693,128282,-6102,2398,126763,52,19539,315,0,48393,0.0009999999999998899
1111998,4717,4001,127353,-3943,659,127278,52,19542,213,0,48394,0.001000000000000112
1113000,4545,3028,127233,-4080,-23,126531,65,19541,266,0,48395,0.0010019999999999474
1113998,6775,1393,127351,-751,-1239,125961,67,19544,274,0,48396,0.0009980000000000544
1114999,8573,263,127956,985,-2602,127727,65,19544,266,0,48397,0.0010009999999998076
1115998,7979,1385,128255,-2147,-1032,128179,61,19543,266,0,48398,0.0009990000000001942
1117001,5270,5019,127624,-3833,2312,126020,63,19546,250,0,48399,0.0010029999999998651
1117999,4044,6120,128004,-3479,3257,125738,63,19540,258,0,48400,0.0009980000000000544
1119000,4597,1568,127479,-2048,-1370,126697,73,19535,299,0,48401,0.0010010000000000296
1119998,5722,-1452,127320,-2687,-4280,128843,80,19540,328,1,48402,0.0009980000000000544
1120998,8834,2789,127802,-346,-1115,126788,56,19540,229,1,48403,0.0009999999999998899
1121998,8740,5885,128540,1760,3418,124924,64,19544,229,1,48404,0.001000000000000112
1122998,6053,3591,127673,-4940,816,126192,66,19545,262,1,48405,0.0009999999999998899
1123998,4190,1343,127444,-1531,-1529,128262,66,19542,270,1,48406,0.001000000000000112
1124998,3297,917,127612,-2587,-2220,128507,64,19544,262,1,48407,0.0009999999999998899
1125998,8139,3292,127589,-5073,784,125646,61,19547,250,1,48408,0.001000000000000112
1126998,5828,5742,128084,3499,2483,122469,62,19544,254,1,48409,0.0009999999999998899
1127998,9400,2190,126750,-2099,1224,133962,71,19544,254,1,48410,0.001000000000000112
1128998,7698,-804,126674,-2631,-4987,119977,77,19540,291,1,48411,0.0009999999999998899
1129998,5501,8685,130078,-3101,7946,131455,77,19538,315,0,48412,0.001000000000000112
1131002,7653,-4073,126964,-129,-2089,126496,55,19541,225,0,48413,0.0010039999999997828
1131999,2845,964,128673,-1648,-7126,130839,65,19542,266,0,48414,0.0009970000000001367
1132998,5499,-4060,126154,-5359,532,127112,69,19542,283,0,48415,0.0009989999999999721
1133999,4484,14814,127955,-2402,12791,118037,66,19542,283,0,48416,0.0010010000000000296
1134998,7933,8067,128830,-3897,1923,130049,66,19547,270,0,48417,0.0009989999999999721
1135998,8757,171,126724,1022,-5047,126371,66,19546,270,0,48418,0.0009999999999998899
1136998,4560,-3312,128021,-712,-5087,131165,65,19544,266,0,48419,0.001000000000000112
1137998,8831,-2441,127954,-1319,-4420,128483,71,19540,291,0,48420,0.0009999999999998899
1139000,4077,4022,128706,263,2472,124873,77,19533,315,0,48421,0.0010020000000001694
1139998,4971,3762,128010,-8755,1256,128786,86,19533,315,1,48422,0.0009979999999998324
1141000,5948,7527,127591,-6262,6139,122174,52,19535,352,1,48423,0.0010020000000001694
1141998,7721,5746,127940,7400,97,128783,52,19538,213,1,48424,0.0009979999999998324
1142998,7692,-1364,126767,-5630,-3734,125797,66,19542,270,1,48425,0.001000000000000112
1143998,7616,-1506,127825,-2498,-5397,130088,71,19537,291,1,48426,0.0009999999999998899
1144998,6795,-687,128173,6342,-1225,130225,68,19542,279,1,48427,0.001000000000000112
1145998,5066,6948,127472,-8439,5245,121800,67,19542,279,1,48428,0.0009999999999998899
1146998,7378,8884,128835,-7762,4930,125479,66,19540,274,1,48429,0.001000000000000112
1147998,4375,1576,126832,6169,-2818,127990,66,19544,270,1,48430,0.0009999999999998899
1148998,6423,-3366,126503,-4814,-5608,128589,70,19533,287,1,48431,0.001000000000000112
1149998,4462,2572,128808,-6718,505,126644,80,19536,328,0,48432,0.0009999999999998899
1151000,5863,4852,127867,3682,1380,126288,62,19542,254,0,48433,0.0010020000000001694
1151998,7929,4213,128139,-2773,1175,127136,67,19542,274,0,48434,0.0009979999999998324
1152998,7040,1024,127512,-3939,-1674,127086,69,19540,274,0,48435,0.001000000000000112
1153998,5681,2031,126812,2606,-869,126158,65,19540,283,0,48436,0.0009999999999998899
1154999,6327,2598,128137,-5017,619,125449,65,19544,266,0,48437,0.0010010000000000296
1156000,7348,4494,128861,-3038,1407,127307,63,19542,258,0,48438,0.0010010000000000296
1157001,5971,1176,127378,1286,-1665,129010,66,19542,270,0,48439,0.0010010000000000296
1157998,5187,3506,127886,-2965,939,126142,73,19542,299,0,48440,0.0009969999999999146
1158998,7898,738,126956,-2223,-1780,127280,82,19541,299,0,48441,0.001000000000000112
1159998,7443,4646,127913,74,2321,125028,64,19536,336,1,48442,0.0009999999999998899
1160998,12307,2388,128896,-802,722,127523,64,19542,262,1,48443,0.001000000000000112
1161998,8052,1822,128300,417,-1229,127746,63,19538,258,1,48444,0.0009999999999998899
1162998,4373,-1021,127443,826,-3761,128621,69,19544,283,1,48445,0.001000000000000112
1163999,1866,2480,127260,-5962,-441,126685,67,19544,274,1,48446,0.0010010000000000296
1164999,5867,5058,128201,-5612,2342,126403,66,19544,274,1,48447,0.0009999999999998899
1165998,9456,8103,128372,1419,5483,124374,65,19539,270,1,48448,0.0009989999999999721
1166998,7815,1399,127056,-260,-1088,127005,65,19542,266,1,48449,0.001000000000000112
1167998,6791,62,127963,-1684,-2470,126655,69,19541,283,1,48450,0.0009999999999998899
1169000,5437,-3490,127107,-1143,-6326,129855,77,19534,315,1,48451,0.0010020000000001694
1169998,3364,4611,128802,-4300,1897,127081,83,19537,340,1,48452,0.0009979999999998324
1170998,4726,5880,128914,-7608,3228,126346,94,19537,340,0,48453,0.001000000000000112
1171998,7064,4153,127959,-2106,2371,126176,65,19544,385,0,48454,0.0009999999999998899
1172998,8747,-144,126827,3582,-2703,127198,65,19537,266,0,48455,0.001000000000000112
1173998,8724,-105,127186,-1590,-2591,126583,69,19545,283,0,48456,0.0009999999999998899
1174999,6499,2531,128138,297,-459,127377,70,19539,287,0,48457,0.0010010000000000296
1175998,4014,5163,129186,-4882,2223,127520,68,19539,279,0,48458,0.0009989999999999721
1176998,6442,4945,128729,-5196,1405,127090,64,19539,279,0,48459,0.001000000000000112
1177998,4994,1606,127322,290,-2583,127547,71,19541,262,0,48460,0.0009999999999998899
1178998,6714,-330,126933,78,-2447,126639,71,19540,291,0,48461,0.001000000000000112
1179998,8557,1035,127352,-2015,-453,126203,78,19535,319,0,48462,0.0009999999999998899
1180998,6547,5048,128513,-2253,3009,126566,92,19540,377,1,48463,0.001000000000000112
1181998,8973,4984,127935,-658,1411,127129,62,19540,254,1,48464,0.0009999999999998899
1182998,6993,1727,127777,-2520,-1781,128046,65,19540,254,1,48465,0.001000000000000112
1183998,5523,-1044,126882,649,-4092,127778,65,19542,266,1,48466,0.0009999999999998899
1184998,6087,1728,127257,-2977,-321,126649,65,19540,266,1,48467,0.001000000000000112
1186000,7220,4098,128089,-2717,2953,125797,62,19546,254,1,48468,0.0010019999999999474
1186999,7651,7222,128287,-1239,3017,125290,63,19540,258,1,48469,0.0009989999999999721
1187998,4190,2596,127251,-2332,-420,127215,64,19542,262,1,48470,0.0009989999999999721
1188998,4812,610,127353,-2363,-2758,127560,74,19542,262,0,48471,0.001000000000000112
1190001,7045,-1006,127514,-1212,-2074,128425,61,19543,303,0,48472,0.0010029999999998651
1190998,9378,4048,128503,871,2289,125869,61,19543,250,0,48473,0.0009970000000001367
1191998,7065,2675,127941,-2935,-581,126413,69,19542,283,0,48474,0.0009999999999998899
1192998,4278,3497,128067,-3654,252,126169,70,19544,287,0,48475,0.001000000000000112
1194000,4459,463,127459,-2978,-1674,128263,66,19541,270,0,48476,0.0010019999999999474
1194998,7132,4183,127848,-2489,1476,126341,63,19541,270,0,48477,0.0009980000000000544
1195998,6744,3878,128026,-918,1364,126166,64,19540,258,0,48478,0.0009999999999998899
1196998,6961,2256,127841,-908,-1064,127275,64,19544,262,0,48479,0.001000000000000112
1197998,7102,-1445,127125,-1890,-4138,128646,69,19539,283,0,48480,0.0009999999999998899
1198998,5510,2826,128592,-2867,712,126602,74,19539,303,0,48481,0.001000000000000112
1199998,5160,3559,128208,-4460,1518,126673,83,19539,340,0,48482,0.0009999999999998899
1200998,4547,5520,128437,-3820,2377,125990,92,19539,377,1,48483,0.001000000000000112
1201998,4325,1429,127453,-809,-1389,127866,59,19538,377,1,48484,0.0009999999999998899
1202998,9821,-686,126522,387,-2909,126667,64,19542,242,1,48485,0.001000000000000112
1203998,8120,1636,127542,-177,-1258,126733,64,19544,262,1,48486,0.0009999999999998899
1204998,7383,5022,128983,-1192,2753,125556,63,19544,258,1,48487,0.001000000000000112
1206000,4876,1104,128331,-4817,-2238,130324,61,19546,250,1,48488,0.0010019999999999474
1207000,5504,4853,128746,-2488,2118,127502,60,19546,246,1,48489,0.0009999999999998899
1207999,3864,2884,127121,-2063,215,125404,66,19540,246,1,48490,0.0009990000000001942
1208998,5125,3388,127311,-3289,731,124873,75,19543,270,0,48491,0.0009989999999999721
1209998,6308,-127,126770,-2018,-3350,127768,75,19544,307,0,48492,0.0009999999999998899
1210998,9466,719,127930,277,-1113,127679,61,19540,250,0,48493,0.001000000000000112
1211998,5638,4904,128656,-4239,1863,126713,65,19543,266,0,48494,0.0009999999999998899
1212998,5460,4949,128486,-1687,2107,125928,63,19544,258,0,48495,0.001000000000000112
1213999,4967,-663,127375,-1290,-3460,129687,57,19544,258,0,48496,0.0010010000000000296
1214998,7060,560,127332,-3629,-2387,127505,58,19542,233,0,48497,0.0009989999999999721
1215998,6798,5439,127671,-2041,2809,123511,58,19544,238,0,48498,0.0009999999999998899
1216998,5830,3992,127818,-380,1339,126083,63,19540,258,0,48499,0.001000000000000112
1218000,4695,1143,127710,-3894,-1653,128063,70,19541,287,1,48500,0.0010019999999999474
1218999,6018,1844,128140,-3892,-1262,129505,59,19545,242,1,48501,0.0009989999999999721
1219998,9447,4730,127911,2493,1818,126586,58,19545,242,1,48502,0.0009989999999999721
1220998,8100,2984,127992,-1410,446,124222,67,19544,238,1,48503,0.001000000000000112
1221998,7103,-428,127542,-3129,-2434,128939,67,19542,274,1,48504,0.0009999999999998899
1222998,4890,-2652,127040,277,-5661,128937,66,19541,270,1,48505,0.001000000000000112
1223998,5102,5581,128165,-4001,4719,125309,65,19540,266,1,48506,0.0009999999999998899
1224998,4856,8044,128410,-6317,5687,124836,63,19546,258,1,48507,0.001000000000000112
1225999,6075,5626,127841,1779,-719,127854,62,19546,258,1,48508,0.0010009999999998076
1226998,7417,-1859,127406,1514,-5541,128602,64,19547,254,1,48509,0.0009990000000001942
1227998,6882,-1939,127451,-3252,-3466,127067,64,19544,262,1,48510,0.0009999999999998899
1228998,5528,2667,128257,-1245,1405,126162,72,19538,295,0,48511,0.001000000000000112
1229998,2953,5208,128049,-5268,2223,127017,84,19545,344,0,48512,0.0009999999999998899
1231000,5075,3892,127292,-5049,1200,126951,61,19544,250,0,48513,0.0010019999999999474
1231998,4982,3529,127343,-3636,94,125913,65,19544,250,0,48514,0.0009980000000000544
1232999,6473,1254,127622,1790,-971,126272,65,19544,266,0,48515,0.0010010000000000296
1233998,7936,-51,127816,-1545,-3492,128401,65,19544,266,0,48516,0.0009989999999999721
1235000,8145,871,128139,-2638,-151,127537,62,19543,254,0,48517,0.0010019999999999474
1236000,5923,5531,127517,-2720,3062,125562,62,19546,254,0,48518,0.001000000000000112
1237000,3783,6312,127880,-2803,2973,125317,65,19538,266,0,48519,0.0009999999999998899
1238000,5434,1559,127577,-3081,-3191,128077,75,19538,266,0,48520,0.001000000000000112
1238998,5892,-1904,127302,-1080,-3829,127970,73,19540,307,1,48521,0.0009980000000000544
1239999,9336,3762,127705,675,998,126433,73,19546,299,1,48522,0.0010009999999998076
1241000,9642,4418,128111,-1857,2005,125671,62,19543,254,1,48523,0.0010010000000000296
1241998,4937,5319,128201,-1586,1568,126200,67,19540,274,1,48524,0.0009980000000000544
1242998,4138,-1347,126541,-3403,-4481,129787,66,19544,270,1,48525,0.001000000000000112
1243998,3051,2957,127941,-4402,929,125515,62,19544,254,1,48526,0.0009999999999998899
1244998,7196,3767,128206,-2351,1077,126649,61,19542,254,1,48527,0.001000000000000112
1245998,7494,3871,127533,-1766,1110,125568,65,19543,250,1,48528,0.0009999999999998899
1246998,6877,2522,127822,4219,244,126626,65,19542,266,1,48529,0.001000000000000112
1247999,5684,1057,126604,-4976,-2653,129279,73,19539,299,0,48530,0.0010009999999998076
1248999,8511,3241,128422,-8300,1753,124476,77,19545,315,0,48531,0.001000000000000112
1250000,6842,6353,129669,7551,1903,127535,63,19545,258,0,48532,0.0010010000000000296
1251000,4488,-4635,126346,-6074,-7458,130234,67,19540,258,0,48533,0.0009999999999998899
1252000,3277,-370,127589,-9333,-2713,126404,69,19541,274,0,48534,0.001000000000000112
1252998,4866,4917,127603,4838,2840,127686,69,19540,283,0,48535,0.0009979999999998324
1253998,6861,10317,126979,-4699,8086,121465,67,19540,274,0,48536,0.001000000000000112
1254998,9524,8359,129780,-9619,5027,124538,67,19539,274,0,48537,0.0009999999999998899
1255998,7305,-6922,126634,9520,-9789,133405,68,19539,279,0,48538,0.001000000000000112
1256998,6995,-4057,127094,156,-6529,127929,74,19543,279,0,48539,0.0009999999999998899
1257998,4559,2806,129927,-10786,34,127066,79,19535,303,0,48540,0.001000000000000112
1258998,5974,6050,128057,2544,3194,125884,79,19533,324,1,48541,0.0009999999999998899
1259998,2506,5379,127375,-5719,2503,126978,92,19545,377,1,48542,0.001000000000000112
1260998,9250,7283,128387,-6269,4328,124296,64,19541,262,1,48543,0.0009999999999998899
1261998,5739,-1729,126110,2820,-4195,127819,72,19538,295,1,48544,0.001000000000000112
1262998,8358,-1083,127947,586,-3729,127671,73,19538,295,1,48545,0.0009999999999998899
1263998,6092,-91,128246,-1597,-3082,129254,68,19543,299,1,48546,0.001000000000000112
1264998,7815,6051,128050,-4439,3245,126609,68,19542,279,1,48547,0.0009999999999998899
1265998,4909,7252,128321,-2910,4636,123714,63,19543,258,1,48548,0.001000000000000112
1266998,5025,2445,127245,-445,333,127800,67,19537,274,1,48549,0.0009999999999998899
1267998,5641,-3291,126519,-4677,-6373,127884,76,19534,311,1,48550,0.001000000000000112
1268998,6132,3087,128838,-3307,-73,127607,87,19534,311,0,48551,0.0009999999999998899
1269998,4917,4922,127823,727,1213,125649,64,19544,356,0,48552,0.001000000000000112
1270998,8427,6255,128527,-4105,1161,125879,64,19540,262,0,48553,0.0009999999999998899
1271998,5928,-1680,127234,-3780,-4624,129588,69,19541,283,0,48554,0.001000000000000112
1272998,6527,373,126481,4619,-1258,125494,69,19545,283,0,48555,0.0009999999999998899
1273998,5598,4484,128586,-5392,3345,124874,65,19538,266,0,48556,0.001000000000000112
1275000,8707,5812,128778,-622,1810,126675,65,19538,266,0,48557,0.0010019999999999474
1275998,5359,972,127068,1622,-2806,130133,69,19541,266,0,48558,0.0009980000000000544
1277000,6211,1822,127964,-4482,167,125940,69,19537,283,0,48559,0.0010019999999999474
1278000,6535,1640,126846,-1851,-986,126474,76,19535,311,0,48560,0.001000000000000112
1278998,7755,4487,128350,1010,2292,126093,85,19541,348,1,48561,0.0009979999999998324
1280001,11947,3274,128901,-1458,-421,126788,63,19542,258,1,48562,0.0010030000000000872
1280998,7439,938,127771,-1562,-2201,128676,69,19542,258,1,48563,0.0009969999999999146
1281998,3861,328,127599,745,-2601,127699,70,19538,283,1,48564,0.001000000000000112
1282998,2767,1114,127402,-6516,-166,126498,70,19537,287,1,48565,0.0009999999999998899
1284000,6014,6096,128429,-3561,3711,126771,67,19543,274,1,48566,0.0010020000000001694
1284998,10017,6486,128351,701,3508,124811,65,19540,266,1,48567,0.0009979999999998324
1285998,7555,1501,127072,77,-1962,127207,67,19535,274,1,48568,0.001000000000000112
1287000,6334,-657,127720,-629,-3815,127893,72,19535,295,1,48569,0.0010019999999999474
1287998,5530,-791,127334,-4105,-3049,128009,81,19538,295,1,48570,0.0009980000000000544
1288998,3544,4505,128861,-4592,2496,127328,88,19535,332,1,48571,0.0009999999999998899
1289998,3777,6544,128717,-5438,3240,126081,88,19533,360,0,48572,0.001000000000000112
1290998,7868,3444,127889,-842,64,126234,50,19544,205,0,48573,0.0009999999999998899
1291998,8412,-792,126914,1485,-3829,127843,66,19542,270,0,48574,0.001000000000000112
1292998,8278,-991,127081,232,-3156,126942,68,19542,279,0,48575,0.0009999999999998899
1293998,7015,4141,128067,-2582,1873,126346,69,19542,279,0,48576,0.001000000000000112
1294998,4099,6079,129113,-5648,3374,127263,67,19540,283,0,48577,0.0009999999999998899
1295998,6649,4298,128438,-2181,1157,127210,67,19538,274,0,48578,0.001000000000000112
1296998,5896,230,127319,90,-2674,127810,69,19540,283,0,48579,0.0009999999999998899
1297998,6482,-363,127189,72,-2878,126944,75,19537,307,0,48580,0.001000000000000112
1298998,8223,1468,127467,-2531,-1166,126513,85,19537,348,0,48581,0.0009999999999998899
1299998,6481,5791,128609,-3028,3200,126207,65,19536,348,1,48582,0.001000000000000112
1300998,8762,5477,128273,-898,2988,126553,64,19542,266,1,48583,0.0009999999999998899
1301998,6539,875,127283,-1736,-2122,127976,64,19538,262,1,48584,0.001000000000000112
1303025,6278,-1588,126858,644,-4457,128037,64,19542,262,1,48585,0.0010269999999998891
1303998,6007,1417,127539,-1783,-1153,126342,63,19547,258,1,48586,0.0009730000000001127
1304998,7720,4491,128432,-3106,2025,126814,61,19540,250,1,48587,0.0009999999999998899
1305998,7503,5897,127923,-2070,3494,125143,65,19540,250,1,48588,0.001000000000000112
1306998,3860,3725,127715,-2073,1287,126342,68,19545,266,1,48589,0.0009999999999998899
1308000,5188,184,127223,-2483,-2346,127966,68,19540,279,0,48590,0.0010020000000001694
1308999,8011,-693,127598,-1248,-2874,128284,62,19540,254,0,48591,0.0009989999999999721
1310000,8872,3676,128718,1343,1093,126447,66,19541,270,0,48592,0.0010009999999998076
1310999,6856,3005,128099,-2389,492,126487,69,19541,283,0,48593,0.0009990000000001942
1311998,4159,2814,128048,-3043,369,126308,69,19541,283,0,48594,0.0009989999999999721
1312998,3748,1731,127561,-3896,-1336,126342,65,19542,283,0,48595,0.0009999999999998899
1314000,7269,4182,127584,-3393,1487,126090,65,19542,266,0,48596,0.0010019999999999474
1314998,7412,4730,128199,448,2329,126912,62,19540,254,0,48597,0.0009980000000000544
1316001,6599,575,127784,-943,-1801,127541,65,19543,266,0,48598,0.0010030000000000872
1316998,7515,-1992,127445,-2113,-4722,129117,74,19536,303,0,48599,0.0009969999999999146
1318000,5745,3153,128570,-1514,1090,126931,80,19536,303,0,48600,0.0010019999999999474
1318998,5403,5379,128472,-3836,3902,125426,87,19534,328,0,48601,0.0009980000000000544
1319998,5086,4749,128004,-4827,769,127059,87,19529,356,1,48602,0.001000000000000112
1320998,5811,2196,127592,-2258,-2477,127510,72,19539,295,1,48603,0.0009999999999998899
1321998,9292,-1700,126731,1171,-3051,127062,61,19543,250,1,48604,0.001000000000000112
1322998,7485,310,127589,-1109,-2244,127273,63,19542,258,1,48605,0.0009999999999998899
1323998,5890,5478,129054,-3505,2984,126283,65,19542,258,1,48606,0.001000000000000112
1324998,4470,3383,128453,-3817,1065,128765,59,19545,266,1,48607,0.0009999999999998899
1325998,5966,4690,127850,-2106,1007,127115,59,19542,242,1,48608,0.001000000000000112
1327002,5465,3583,127285,-2827,985,124043,59,19544,242,1,48609,0.0010040000000000049
1327998,5702,1577,127260,-1278,-1235,125822,68,19539,279,0,48610,0.0009959999999999969
1328998,6321,-2190,126817,-683,-6696,130024,58,19538,238,0,48611,0.0009999999999998899
1329998,8040,1426,128113,-1914,1452,126560,62,19538,238,0,48612,0.001000000000000112
1330998,4820,6901,128790,-4246,3928,125833,64,19539,254,0,48613,0.0009999999999998899
1331998,4670,5673,128043,-1722,2073,125933,64,19538,262,0,48614,0.001000000000000112
1332998,5734,-161,127375,-2294,-4162,129262,61,19548,250,0,48615,0.0009999999999998899
1333998,8048,-44,127260,-2266,-1346,125822,56,19544,229,0,48616,0.001000000000000112
1334999,6823,4270,127472,130,1034,124854,58,19542,238,0,48617,0.0010010000000000296
1335998,5402,3157,128061,-2624,726,126956,65,19542,266,0,48618,0.0009989999999999721
1337000,4514,1095,127797,-5376,-2159,129059,71,19538,266,1,48619,0.0010019999999999474
1338000,5130,2947,128401,-1351,1566,128565,52,19546,291,1,48620,0.0009999999999998899
1338998,9808,4424,127613,1594,1151,125987,52,19547,213,1,48621,0.0009980000000000544
1340000,8020,3237,128289,-3255,929,124029,62,19540,254,1,48622,0.0010019999999999474
1341000,6936,-1020,127516,84,-4400,128678,67,19542,274,1,48623,0.001000000000000112
1342000,4399,-2323,126906,-1610,-4403,129714,67,19542,274,1,48624,0.0009999999999998899
1342998,4851,6738,128661,-6084,4414,125475,62,19544,274,1,48625,0.0009980000000000544
1343998,4807,7648,128119,-3956,4973,125217,60,19539,254,1,48626,0.001000000000000112
1344998,5953,4373,127636,-281,1124,126492,60,19544,246,1,48627,0.0009999999999998899
1345998,8061,-2620,127660,-909,-5520,128997,62,19542,254,1,48628,0.001000000000000112
1346998,7167,-2144,127407,-2463,-4379,127324,68,19541,279,1,48629,0.0009999999999998899
1347998,4868,3833,128632,-2153,1574,126297,78,19541,319,0,48630,0.001000000000000112
1348998,3233,5359,128048,-6436,2454,126797,57,19536,319,0,48631,0.0009999999999998899
1349998,4327,4013,127004,-4065,858,127188,66,19543,233,0,48632,0.001000000000000112
1350998,4782,3174,127304,-4962,279,126238,66,19543,270,0,48633,0.0009999999999998899
1351998,7660,1148,127502,384,-1609,126079,65,19543,266,0,48634,0.001000000000000112
1353000,8144,-310,128008,1092,-3033,128202,63,19540,258,0,48635,0.0010019999999999474
1353998,7966,1806,128202,-3094,-1083,128175,62,19543,254,0,48636,0.0009980000000000544
1354999,5497,5593,127603,-3470,2801,126070,63,19543,254,0,48637,0.0010009999999998076
1355998,3516,6108,127924,-2747,3275,125652,71,19543,258,0,48638,0.0009990000000001942
1357000,4595,1197,127463,-3445,-1200,126784,71,19541,291,0,48639,0.0010019999999999474
1357998,6514,-1579,127594,-2876,-4448,129092,81,19541,332,1,48640,0.0009980000000000544
1358999,9640,3429,127817,1912,-641,126565,53,19543,217,1,48641,0.0010009999999998076
1359998,8788,5011,128195,139,2470,125747,65,19541,266,1,48642,0.0009990000000001942
1360998,5899,3544,127797,-4668,1143,127413,67,19541,266,1,48643,0.0009999999999998899
1362000,4330,741,127362,-414,-1774,129101,65,19540,274,1,48644,0.0010019999999999474
1363000,3810,2023,127762,-3755,-1313,126548,65,19544,266,1,48645,0.001000000000000112
1364002,7223,2045,126992,-3764,764,123629,60,19543,246,1,48646,0.0010019999999999474
1364998,7161,8244,128763,1601,4239,126097,63,19542,258,1,48647,0.0009959999999999969
1365998,8420,-2752,126018,-526,-6478,131107,69,19544,283,1,48648,0.001000000000000112
1366998,6270,7443,129176,-1623,8039,120891,76,19544,283,0,48649,0.0009999999999998899
1367998,7191,304,128268,-6840,-5750,132821,53,19541,311,0,48650,0.001000000000000112
1368998,6922,2133,128058,4548,1228,124309,53,19544,217,0,48651,0.0009999999999998899
1369998,2963,-4735,127573,-7169,-10497,134032,65,19537,266,0,48652,0.0009999999999998899
1371000,6644,1957,126686,-5496,5783,121078,69,19542,283,0,48653,0.0010020000000001694
1372000,3766,13073,128267,1611,8233,124506,69,19540,283,0,48654,0.0009999999999998899
1372998,9695,5734,128058,-4265,2750,126262,67,19540,283,0,48655,0.0009980000000000544
1373998,6921,397,127106,-1477,-4898,128125,65,19541,274,0,48656,0.0009999999999998899
1375001,7231,-3282,128779,611,-5269,131253,65,19544,266,0,48657,0.0010030000000000872
1375998,7106,-833,127527,1034,-2841,126115,71,19540,291,0,48658,0.0009969999999999146
1377000,4871,3972,129246,-3976,1155,127913,77,19536,315,0,48659,0.0010020000000001694
1377998,4550,3589,127550,-7713,1548,126410,85,19535,348,1,48660,0.0009979999999998324
1378998,5124,7959,127920,-2883,5822,123539,55,19535,225,1,48661,0.001000000000000112
1379998,7805,4334,127821,4296,192,128807,66,19544,225,1,48662,0.0009999999999998899
1380998,7496,-1356,126833,-5226,-3789,125121,72,19539,270,1,48663,0.001000000000000112
1381998,7491,-2099,127820,-683,-4981,131509,72,19541,295,1,48664,0.0009999999999998899
1382998,7003,1287,127986,4735,177,127355,70,19540,287,1,48665,0.001000000000000112
1383998,5724,7497,127603,-8716,5116,123282,67,19538,274,1,48666,0.0009999999999998899
1384998,7238,7107,128527,-5466,3627,125803,65,19538,266,1,48667,0.001000000000000112
1385998,4564,912,126880,4278,-2897,127874,71,19543,266,1,48668,0.0009999999999998899
1387000,6125,-2667,126930,-4990,-4838,128920,81,19541,291,1,48669,0.0010020000000001694
1387999,4431,3162,128805,-5491,626,125798,81,19534,332,0,48670,0.0009989999999999721
1388998,6475,4433,127302,2572,776,127327,70,19542,287,0,48671,0.0009989999999999721
1389998,7973,4733,128129,-2680,1804,126118,67,19541,274,0,48672,0.0009999999999998899
1391001,7414,781,127497,-2434,-1936,127490,69,19541,283,0,48673,0.0010030000000000872
1391998,4934,1307,126584,1437,-1566,126637,68,19537,283,0,48674,0.0009969999999999146
1392999,6156,3435,128362,-5336,956,125200,65,19548,279,0,48675,0.0010010000000000296
1393998,7459,4128,128596,-2385,1306,127664,65,19542,266,0,48676,0.0009989999999999721
1394998,5205,1999,127113,1320,-718,128201,65,19541,266,0,48677,0.001000000000000112
1395998,5623,3011,127701,-3444,174,126550,72,19538,295,0,48678,0.0009999999999998899
1396999,7946,1413,127210,-2133,-1081,126855,80,19536,328,0,48679,0.0010010000000000296
1397999,7493,3977,127965,803,1295,125693,71,19536,328,1,48680,0.001000000000000112
1398998,12793,2848,128834,-1170,762,127183,63,19543,291,1,48681,0.0009989999999999721
1399998,6863,651,127807,-509,-1795,127940,63,19541,258,1,48682,0.0009999999999998899
1400998,4017,54,127327,861,-2859,128368,70,19538,287,1,48683,0.001000000000000112
1401998,2674,2087,127165,-5740,-813,126876,70,19540,287,1,48684,0.0009999999999998899
1402998,6698,6138,128508,-5299,2951,126329,65,19544,266,1,48685,0.001000000000000112
1404000,9068,7001,128284,760,4793,124704,66,19544,266,1,48686,0.0010019999999999474
1404998,7604,1617,127444,80,-1031,127008,69,19540,270,1,48687,0.0009980000000000544
1405998,5762,-1427,127747,-1454,-3453,127734,69,19538,283,1,48688,0.0009999999999998899
1406998,5058,-1792,127400,-2365,-5215,127477,73,19542,299,1,48689,0.001000000000000112
1407998,3821,5094,128925,-4053,2109,126912,83,19536,340,1,48690,0.0009999999999998899
1408998,4355,6072,128692,-6782,3485,125688,92,19541,377,0,48691,0.001000000000000112
1409998,8798,3041,127647,-1436,1653,127379,66,19541,377,0,48692,0.0009999999999998899
1410999,8429,-328,127143,2561,-2697,126881,68,19538,270,0,48693,0.0010010000000000296
1411998,7965,189,127123,-1124,-2142,126962,68,19543,279,0,48694,0.0009989999999999721
