t_us,ax,ay,az,ax1,ay1,az1,shunt_raw,bus_raw,curr_raw,pg_rpm,seq,dt
0,10129,7916,130390,-10601,8855,125061,183,19185,1593,1,62034,
1001,11981,9072,127651,7896,3884,122603,275,19224,750,1,62035,0.001001
2000,7416,-14560,125772,-2275,-17614,138517,275,19198,1126,1,62036,0.000999
3000,5271,-6713,125498,-100,-3981,122609,316,19196,1294,1,62037,0.001
4000,4459,4724,128579,-4621,4557,126770,362,19182,1483,0,62038,0.001
5000,9449,10189,130913,-3607,7726,124086,162,19182,664,0,62039,0.001
6000,13054,489,128849,6994,-2495,127798,288,19211,664,0,62040,0.001
7000,6747,-4778,125903,761,-4717,127958,323,19199,1180,0,62041,0.0009999999999999992
8001,5506,-2503,126640,-713,-3909,124840,323,19202,1323,0,62042,0.0010010000000000002
9000,6782,-9228,127099,-4826,-8589,133970,370,19192,1515,1,62043,0.0009989999999999999
10000,11288,9705,130443,595,12206,121653,171,19216,700,1,62044,0.0010000000000000009
11000,12429,7458,129103,3057,5199,124804,273,19203,1118,1,62045,0.0009999999999999992
12000,6845,-7059,126671,-690,-9023,129216,307,19203,1118,1,62046,0.0010000000000000009
13000,5769,-14448,125943,1704,-15070,134106,349,19198,1257,1,62047,0.0009999999999999992
14000,7134,1969,128888,-4663,4076,125255,349,19190,1429,0,62048,0.0009999999999999992
15000,8593,16279,130360,-2493,15084,119131,337,19223,1380,0,62049,0.0010000000000000009
16001,14155,-3459,126205,4237,-5360,130759,272,19204,1114,0,62050,0.0010009999999999984
17000,6969,-8238,126845,3140,-9075,128932,304,19203,1245,0,62051,0.0009989999999999999
18000,7912,-5431,126808,2302,-5627,129097,343,19203,1245,0,62052,0.0010000000000000009
19000,8472,5024,129007,-4433,4202,124472,260,19192,1405,1,62053,0.0010000000000000009
20003,14845,7338,128663,1341,3710,127151,260,19227,1065,1,62054,0.0010030000000000004
21000,14994,-481,128062,7256,-687,127200,263,19209,1077,1,62055,0.0009969999999999979
22000,5919,-5047,126049,4724,-6445,127398,298,19197,1221,1,62056,0.0010000000000000009
23000,6532,-8229,125802,-4490,-9389,131092,333,19200,1364,1,62057,0.0010000000000000009
24000,6582,5973,129338,-3552,5324,124597,393,19200,1364,0,62058,0.0010000000000000009
25000,16042,13430,130934,4626,15051,123471,265,19235,1610,0,62059,0.0009999999999999974
26000,12721,-445,126456,2119,-561,129008,265,19209,1085,0,62060,0.0010000000000000009
27000,6643,-13039,127045,3380,-13069,131183,307,19202,1257,0,62061,0.0010000000000000009
28002,7482,-4809,126745,1088,-6316,127625,340,19197,1393,0,62062,0.0010019999999999994
29000,5214,8227,129910,-6621,6016,123204,390,19218,1597,1,62063,0.0009979999999999989
30000,11728,7683,130779,-1701,9426,128154,236,19218,1597,1,62064,0.0010000000000000009
31000,12419,-1541,126010,6368,-2284,125570,279,19211,967,1,62065,0.0010000000000000009
32000,7945,-723,126797,2136,-4494,127814,279,19203,1143,1,62066,0.0010000000000000009
33000,7585,-5841,125735,3357,-4433,128300,318,19198,1302,1,62067,0.0010000000000000009
34000,7408,6309,129440,-6626,9832,123979,374,19215,1532,0,62068,0.000999999999999994
35000,17035,11233,128368,8022,7515,125838,257,19204,1053,0,62069,0.0010000000000000009
36000,7866,2164,125318,-2648,-2295,125856,294,19204,1204,0,62070,0.0010000000000000009
37000,3632,-6165,126258,-2350,-9337,129293,325,19206,1204,0,62071,0.0010000000000000009
38000,6018,-4192,126675,-1341,-953,128423,376,19197,1331,0,62072,0.0010000000000000009
39000,7174,8338,129713,-5099,9670,125423,376,19201,1540,1,62073,0.0010000000000000009
40000,13084,3826,128933,2074,-750,124806,180,19219,737,1,62074,0.0010000000000000009
41000,8191,2085,125987,-1691,3703,121945,281,19199,1151,1,62075,0.000999999999999994
42000,9153,-1483,125329,-2439,-8213,131481,314,19199,1286,1,62076,0.0010000000000000009
43000,5894,-1417,126127,12254,5326,124454,357,19192,1286,1,62077,0.0010000000000000009
44000,1859,13035,129874,-20703,9945,125327,247,19192,1462,0,62078,0.0010000000000000009
45000,17654,280,129233,-7356,-709,124869,247,19216,1012,0,62079,0.0010000000000000009
46000,6453,-2142,128131,18266,-7936,131165,282,19208,1155,0,62080,0.0010000000000000009
47000,7671,-13662,126787,-4833,-12618,132787,319,19200,1307,0,62081,0.0010000000000000009
48001,1586,2845,125650,-12379,5988,120092,366,19200,1499,0,62082,0.001000999999999995
49000,1956,18680,131629,-1946,17990,125027,249,19191,1499,1,62083,0.0009989999999999999
50000,20431,10947,125429,-4028,7199,120896,266,19221,1020,1,62084,0.0010000000000000009
51000,7970,-1862,126617,9268,-4301,129242,266,19205,1089,1,62085,0.0010000000000000009
52002,4764,-14927,125888,-3392,-19330,135978,305,19201,1249,1,62086,0.0010020000000000029
53000,3996,-8696,126332,-5887,-2761,123113,356,19194,1458,0,62087,0.0009979999999999989
54002,2432,18063,134865,-7104,16509,126858,298,19222,1221,0,62088,0.001001999999999996
55002,16425,5781,126667,388,862,124490,284,19222,1221,0,62089,0.0010000000000000009
56002,1030,582,125413,-4582,-747,125778,315,19203,1163,0,62090,0.0010000000000000009
57000,5725,-8605,126265,-2740,-11476,132059,315,19203,1290,0,62091,0.0009979999999999989
58000,7247,-2390,125397,-14,619,121145,348,19192,1425,0,62092,0.0010000000000000009
59002,7040,10696,133283,-3461,8708,130406,411,19220,1683,1,62093,0.0010020000000000029
60000,11799,-2667,126822,-3788,-3209,126281,243,19209,995,1,62094,0.0009979999999999989
61001,6656,2335,127627,5295,1676,125527,293,19209,995,1,62095,0.0010010000000000019
62001,7013,-9604,126759,-3826,-11255,132086,328,19206,1200,1,62096,0.0010000000000000009
63000,7330,-1955,125021,-926,-1981,121932,328,19195,1343,0,62097,0.0009989999999999999
64000,5390,7199,130845,-2261,6227,131812,385,19217,1577,0,62098,0.0010000000000000009
65000,15663,7270,128581,-2771,9704,119799,257,19209,1053,0,62099,0.0010000000000000009
66001,8556,-2009,126472,169,-4193,129907,297,19203,1216,0,62100,0.001000999999999988
67000,4529,-12512,126409,6125,-13755,132826,334,19203,1216,0,62101,0.0009989999999999999
68000,7464,-3107,126865,-6014,-3065,124546,391,19200,1368,1,62102,0.0010000000000000009
69000,6565,6321,130801,-4578,6112,128148,391,19216,1601,1,62103,0.0010000000000000009
70000,14285,10609,127726,2581,8399,119894,238,19213,975,1,62104,0.0010000000000000009
71001,5154,-6008,126699,-4853,-6925,132106,283,19201,1159,1,62105,0.0010010000000000019
72002,5399,-8290,126539,-408,-9217,128430,315,19200,1290,1,62106,0.0010010000000000019
73002,6026,-4036,127027,5301,-5463,129186,365,19200,1495,0,62107,0.0010000000000000009
74000,10768,7321,129576,-6355,6665,120163,201,19188,1495,0,62108,0.0009979999999999989
75000,17424,7509,127741,290,7333,126656,201,19219,823,0,62109,0.0010000000000000009
76000,10705,-5389,125293,6436,-6479,130695,286,19202,1171,0,62110,0.0010000000000000009
77000,7364,-7536,126247,1858,-9006,129029,315,19198,1290,0,62111,0.0010000000000000009
78000,3345,-4204,127681,-2625,816,127677,358,19200,1466,1,62112,0.0010000000000000009
79000,8746,11908,130549,-6689,9937,122946,186,19200,762,1,62113,0.0010000000000000009
80000,16834,2718,129499,5623,-1903,128657,276,19220,762,1,62114,0.0010000000000000009
81002,10638,-4338,126831,3178,-7346,127365,307,19205,1130,1,62115,0.001001999999999989
82002,8123,-8994,125667,1181,-7280,128807,307,19198,1257,1,62116,0.0010000000000000009
83000,6039,999,127945,-8938,5154,124863,350,19189,1433,0,62117,0.0009979999999999989
84000,10553,11740,130640,4242,9403,126565,208,19219,852,0,62118,0.0010000000000000009
85000,12787,3930,128269,4350,1708,126638,280,19219,1147,0,62119,0.0010000000000000009
86000,5692,-4287,126618,-435,-9621,128208,314,19205,1147,0,62120,0.0010000000000000009
87000,6648,-12176,126310,-36,-10195,131972,353,19203,1286,0,62121,0.0010000000000000009
88000,8811,223,128395,-3869,5462,124673,353,19194,1446,1,62122,0.0010000000000000009
89000,10243,12315,129299,1245,11229,122764,323,19232,1323,1,62123,0.0010000000000000009
90000,14411,8582,126726,5201,4213,124149,250,19217,1024,1,62124,0.0010000000000000009
91000,7137,-4593,126040,253,-8658,129660,288,19217,1180,1,62125,0.0010000000000000009
92000,7021,-9643,125103,1474,-7827,130583,331,19206,1180,1,62126,0.0010000000000000009
93000,7045,4117,128751,-2491,7429,124166,335,19197,1356,0,62127,0.0010000000000000009
94000,10680,10835,129305,-486,7960,123470,335,19223,1372,0,62128,0.0010000000000000009
95000,14069,3399,127791,6924,-66,125502,270,19204,1106,0,62129,0.0010000000000000009
96000,6613,-2239,125731,352,-5332,127714,303,19199,1241,0,62130,0.0010000000000000009
97000,7532,-5037,125564,-3408,-4639,127486,335,19196,1372,0,62131,0.000999999999999987
98000,4041,4555,128662,-3996,6060,124804,400,19196,1372,1,62132,0.0010000000000000009
99000,8556,10435,130053,-4062,9927,126617,245,19224,1638,1,62133,0.0010000000000000009
100001,10141,1097,126090,4692,-825,126747,245,19206,1003,1,62134,0.0010010000000000019
101000,3147,-7392,125677,-4687,-10534,130063,287,19200,1175,1,62135,0.0009989999999999999
102000,9975,-4326,124782,3600,689,121125,324,19196,1327,1,62136,0.0010000000000000009
103000,7521,15621,129554,2761,12961,127109,378,19215,1548,0,62137,0.0010000000000000009
104000,8016,1482,126822,-8671,1416,127656,250,19215,1548,0,62138,0.0010000000000000009
105000,12056,6661,128448,-8655,7339,118385,295,19210,1024,0,62139,0.0010000000000000009
106000,7977,-4487,128732,18599,-9063,134996,295,19213,1208,0,62140,0.0010000000000000009
107001,1254,-20320,123936,-943,-21150,134787,333,19198,1364,0,62141,0.0010010000000000019
108002,2497,2927,129723,-20393,6665,123298,383,19202,1569,1,62142,0.0010010000000000019
109000,8084,27436,128033,178,24472,116323,202,19210,827,1,62143,0.0009979999999999989
110000,18135,15072,128205,7924,13375,119362,283,19210,827,1,62144,0.0010000000000000009
111002,5206,-15036,125734,5500,-18357,136556,319,19207,1159,1,62145,0.001001999999999989
112002,4500,-17400,123466,-9952,-16686,129949,319,19201,1307,1,62146,0.0010000000000000009
113000,3968,10164,133214,-5891,10829,122872,376,19190,1540,0,62147,0.0009979999999999989
114000,11557,1977,131113,6685,2346,132485,169,19211,692,0,62148,0.0010000000000000009
115001,8312,2178,126191,-7051,2551,121792,300,19197,1229,0,62149,0.0010010000000000019
116000,-301,2732,128130,-2468,1485,126807,324,19197,1229,0,62150,0.0009989999999999999
117000,10470,-8207,122590,-5753,-9023,127262,369,19203,1327,0,62151,0.0010000000000000009
118003,4281,4792,130040,2505,4164,125232,369,19191,1511,1,62152,0.0010030000000000039
119000,8829,6081,130682,-6960,6034,127070,359,19231,1470,1,62153,0.0009969999999999979
120000,11604,4082,126608,877,2693,122185,261,19204,1069,1,62154,0.0010000000000000009
121001,2688,-17857,127640,743,-19010,136326,302,19195,1237,1,62155,0.0010010000000000019
122002,8179,-7144,124664,1775,-8695,118279,347,19195,1237,1,62156,0.0010010000000000019
123000,2192,15735,129993,-4557,14325,124393,267,19193,1421,0,62157,0.0009979999999999989
124000,17531,11427,128094,-9594,8358,124971,267,19221,1094,0,62158,0.0010000000000000009
125000,10945,-5062,126053,12091,-11251,134712,277,19198,1135,0,62159,0.0010000000000000009
126000,6792,-8921,126692,3142,-5249,124714,311,19204,1274,0,62160,0.0010000000000000009
127000,5132,-891,126544,-4605,-6204,128615,350,19192,1433,0,62161,0.0010000000000000009
128000,4184,-5059,128279,-4706,870,132014,335,19192,1372,1,62162,0.0010000000000000009
129000,18053,10127,130487,-154,12801,117637,265,19228,1372,1,62163,0.0010000000000000009
130000,8070,7046,127627,-2443,-764,127661,298,19204,1085,1,62164,0.0010000000000000009
131001,6423,-8016,126961,-2007,-13897,129563,298,19204,1221,1,62165,0.0010010000000000019
132001,3911,-15315,126503,1188,-12531,135888,331,19191,1356,1,62166,0.0010000000000000009
133000,9756,4677,130496,-4420,13167,121793,391,19212,1601,0,62167,0.0009989999999999999
134000,11684,14747,130859,4365,7669,121285,259,19212,1061,0,62168,0.0009999999999999731
135000,10388,-5783,126977,-2660,-11066,133307,297,19207,1061,0,62169,0.0010000000000000009
136000,10775,-11923,125115,6147,-10073,128336,326,19203,1216,0,62170,0.0010000000000000009
137000,6824,1470,127223,659,3608,125849,326,19197,1335,1,62171,0.0010000000000000009
138000,8801,10123,130576,-7213,9093,123160,379,19238,1552,1,62172,0.0010000000000000009
139000,15317,-476,129361,6162,-2575,130237,244,19209,999,1,62173,0.0010000000000000009
140000,11165,-4954,127323,2743,-6335,131260,286,19209,1171,1,62174,0.0010000000000000009
141000,4785,-7280,125576,6227,-7449,126257,319,19206,1171,1,62175,0.0010000000000000009
142002,6032,-2221,126736,-8235,-3,127620,369,19196,1307,0,62176,0.0010020000000000029
143000,11126,8553,129585,-3053,10910,123097,369,19219,1511,0,62177,0.0009979999999999989
144001,16081,13135,127786,7294,9325,122994,248,19210,1016,0,62178,0.0010010000000000019
145000,9496,-2447,126570,-1874,-8688,130943,322,19206,1319,0,62179,0.0009989999999999999
146002,3580,-14436,125037,1768,-13442,129562,322,19195,1319,0,62180,0.0010020000000000029
147002,6712,-2284,128514,-1882,-1478,129618,371,19195,1319,1,62181,0.0010000000000000009
148002,9324,9518,130632,-5884,10366,123197,175,19191,1520,1,62182,0.0010000000000000009
149000,14639,7770,127890,3177,4355,124928,175,19222,717,1,62183,0.0009979999999999989
150000,10530,-2801,125474,-126,-4180,127874,270,19204,1106,1,62184,0.0010000000000000009
151000,8834,-413,125835,5239,-1705,124218,301,19202,1233,1,62185,0.0010000000000000009
152000,7933,-2838,126374,561,-3430,131168,352,19190,1442,0,62186,0.0010000000000000009
153000,8296,5404,129401,-10517,5820,124574,176,19190,1442,0,62187,0.0010000000000000009
154001,14115,5544,129762,8851,6323,125275,285,19216,721,0,62188,0.0010010000000000019
155000,5738,929,126375,-896,-1012,126899,285,19211,1167,0,62189,0.0009989999999999999
156000,5447,-6906,125880,-2109,-7825,127215,315,19197,1290,0,62190,0.0010000000000000009
157000,5354,627,128111,-4008,844,128872,354,19193,1450,1,62191,0.0010000000000000009
158003,9984,7835,129084,-5719,6965,125565,266,19225,1089,1,62192,0.0010030000000000039
159002,11264,4901,126187,6625,3133,119971,265,19225,1089,1,62193,0.0009989999999999999
160000,7963,3230,125970,-7664,617,129792,308,19212,1085,1,62194,0.0009979999999999989
161000,9147,-11092,124920,6561,-10736,129136,308,19200,1261,1,62195,0.0010000000000000009
162000,1303,10500,127691,3216,9570,123273,345,19195,1413,0,62196,0.0010000000000000009
163000,8336,6203,128082,-22215,5201,126878,314,19225,1286,0,62197,0.0010000000000000009
164000,12220,1631,125523,2189,-924,123727,269,19204,1102,0,62198,0.0009999999999999731
165000,5996,-8429,127536,13182,-9445,134812,308,19204,1102,0,62199,0.0010000000000000009
166000,5157,-6171,124282,-9018,-6829,127408,351,19203,1261,0,62200,0.0010000000000000009
167000,1015,8330,128940,-7330,6820,121354,351,19194,1438,1,62201,0.0010000000000000009
168000,9147,16858,129409,-4375,16271,123983,402,19234,1646,1,62202,0.0010000000000000009
169000,17970,235,126865,4101,2864,124842,258,19205,1057,1,62203,0.0010000000000000009
170000,3036,-1722,128428,1688,-3191,132828,296,19203,1212,1,62204,0.0010000000000000009
171000,7992,-18725,124079,-3032,-19490,127261,333,19203,1364,1,62205,0.0010000000000000009
172001,2105,8716,131693,-4663,6736,125060,399,19202,1364,0,62206,0.0010010000000000019
173000,6521,8609,130867,-3676,564,129624,269,19232,1634,0,62207,0.0009989999999999999
174000,9841,1361,124245,-4810,5596,119928,269,19206,1102,0,62208,0.0010000000000000009
175000,3598,2053,128485,-4777,-8422,133442,312,19201,1278,0,62209,0.0010000000000000009
176000,10283,-12688,123263,5113,-4987,123658,342,19195,1401,0,62210,0.0010000000000000009
177000,3166,7835,129327,-1593,6797,128263,387,19195,1585,1,62211,0.0010000000000000009
178002,8334,775,129823,-8671,-281,126724,169,19191,1585,1,62212,0.0010020000000000029
179000,11818,8016,126405,8843,6163,122606,279,19222,692,1,62213,0.0009979999999999989
180000,6648,-6797,127316,-2219,-14553,136544,279,19201,1143,1,62214,0.0010000000000000009
181000,6512,-9886,123483,-871,-3595,121163,323,19205,1323,1,62215,0.0010000000000000009
182000,4327,2369,128752,-5980,2863,130768,376,19189,1540,0,62216,0.0010000000000000009
183000,10818,10399,130741,1392,12499,119077,178,19189,729,0,62217,0.0010000000000000009
184000,13313,6777,129070,6215,-2885,129811,285,19215,729,0,62218,0.0010000000000000009
185000,5190,-13271,125991,-1074,-13012,131808,319,19199,1167,0,62219,0.0010000000000000009
186002,6238,-3275,126229,-1446,-3457,123800,319,19213,1307,0,62220,0.0010020000000000029
187000,7179,-2433,128143,-3818,-553,131129,376,19195,1540,1,62221,0.0009979999999999989
188000,11722,11802,130975,2086,13444,118610,173,19215,709,1,62222,0.0010000000000000009
189000,11639,-1266,127273,1608,-7244,133342,279,19201,1143,1,62223,0.0010000000000000009
190000,5691,-7096,126998,-2498,-5110,125835,306,19201,1143,1,62224,0.0010000000000000009
191001,6215,-4935,126952,2725,-7905,131831,343,19194,1253,1,62225,0.0010010000000000019
192003,6362,-3257,128172,-5030,1520,126859,343,19194,1405,0,62226,0.0010019999999999751
193002,10151,13615,129967,-757,11061,119162,302,19224,1237,0,62227,0.0009989999999999999
194001,14097,-1507,126084,8269,-4993,131050,278,19204,1139,0,62228,0.0009989999999999999
195002,7316,-4256,127099,1604,-6145,125582,315,19197,1290,0,62229,0.0010010000000000019
196002,6502,-8246,126895,-2796,-8217,132523,348,19197,1290,0,62230,0.0010000000000000009
197002,7467,5145,129169,-2963,7266,123390,248,19193,1425,1,62231,0.0010000000000000009
198000,15069,8464,128255,6211,3485,127312,248,19223,1016,1,62232,0.0009979999999999989
199000,13881,-1524,127565,2821,-2236,127423,266,19206,1089,1,62233,0.0010000000000000009
200001,9467,-5978,125560,2068,-8072,127588,300,19204,1229,1,62234,0.0010010000000000019
201000,8369,-4462,125917,22,-3403,128398,343,19196,1405,1,62235,0.0009989999999999999
202000,6242,9673,130116,-3438,10126,123500,321,19196,1405,0,62236,0.0010000000000000009
203000,13072,4906,130146,-401,4106,127814,271,19230,1315,0,62237,0.0010000000000000009
204000,10128,-918,127230,2155,-2361,127715,271,19204,1110,0,62238,0.0010000000000000009
205000,6691,-9123,127172,4743,-10510,130716,302,19203,1237,0,62239,0.0010000000000000009
206000,9286,-4038,126325,-3471,-3173,127227,334,19197,1368,0,62240,0.0010000000000000009
207013,7520,8253,130141,-4294,7818,123504,396,19224,1622,1,62241,0.0010130000000000139
208000,13094,6737,129317,4016,6713,125387,242,19224,1622,1,62242,0.0009869999999999879
209000,11349,143,125964,6110,-797,124737,283,19211,991,1,62243,0.0010000000000000009
210000,5877,-4351,126840,-1513,-6070,129972,283,19212,1159,1,62244,0.0010000000000000009
211000,7628,-4274,125778,-1342,-4631,128369,318,19204,1302,1,62245,0.0010000000000000009
212000,6012,11239,131081,-2805,10942,123358,371,19212,1520,0,62246,0.0010000000000000009
213000,16734,7701,127004,3132,5972,126245,252,19209,1032,0,62247,0.0010000000000000009
214000,8827,-4147,124265,1949,-5326,126008,298,19209,1032,0,62248,0.0010000000000000009
215000,7459,-4665,126781,68,-5419,128041,332,19200,1221,0,62249,0.0010000000000000009
216000,7415,23,126400,-544,-356,125892,332,19195,1360,0,62250,0.0010000000000000009
217000,4182,8379,130746,-7716,7176,127027,384,19194,1573,1,62251,0.0010000000000000009
218000,10849,4185,130242,-1734,5963,126008,182,19216,745,1,62252,0.0010000000000000009
219000,8086,-1785,125749,4096,-2168,129278,272,19209,1114,1,62253,0.0010000000000000009
220000,5491,-5391,125388,-1963,198,121234,314,19209,1286,1,62254,0.0010000000000000009
221000,10745,6387,126530,14,3967,129022,367,19199,1286,1,62255,0.0010000000000000009
222000,5817,4657,128605,6821,7721,126227,175,19185,1503,0,62256,0.0010000000000000009
223000,12408,9508,130026,-15277,4227,120385,175,19213,717,0,62257,0.0010000000000000009
224000,12740,1330,128363,-5924,-4612,131287,285,19200,1167,0,62258,0.0009999999999999731
225001,289,-11951,127275,7783,-20244,137668,316,19199,1294,0,62259,0.0010010000000000019
226001,4650,-14264,124929,-22744,-1011,123908,361,19199,1479,1,62260,0.0010000000000000009
227000,-59,19880,129772,-3464,23495,118904,243,19195,1479,1,62261,0.0009989999999999999
228000,20373,18755,126442,4288,15042,120420,276,19224,995,1,62262,0.0010000000000000009
229000,11341,1890,125282,5674,-6996,129755,276,19203,1130,1,62263,0.0010000000000000009
230000,1273,-17598,124303,-3940,-19712,135408,311,19201,1274,1,62264,0.0010000000000000009
231000,6028,-6558,127134,-11176,3943,121802,354,19192,1450,0,62265,0.0010000000000000009
232003,2463,12168,133919,1364,7593,131514,250,19221,1024,0,62266,0.0010030000000000039
233000,16999,947,126642,1096,238,124021,284,19221,1024,0,62267,0.0009969999999999979
234000,141,5202,126080,-7435,1238,125289,323,19201,1163,0,62268,0.0010000000000000009
235000,3991,-9029,124881,-6892,-10202,130115,323,19200,1323,0,62269,0.0010000000000000009
236000,9524,2311,127018,8617,6102,121959,360,19192,1474,0,62270,0.0010000000000000009
237000,6840,6249,131150,-9360,4303,131132,426,19221,1745,1,62271,0.0010000000000000009
238000,11619,4616,128482,-3943,4248,120179,241,19213,987,1,62272,0.0010000000000000009
239000,6436,-7537,127396,5328,-14792,137921,285,19213,987,1,62273,0.0010000000000000009
240000,10524,-14116,125859,1622,-9542,127493,329,19205,1167,1,62274,0.0010000000000000009
241000,2941,6742,126065,-1651,6357,121146,329,19189,1347,0,62275,0.0010000000000000009
242000,5614,8880,130209,-15268,8400,127224,394,19236,1614,0,62276,0.0010000000000000009
243000,16466,5531,129284,5989,4600,124079,264,19206,1081,0,62277,0.0010000000000000009
244000,7084,-6534,127031,4636,-9694,134234,298,19195,1221,0,62278,0.0010000000000000009
245000,6671,-4924,126470,806,-5587,123427,329,19195,1221,0,62279,0.0010000000000000009
246000,2635,-6720,126958,-4508,-7449,132154,389,19193,1347,1,62280,0.0010000000000000009
247000,12238,2670,130069,-7843,6983,126834,389,19221,1593,1,62281,0.0010000000000000009
248000,13042,14928,127876,11628,11246,119345,251,19209,1028,1,62282,0.0010000000000000009
249002,6360,-2004,126745,-8128,-5428,129581,301,19208,1233,1,62283,0.0010020000000000029
250000,5001,-12117,125806,-481,-13284,129782,322,19197,1319,1,62284,0.0009979999999999989
251000,5864,-8337,127768,1563,-7561,134657,366,19197,1319,0,62285,0.0010000000000000009
252000,12991,11791,130699,-2172,13494,119815,159,19185,1499,0,62286,0.0010000000000000009
253000,12099,6536,126856,1462,1969,124510,159,19216,651,0,62287,0.0010000000000000009
254000,12509,-8153,125164,-2281,-9117,131253,316,19203,1294,0,62288,0.0010000000000000009
255000,6962,-6027,125300,9630,-7096,128277,324,19200,1327,0,62289,0.0010000000000000009
256000,8384,3082,128580,-4519,3152,126772,365,19208,1495,1,62290,0.0010000000000000009
257000,8882,9567,130010,-4590,7216,122749,211,19208,1495,1,62291,0.0010000000000000009
258001,15733,-1463,129649,7559,-1861,130221,271,19214,864,1,62292,0.0010009999999999741
259000,10093,-7852,127090,5887,-8956,131191,271,19201,1110,1,62293,0.0009990000000000276
260000,4877,-6999,126521,3130,-7279,126573,308,19199,1261,1,62294,0.0010000000000000009
261000,7713,2077,127963,-8735,1612,126641,359,19190,1470,0,62295,0.0010000000000000009
262000,10467,14420,130114,-671,14878,122282,173,19216,709,0,62296,0.0010000000000000009
263000,16122,5668,127661,6816,5072,130167,284,19216,709,0,62297,0.0010000000000000009
264000,4074,-9360,126220,1038,-10251,127766,307,19205,1163,0,62298,0.0010000000000000009
265000,7369,-8904,127543,-2525,-9621,131790,307,19199,1257,0,62299,0.0010000000000000009
266000,7525,-1451,128731,447,-2302,124038,350,19194,1433,1,62300,0.0010000000000000009
267000,8314,13652,130106,-4293,12726,124729,268,19231,1098,1,62301,0.0010000000000000009
268000,14349,1904,125886,1522,-518,125748,259,19201,1061,1,62302,0.0009999999999999454
269000,7194,-370,125796,-756,-3307,125918,296,19201,1212,1,62303,0.0010000000000000009
270000,9978,-6685,125391,7617,-6381,130548,332,19208,1212,1,62304,0.0010000000000000009
271000,5833,3846,128466,-1973,8356,122169,261,19193,1360,0,62305,0.0010000000000000009
272000,12424,10550,129524,-9760,5506,127991,261,19223,1069,0,62306,0.0010000000000000009
273001,11599,1671,127226,4922,1298,124618,269,19204,1102,0,62307,0.0010010000000000296
274001,6268,-63,126584,-2536,-6133,128212,309,19198,1266,0,62308,0.0010000000000000009
275000,5770,-6145,126010,-6226,-4857,128864,350,19198,1433,0,62309,0.0009989999999999721
276000,4810,1893,127767,-2411,3925,125453,408,19197,1433,1,62310,0.0010000000000000009
277000,8918,10376,130194,2323,11230,123063,246,19238,1671,1,62311,0.0010000000000000009
278000,12363,6420,126430,-569,1054,126667,246,19211,1008,1,62312,0.0010000000000000009
279000,4509,-10865,124761,-710,-11322,129289,284,19201,1163,1,62313,0.0010000000000000009
280000,7755,2181,126652,4453,7901,123036,331,19198,1356,1,62314,0.0010000000000000009
281000,3876,3841,128016,-7746,648,129363,393,19225,1610,0,62315,0.0010000000000000009
282000,9077,5702,130489,-11468,7744,121725,262,19225,1610,0,62316,0.0010000000000000009
283002,15456,1293,128726,13855,-1575,128549,294,19209,1073,0,62317,0.0010020000000000029
284001,2111,-1234,127417,1534,-4428,127958,294,19199,1204,0,62318,0.0009990000000000276
285001,5815,-9662,124690,-18801,-11664,129994,329,19194,1347,0,62319,0.0010000000000000009
286002,1825,4760,129736,7591,11610,125187,371,19210,1520,1,62320,0.0010009999999999741
287001,12263,18621,127617,-4921,13317,120883,241,19213,987,1,62321,0.0009990000000000276
288000,13495,5678,127778,-478,2209,122551,297,19213,987,1,62322,0.0009989999999999721
289000,3274,-11023,126024,7137,-17189,137054,327,19201,1216,1,62323,0.0010000000000000009
290000,8293,-11761,125116,-9232,-5203,124118,327,19198,1339,1,62324,0.0010000000000000009
291000,-684,15230,132710,-5629,13689,124475,377,19198,1544,0,62325,0.0010000000000000009
292000,15883,-3163,129512,2059,-4472,131489,221,19206,905,0,62326,0.0010000000000000009
293000,3868,6710,126432,-4604,7311,120045,301,19201,1233,0,62327,0.0010000000000000009
294000,5972,-3912,128449,-3559,-8951,133916,334,19201,1233,0,62328,0.0010000000000000009
295000,7387,-6228,123222,1856,-2164,122679,378,19202,1368,0,62329,0.0010000000000000009
296000,2775,6173,131213,-6784,3646,130321,378,19192,1548,1,62330,0.0010000000000000009
297000,11743,4052,129236,-4979,6268,121121,276,19234,1130,1,62331,0.0010000000000000009
298000,8603,7996,127844,10298,2705,125867,261,19200,1069,1,62332,0.0010000000000000009
299001,6607,-19484,126480,-5228,-21267,138836,306,19201,1253,1,62333,0.0010009999999999741
300002,3723,-621,126422,777,1310,118538,354,19201,1253,1,62334,0.0010010000000000296
301000,6696,7722,130212,-6985,6539,130767,252,19194,1450,0,62335,0.0009979999999999989
302002,15854,14376,127954,1682,12332,117968,252,19230,1032,0,62336,0.0010020000000000029
303000,9759,-6687,125980,3439,-10344,135392,277,19204,1135,0,62337,0.0009979999999999989
304000,7775,-7361,126094,612,-6034,125411,307,19208,1257,0,62338,0.0010000000000000009
305000,4638,241,126861,-1014,-1762,124892,350,19196,1433,1,62339,0.0010000000000000009
306000,7980,-4653,129118,-7352,-4395,133653,273,19196,1118,1,62340,0.0010000000000000009
307002,13479,11590,130499,5822,11826,118962,270,19225,1118,1,62341,0.0010020000000000029
308002,10526,-3098,126975,-2519,-4121,132021,270,19199,1106,1,62342,0.0010000000000000009
309000,4914,-2727,126736,454,-4317,123140,304,19196,1245,1,62343,0.0009979999999999989
310000,5584,-14014,126791,1672,-14690,137216,333,19193,1364,1,62344,0.0010000000000000009
311000,10256,7270,129660,-6329,7471,115069,383,19228,1569,0,62345,0.0010000000000000009
312000,12576,12605,131000,5276,12934,130520,260,19228,1065,0,62346,0.0010000000000000009
313000,12793,-7526,125811,1785,-8495,127634,304,19205,1065,0,62347,0.0010000000000000009
314000,6297,-6534,126153,4294,-7556,131439,342,19202,1245,0,62348,0.0010000000000000009
315000,7843,-4671,126825,-2081,-6497,125664,342,19199,1401,1,62349,0.0010000000000000009
316000,7982,12223,130220,-4431,8285,123213,380,19229,1556,1,62350,0.0010000000000000009
317000,16739,-1707,130029,4930,-4306,131844,252,19206,1032,1,62351,0.0010000000000000009
318000,11744,-2089,126492,1669,-3976,124273,288,19206,1180,1,62352,0.0010000000000000009
319000,4014,-7584,126244,6084,-8729,132002,323,19201,1180,1,62353,0.0010000000000000009
320000,8106,-3075,127329,-6284,2907,123962,386,19194,1323,0,62354,0.0010000000000000009
321001,8677,10907,129870,1054,12535,125385,386,19221,1581,0,62355,0.0010009999999999741
322000,15536,10223,127263,4379,3785,125578,257,19210,1053,0,62356,0.0009990000000000276
323000,8124,-3996,125578,1866,-10094,128656,297,19198,1216,0,62357,0.0010000000000000009
324001,6195,-12700,126531,953,-10417,132675,322,19197,1319,0,62358,0.0010009999999999741
325002,8245,-2916,127199,-1387,4305,123419,368,19197,1319,1,62359,0.0010009999999999741
326000,8403,12567,130895,-7025,10911,124558,188,19201,1507,1,62360,0.0009980000000000544
327000,15732,4503,127072,4798,1089,126797,188,19220,770,1,62361,0.0010000000000000009
328000,8935,-3185,125176,1125,-5332,127736,273,19203,1118,1,62362,0.0009999999999999454
329000,8162,-4181,125842,5167,-5415,128154,311,19205,1274,1,62363,0.0010000000000000009
330000,6019,1764,126699,-4084,2925,124905,353,19190,1446,0,62364,0.0010000000000000009
331000,9673,6707,129839,-6745,4908,127546,183,19190,1446,0,62365,0.0010000000000000009
332000,14365,4874,129749,12673,4236,123330,284,19209,750,0,62366,0.0010000000000000009
333000,4985,1364,126265,-1650,-2099,126721,284,19205,1163,0,62367,0.0010000000000000009
334002,5961,-8083,126202,-5525,-9112,128761,320,19198,1311,0,62368,0.0010020000000000029
335006,4694,-699,127373,-1517,1515,127933,371,19195,1520,1,62369,0.0010040000000000049
336000,9070,10476,130831,-6243,11616,126163,254,19221,1040,1,62370,0.0009939999999999949
337001,12076,6584,126097,1576,1559,123119,263,19221,1040,1,62371,0.0010010000000000296
338000,4868,-5872,123593,397,-5615,125188,301,19204,1077,1,62372,0.0009989999999999721
339000,11789,-137,126164,-2746,-620,128603,301,19201,1233,1,62373,0.0010000000000000009
340001,5828,152,125859,13791,1829,127352,351,19192,1438,0,62374,0.0010010000000000296
341000,1443,14362,129961,-25456,13007,122290,266,19216,1089,0,62375,0.0009989999999999721
342000,19661,2936,125911,-4124,844,123628,278,19200,1139,0,62376,0.0010000000000000009
343002,-194,-4045,129158,28034,-9956,134426,309,19200,1139,0,62377,0.0010020000000000029
344002,9023,-21147,124471,-16512,-19091,134899,346,19198,1266,0,62378,0.0010000000000000009
345002,-867,9649,127491,-9917,13962,117050,346,19192,1417,1,62379,0.0010000000000000009
346000,7692,22425,129611,-417,18786,124720,345,19231,1413,1,62380,0.0009979999999999989
347000,19075,7692,127229,-914,8131,116893,265,19208,1085,1,62381,0.0010000000000000009
348000,3059,-10001,125665,5927,-14684,136810,307,19201,1257,1,62382,0.0010000000000000009
349000,8123,-14563,126074,-2374,-13409,131274,343,19201,1257,1,62383,0.0010000000000000009
350000,-71,5320,129615,-4804,6079,121941,402,19194,1405,0,62384,0.0010000000000000009
351000,9328,7751,131646,-9517,7493,131520,402,19234,1646,0,62385,0.0010000000000000009
352000,11527,6321,126431,3567,5736,119030,268,19199,1098,0,62386,0.0010000000000000009
353000,643,-8589,126055,1142,-11316,134653,312,19195,1278,0,62387,0.0010000000000000009
354001,7299,-6437,124784,-8235,-5383,124492,350,19196,1433,0,62388,0.0010010000000000296
355000,4119,8566,128950,-1252,8268,123475,402,19196,1646,1,62389,0.0009989999999999721
356000,8785,11681,130379,-3782,10497,127887,181,19188,1646,1,62390,0.0010000000000000009
357000,14594,383,127086,-2459,-1121,124124,276,19217,741,1,62391,0.0010000000000000009
358000,7808,-16647,125119,7173,-17845,128646,276,19201,1130,1,62392,0.0010000000000000009
359000,5996,-3871,126143,-3412,-5375,123424,321,19195,1315,1,62393,0.0010000000000000009
360001,6710,1459,129196,-6245,643,129925,378,19202,1548,0,62394,0.0010009999999999741
361000,3544,13730,130533,665,11097,121483,238,19202,975,0,62395,0.0009990000000000276
362000,12327,6145,128162,-3958,6504,127524,292,19214,975,0,62396,0.0010000000000000009
363000,6559,-2617,126369,-2752,-5534,125846,324,19195,1196,0,62397,0.0010000000000000009
364000,11332,-10217,126092,12171,-15430,134630,324,19198,1327,0,62398,0.0010000000000000009
365001,7442,-10648,126776,-371,1278,125541,374,19196,1532,1,62399,0.0010009999999999741
366000,10808,14701,132013,-11634,14178,120211,191,19221,782,1,62400,0.0009990000000000276
367000,11993,2877,128774,5371,-3886,131521,287,19221,1175,1,62401,0.0010000000000000009
368000,2414,-5927,127377,-2609,-9114,128460,316,19205,1175,1,62402,0.0010000000000000009
369001,5348,-11511,125997,-4869,-10440,133097,351,19206,1294,1,62403,0.0010009999999999741
370001,6279,2875,128189,-376,11003,119564,351,19192,1438,0,62404,0.0010000000000000009
371004,14042,11945,130552,5099,4239,125939,249,19225,1020,0,62405,0.0010030000000000316
372000,15955,-2286,126151,7078,-3382,127049,275,19200,1126,0,62406,0.0009959999999999969
373001,5758,-5148,126953,650,-9814,129811,314,19217,1286,0,62407,0.0010009999999999741
374000,6699,-7449,127095,-4442,-3688,128903,351,19217,1286,0,62408,0.0009990000000000276
375000,6766,7119,129982,-4011,8594,124739,223,19197,1438,1,62409,0.0010000000000000009
376000,16613,5898,128540,6841,1795,128318,223,19225,913,1,62410,0.0010000000000000009
377000,12626,-248,127696,503,-2020,125163,262,19204,1073,1,62411,0.0010000000000000009
378002,8986,-10724,126065,3361,-15178,133328,298,19201,1221,1,62412,0.0010020000000000029
379001,7970,-5760,125341,1141,-81,125702,337,19197,1380,1,62413,0.0009989999999999721
380001,6314,12861,130146,-5594,14710,122812,292,19197,1380,0,62414,0.0010000000000000009
381000,15124,9321,129973,382,6270,124232,275,19225,1196,0,62415,0.0009990000000000276
382000,11573,149,126518,1326,-5113,129071,275,19203,1126,0,62416,0.0010000000000000009
383000,7333,-13808,127025,6836,-13923,131779,307,19202,1257,0,62417,0.0010000000000000009
384000,6468,-4508,126672,-4951,-3203,125735,340,19192,1393,0,62418,0.0010000000000000009
385000,6434,6325,130405,-7036,7533,127151,392,19234,1606,1,62419,0.0010000000000000009
386000,12826,7334,130424,6474,7051,125488,242,19234,1606,1,62420,0.0010000000000000009
387000,12354,1742,125592,1711,-325,125541,286,19212,991,1,62421,0.0009999999999999454
388000,6683,-2588,126367,909,-4939,126562,286,19202,1171,1,62422,0.0010000000000000009
389001,8181,-5864,125396,1811,-5723,128595,324,19198,1327,1,62423,0.0010010000000000296
390000,7410,7322,129831,-5609,8618,125230,379,19225,1552,0,62424,0.0009989999999999721
391000,16811,11803,128622,2898,10564,123931,260,19207,1065,0,62425,0.0010000000000000009
392000,7568,-956,125095,-228,-3044,126363,295,19207,1065,0,62426,0.0010000000000000009
393000,4188,-4685,126847,-1903,-6449,128577,329,19202,1208,0,62427,0.0010000000000000009
394000,7003,-8513,125740,-137,-6661,130374,329,19200,1347,0,62428,0.0010000000000000009
395000,7349,9219,129866,-5875,11397,121507,393,19210,1610,1,62429,0.0010000000000000009
396000,13699,8440,129809,1108,6180,125985,213,19210,872,1,62430,0.0010000000000000009
397000,6929,-269,126045,-100,-1537,126732,282,19189,1155,1,62431,0.0010000000000000009
398000,6113,-7549,124654,-2890,-8203,126848,316,19189,1294,1,62432,0.0010000000000000009
399000,5690,6010,127372,5710,6444,125498,364,19186,1294,1,62433,0.0010000000000000009
400000,6990,5646,129024,-7204,4198,127968,159,19206,1491,0,62434,0.0010000000000000009
401000,13307,4431,129183,-7900,4520,122454,159,19212,651,0,62435,0.0010000000000000009
402000,11253,6873,128670,2906,4956,124215,290,19202,1188,0,62436,0.0010000000000000009
403000,4675,-14262,126542,11251,-17596,136643,324,19197,1327,0,62437,0.0010000000000000009
404000,1085,-13133,124559,-12515,-12905,130137,369,19197,1511,1,62438,0.0010000000000000009
405000,3396,20301,131046,-10063,19875,120067,211,19192,1511,1,62439,0.0010000000000000009
406000,16510,19210,126238,692,17832,119487,279,19215,864,1,62440,0.0010000000000000009
407000,10570,-183,126459,5389,-1078,134293,279,19203,1143,1,62441,0.0010000000000000009
408002,3467,-18774,123628,2298,-20466,129970,318,19197,1302,1,62442,0.0010020000000000029
409000,6370,-415,127909,-12221,-782,121498,360,19189,1474,0,62443,0.0009979999999999989
410000,3755,9007,132957,1346,7994,134792,254,19189,1040,0,62444,0.0010000000000000009
411000,14002,704,126512,-99,2855,120750,283,19220,1040,0,62445,0.0010000000000000009
412000,2549,6635,127122,-9101,1765,128116,316,19203,1159,0,62446,0.0010000000000000009
413000,2616,-6683,125455,-113,-10680,128936,316,19202,1294,0,62447,0.0010000000000000009
414000,9015,-3988,125191,244,2917,124192,359,19199,1470,0,62448,0.0010000000000000009
415002,6143,8530,131673,-9435,9724,126843,424,19231,1737,1,62449,0.0010020000000000029
416000,13785,7958,128325,2290,4192,121118,249,19231,1020,1,62450,0.0009979999999999989
417000,7457,-7003,127393,2014,-15007,138298,289,19213,1020,1,62451,0.0010000000000000009
418000,7496,-15865,125999,66,-10499,127181,332,19198,1184,1,62452,0.0010000000000000009
419000,4324,4447,126289,-3352,7978,122499,332,19196,1360,0,62453,0.0010000000000000009
420000,5508,11174,131185,-11393,7773,126704,399,19238,1634,0,62454,0.0010000000000000009
421000,16932,2189,129032,10313,-1005,126079,268,19211,1098,0,62455,0.0010000000000000009
422000,6361,-5592,126111,1728,-6374,130885,302,19197,1237,0,62456,0.0010000000000000009
423000,6264,-2845,127021,-1849,-3477,122751,336,19197,1237,0,62457,0.0010000000000000009
424000,4099,-6862,126818,-2394,-8672,133728,395,19195,1376,1,62458,0.0010000000000000009
425000,10250,1454,130192,-3065,9389,125026,395,19236,1618,1,62459,0.0010000000000000009
426000,13972,14170,128111,6827,8881,120663,252,19207,1032,1,62460,0.0010000000000000009
427002,5726,-2483,126876,-4205,-8318,130602,296,19204,1212,1,62461,0.0010020000000000029
428000,6185,-13648,125905,818,-15441,132055,323,19196,1323,1,62462,0.0009979999999999989
429000,5285,-5946,127514,-1714,-1010,130267,371,19196,1323,0,62463,0.0010000000000000009
430000,12276,14468,130615,-2962,16724,117978,222,19200,1520,0,62464,0.0010000000000000009
431000,12579,5641,126416,3776,-2146,128215,222,19209,909,0,62465,0.0010000000000000009
432000,10835,-9710,125137,-274,-10247,131476,288,19207,1180,0,62466,0.0010000000000000009
433000,7334,-6207,125477,6998,-5025,127408,324,19201,1327,0,62467,0.0010000000000000009
434000,7364,3266,128211,-6074,4567,125645,371,19216,1520,1,62468,0.0010000000000000009
435000,10779,8531,130600,-1634,5012,124485,225,19216,1520,1,62469,0.0010000000000000009
436000,15587,-1042,129297,9036,-2031,129206,279,19212,922,1,62470,0.0010000000000000009
437000,9057,-5976,127235,5384,-8838,129118,279,19205,1143,1,62471,0.0010000000000000009
438000,5025,-8631,126452,-1934,-8699,128367,309,19200,1266,1,62472,0.0010000000000000009
439000,7883,1264,128126,-6536,3708,126092,356,19202,1458,0,62473,0.0010000000000000009
440000,11509,14611,130439,5183,15465,122456,203,19216,831,0,62474,0.0010000000000000009
441000,15276,5103,127772,1874,2196,127443,292,19216,831,0,62475,0.0010000000000000009
442002,6072,-10198,125709,4207,-11613,129102,317,19202,1196,0,62476,0.0010020000000000029
443001,7111,-7714,126933,-1202,-8013,130104,317,19199,1298,0,62477,0.0009989999999999721
444000,8060,728,128866,-3937,2737,126104,355,19192,1454,1,62478,0.0009990000000000276
445000,7188,11728,130385,-2014,10143,123642,244,19227,999,1,62479,0.0010000000000000009
446003,14098,1751,125984,2818,-510,127827,266,19203,1089,1,62480,0.0010029999999999761
447000,6694,-153,126179,714,-665,123764,302,19203,1237,1,62481,0.0009969999999999701
448000,9317,-5539,125688,5398,-7349,131111,343,19203,1237,1,62482,0.0010000000000000009
449000,7000,2188,128108,-3827,2859,123936,244,19199,1405,0,62483,0.0010000000000000009
450000,13507,13414,129321,-2817,9446,124418,244,19219,999,0,62484,0.0010000000000000009
451000,11665,658,126689,9228,-575,126694,274,19206,1122,0,62485,0.0010000000000000009
452000,5104,-1430,126138,-759,-2826,125662,308,19202,1261,0,62486,0.0010000000000000009
453000,6078,-5620,126564,-6197,-6690,131082,348,19202,1425,0,62487,0.0010000000000000009
454013,4606,5351,128614,-2827,5300,124510,410,19197,1425,1,62488,0.0010130000000000416
455002,11101,3999,128642,-257,4354,124557,255,19234,1679,1,62489,0.0009889999999999621
456000,10364,5396,127260,2729,4677,123214,255,19208,1044,1,62490,0.0009979999999999989
457000,8115,-4654,125157,-5834,-5387,131529,293,19203,1200,1,62491,0.0010000000000000009
458000,6300,-4484,124701,11514,8986,122920,331,19197,1356,1,62492,0.0010000000000000009
459000,1887,13125,129854,-6129,6836,127251,389,19197,1593,0,62493,0.0010000000000000009
460000,11331,3326,129468,-20446,1749,122070,262,19229,1593,0,62494,0.0010000000000000009
461000,12704,-667,129421,12184,-7056,133191,302,19210,1073,0,62495,0.0010000000000000009
462000,7017,-10211,128608,14657,-10830,131133,302,19195,1237,0,62496,0.0010000000000000009
463002,1005,-3319,124247,-16412,217,121953,335,19193,1372,0,62497,0.0010020000000000029
464000,3157,13139,131961,165,16174,126849,391,19221,1601,1,62498,0.0009979999999999989
465000,14659,14330,126570,3233,7631,121734,238,19213,975,1,62499,0.0010000000000000009
466000,12583,5059,127320,-133,-838,126218,288,19213,975,1,62500,0.0010000000000000009
467002,4007,-12250,126881,-1743,-19845,135802,329,19203,1180,1,62501,0.0010020000000000029
468000,6292,-12871,124638,-3302,-1310,122554,329,19194,1347,1,62502,0.0009979999999999989
469000,2408,15605,133996,-2480,14082,129111,388,19213,1589,0,62503,0.0010000000000000009
470000,13660,1852,129289,-5285,-2543,124742,254,19211,1040,0,62504,0.0010000000000000009
471000,4189,5024,125648,-10260,5431,123293,300,19203,1229,0,62505,0.0010000000000000009
472000,5137,-4686,128594,7221,-11434,133798,330,19203,1229,0,62506,0.0010000000000000009
473004,8744,-6268,123637,-1126,540,120346,379,19196,1352,0,62507,0.0010040000000000049
474000,2937,8102,132015,-9936,3851,132569,379,19191,1552,1,62508,0.0009959999999999969
475000,8944,-1657,128631,-2338,1709,122089,272,19224,1114,1,62509,0.0010000000000000009
476000,10603,8244,127495,8672,2936,126497,275,19203,1126,1,62510,0.0010000000000000009
477000,4646,-12012,127548,-3040,-15574,134889,308,19198,1261,1,62511,0.0010000000000000009
478000,5476,-4306,125293,-3691,-498,120610,354,19198,1261,1,62512,0.0010000000000000009
479001,6769,5096,130430,-6767,5790,131114,241,19191,1450,0,62513,0.0010009999999999741
480000,17869,13294,128044,4679,13352,118922,241,19220,987,0,62514,0.0009990000000000276
481000,9120,-3157,125961,1268,-9521,134082,285,19205,1167,0,62515,0.0010000000000000009
482000,4843,-12263,125632,-2580,-9491,128157,314,19201,1286,0,62516,0.0010000000000000009
483000,6397,-207,126675,-986,-1752,125946,358,19179,1466,1,62517,0.0010000000000000009
484000,7580,3092,129178,-3266,5252,128779,249,19179,1466,1,62518,0.0010000000000000009
485000,15111,9990,129863,3304,7644,120057,268,19224,1020,1,62519,0.0010000000000000009
486000,8435,-6137,126844,-5200,-8861,132872,268,19202,1098,1,62520,0.0010000000000000009
487000,5951,-5978,126348,2780,-6560,126185,304,19205,1245,1,62521,0.0010000000000000009
488000,5099,-6924,127876,2868,-7839,133487,341,19194,1397,1,62522,0.0010000000000000009
489002,8595,4835,128912,-9429,8486,122464,402,19236,1646,0,62523,0.0010020000000000029
490001,13427,10640,130139,3135,8209,121572,264,19236,1081,0,62524,0.0009989999999999721
491005,12270,-5025,126057,5102,-7153,131592,300,19201,1081,0,62525,0.0010040000000000049
492000,8804,-8026,125891,1837,-9122,127489,337,19196,1229,0,62526,0.0009950000000000236
493000,6368,-5453,126982,-1602,-4991,130830,337,19197,1380,1,62527,0.0010000000000000009
494000,7164,11477,130457,-4514,10834,121668,335,19232,1372,1,62528,0.0010000000000000009
495000,17034,148,129548,4848,182,129540,259,19209,1061,1,62529,0.0010000000000000009
496001,9410,-1574,127718,2504,-2228,128023,294,19209,1204,1,62530,0.0010009999999999741
497000,5986,-8335,125542,2136,-9860,128663,327,19201,1204,1,62531,0.0009990000000000276
498000,7144,-1994,128014,-2959,-1349,127024,382,19193,1339,0,62532,0.0010000000000000009
499001,9499,9994,130115,-507,9759,125092,382,19235,1565,0,62533,0.0010009999999999741
500001,14707,6347,125935,1934,3876,124943,261,19208,1069,0,62534,0.0010000000000000564
501001,7763,108,126845,-2823,-991,129392,304,19202,1245,0,62535,0.0010000000000000009
502002,8262,-10751,126042,6738,-11326,130744,331,19202,1356,0,62536,0.0010009999999999186
503000,6797,-1541,128303,-2816,-2532,124600,378,19195,1356,1,62537,0.0009980000000000544
504000,7892,8328,131353,-8180,7874,127349,211,19213,1548,1,62538,0.0010000000000000009
505000,14727,2040,125568,5262,948,124635,211,19211,864,1,62539,0.0010000000000000009
506000,8274,1610,126306,2041,-1089,127433,274,19199,1122,1,62540,0.0010000000000000009
507000,8923,-4581,125404,-458,-5576,129026,312,19201,1278,1,62541,0.0010000000000000009
508000,7539,-578,125752,1164,6828,122172,363,19213,1487,0,62542,0.0010000000000000009
509000,9917,12679,130887,-4982,9155,125202,239,19213,1487,0,62543,0.0010000000000000009
510000,14423,461,128283,4729,-4856,127462,286,19212,979,0,62544,0.0010000000000000009
511000,4660,-3485,126425,-1124,-3528,127867,286,19208,1171,0,62545,0.0010000000000000009
512000,6440,-5697,126835,-2563,-4329,128092,319,19195,1307,0,62546,0.0010000000000000009
513000,4595,3378,127423,-5917,6104,124296,372,19185,1524,1,62547,0.0010000000000000009
514000,7519,8393,129918,-477,6321,128416,216,19219,885,1,62548,0.0010000000000000009
515000,13125,2983,125372,94,202,124700,271,19219,885,1,62549,0.0010000000000000009
516000,7401,-1540,123975,1895,863,120261,309,19207,1110,1,62550,0.0010000000000000009
517000,9107,1866,127387,1096,-2042,131367,309,19202,1266,1,62551,0.0010000000000000009
518000,7403,-6024,125495,4687,-2088,128818,354,19192,1450,0,62552,0.0010000000000000009
519000,-554,12660,129867,-17991,12460,122243,252,19217,1032,0,62553,0.0010000000000000009
520000,17646,5987,125814,-3894,5579,121464,279,19202,1143,0,62554,0.0010000000000000009
521000,3724,301,128313,26283,-9062,132312,315,19202,1143,0,62555,0.0010000000000000009
522000,7112,-21511,124499,-13225,-19193,136908,357,19198,1290,0,62556,0.0010000000000000009
523000,2265,4802,126688,-15368,13853,115568,357,19194,1462,1,62557,0.0010000000000000009
524000,4400,22795,130200,2595,18044,123252,324,19227,1327,1,62558,0.0010000000000000009
525002,20137,6781,128546,5286,4024,121417,263,19204,1077,1,62559,0.0010019999999999474
526000,2346,-7518,125436,5784,-14370,135261,301,19201,1233,1,62560,0.0009980000000000544
527000,6168,-14621,125700,-14141,-10576,129107,345,19201,1233,1,62561,0.0010000000000000009
528000,3619,6666,128952,383,8902,122009,409,19194,1413,0,62562,0.0010000000000000009
529000,9132,8088,132183,-590,8578,129754,409,19232,1675,0,62563,0.0010000000000000009
530000,13721,2899,127060,-1112,3025,122166,279,19203,1143,0,62564,0.0010000000000000009
531000,-1247,-7378,126627,1053,-12540,134703,315,19199,1290,0,62565,0.0010000000000000009
532000,7373,-9510,124328,-9610,-5638,125092,343,19193,1405,0,62566,0.0010000000000000009
533002,4708,9529,129126,-2767,10471,122247,398,19193,1405,1,62567,0.0010019999999999474
534000,9029,9846,130228,-506,7290,127744,208,19208,1630,1,62568,0.0009980000000000544
535000,12277,-1632,125680,450,-6391,127769,208,19213,852,1,62569,0.0010000000000000009
536000,5762,-12425,126006,-2954,-12321,132979,276,19199,1130,1,62570,0.0009999999999998899
537000,8365,718,126306,4000,1630,120673,328,19192,1343,1,62571,0.0010000000000000009
538001,3653,2801,128505,-1783,752,129510,380,19210,1556,0,62572,0.0010010000000000296
539000,9735,6382,130223,-10792,4419,126252,251,19210,1028,0,62573,0.0009989999999999721
540002,11679,4255,128139,8111,2335,125126,294,19212,1028,0,62574,0.0010020000000000584
541000,7254,-1420,126787,4192,-3113,126933,328,19202,1204,0,62575,0.0009979999999999434
542000,7079,-9149,125634,-1729,-11030,128762,328,19197,1343,0,62576,0.0010000000000000009
543000,4485,-7664,128046,-5678,-6222,132345,386,19213,1581,1,62577,0.0010000000000000009
544000,15504,13729,131317,-103,15799,119883,218,19218,893,1,62578,0.0010000000000000009
545000,10149,5946,129189,6602,3375,125434,284,19218,1163,1,62579,0.0010000000000000009
546000,5750,-11715,126789,-3104,-12712,132180,313,19201,1163,1,62580,0.0010000000000000009
547000,4114,-10645,126275,-2387,-10892,131507,356,19203,1282,1,62581,0.0010000000000000009
548000,7997,5267,129478,-3009,5362,125815,356,19191,1458,0,62582,0.0010000000000000009
549000,11595,11171,129925,2110,11361,123731,264,19223,1081,0,62583,0.0010000000000000009
550000,12668,-2943,127018,3901,-3771,131001,282,19201,1155,0,62584,0.0010000000000000009
551000,8629,-8868,126568,1099,-9932,129095,314,19196,1286,0,62585,0.0010000000000000009
552000,6343,-4101,127126,4289,-5249,128407,352,19196,1286,0,62586,0.0010000000000000009
553000,8607,5694,130237,-6021,8730,123997,186,19192,1442,1,62587,0.0010000000000000009
554000,14977,9755,127848,1631,3514,126171,186,19222,762,1,62588,0.0010000000000000009
555000,13327,-1730,127826,6819,-7605,131245,269,19205,1102,1,62589,0.0010000000000000009
556000,7749,-11640,125415,5015,-11833,129212,306,19193,1253,1,62590,0.0010000000000000009
557000,6863,-4454,126233,-1766,1333,125997,347,19194,1421,1,62591,0.0010000000000000009
558000,7481,11238,130139,-3799,14244,122487,245,19194,1421,0,62592,0.0010000000000000009
559000,17070,10296,129659,3049,3521,126425,274,19222,1003,0,62593,0.0010000000000000009
560000,11295,-3270,125828,2616,-7852,129949,274,19201,1122,0,62594,0.0010000000000000009
561002,3741,-8440,126032,1286,-7490,127645,311,19205,1274,0,62595,0.0010020000000000584
562000,8292,-6000,126665,-4392,-3891,128342,347,19192,1421,0,62596,0.0009979999999999434
563000,6952,7955,130955,-1119,9718,124868,379,19228,1552,1,62597,0.0010000000000000009
564000,14455,5770,129161,2002,2305,126593,281,19228,1552,1,62598,0.0010000000000000009
565000,10303,466,126573,-1106,-99,124540,287,19213,1151,1,62599,0.0010000000000000009
566000,7252,-1898,126286,5055,-8351,129841,287,19207,1175,1,62600,0.0010000000000000009
567000,8678,-7393,125117,-156,-1344,127445,328,19195,1343,0,62601,0.0010000000000000009
568000,6377,12140,130635,-8282,12181,123169,389,19236,1593,0,62602,0.0010000000000000009
569000,17089,6125,127691,6967,2376,126776,263,19213,1077,0,62603,0.0010000000000000009
570000,7237,-299,125135,-1459,-1380,125130,296,19213,1077,0,62604,0.0010000000000000009
571000,4894,-4179,127812,-480,-6941,130561,332,19196,1212,0,62605,0.0010000000000000009
572000,6404,-6220,125797,-2302,-5339,129053,332,19200,1360,1,62606,0.0010000000000000009
573000,5367,8741,130346,-7682,13687,120384,392,19214,1606,1,62607,0.0010000000000000009
574000,15046,10875,129041,2773,3789,126708,236,19216,967,1,62608,0.0010000000000000009
575000,7880,-3833,124497,-823,-7148,128325,288,19201,1180,1,62609,0.0010000000000000009
576000,6803,-1468,126929,-518,396,122691,321,19201,1180,1,62610,0.0010000000000000009
577000,7699,5973,126640,5619,1807,131099,375,19196,1315,0,62611,0.0010000000000000009
578001,2467,560,128744,-12464,3199,124993,375,19197,1536,0,62612,0.0010010000000000296
579000,15910,6710,129542,-10784,3826,124799,227,19210,930,0,62613,0.0009989999999999721
580000,8526,-472,125737,18491,171,127011,289,19204,1184,0,62614,0.0010000000000000009
581002,2070,-5658,126653,-5189,-12137,131854,329,19198,1347,0,62615,0.0010020000000000584
582000,5026,-11420,124690,-14375,-4443,127221,379,19198,1552,1,62616,0.0009979999999999434
583000,1872,23701,131008,2371,23562,119279,172,19190,1552,1,62617,0.0010000000000000009
584001,20965,8538,126326,-2803,6046,125433,275,19216,704,1,62618,0.0010010000000000296
585000,5605,-2490,126669,3127,-5138,126453,275,19205,1126,1,62619,0.0009989999999999721
586000,5953,-16736,125038,1855,-17437,135844,315,19201,1290,1,62620,0.0010000000000000009
587000,3845,3830,128295,-10529,7070,119449,368,19191,1507,0,62621,0.0010000000000000009
588003,3946,7637,132109,-1931,4604,132703,205,19191,840,0,62622,0.0010029999999999761
589000,12866,2487,124846,-1840,2206,122647,293,19216,840,0,62623,0.0009970000000000256
590000,1298,8099,127803,-6209,4987,123963,321,19201,1200,0,62624,0.0010000000000000009
591000,8262,-14316,124907,272,-15176,133880,321,19198,1315,0,62625,0.0010000000000000009
592002,4215,469,126623,3372,877,123354,363,19188,1487,1,62626,0.0010020000000000584
593000,9291,5484,131510,-13048,5779,129301,426,19232,1745,1,62627,0.0009979999999999434
594000,12053,11725,127854,2005,11189,117161,257,19232,1053,1,62628,0.0010000000000000009
595000,7630,-9251,126705,5042,-12552,137618,300,19209,1053,1,62629,0.0010000000000000009
596000,7851,-12927,124896,-2105,-12233,119105,340,19201,1229,1,62630,0.0010000000000000009
597001,3242,5565,127286,-1846,4278,128725,340,19198,1393,0,62631,0.0010010000000000296
598002,8911,7113,130554,-8858,6244,123418,361,19231,1479,0,62632,0.0010009999999999186
599002,12861,3376,130482,5032,5626,130188,268,19209,1098,0,62633,0.0010000000000000009
600000,7304,-8007,126112,-1517,-9148,126950,306,19203,1253,0,62634,0.0009980000000000544
601000,5542,-227,126609,2167,-3990,124980,348,19203,1253,0,62635,0.0010000000000000009
602000,5704,-7946,126662,-2132,-6112,133748,390,19186,1425,1,62636,0.0010000000000000009
603000,11169,5480,130640,-6903,14034,119491,390,19232,1597,1,62637,0.0010000000000000009
604001,12049,9712,127984,7280,-1381,129397,257,19202,1053,1,62638,0.0010010000000000296
605000,6897,-6185,126725,-2401,-8661,127493,293,19203,1200,1,62639,0.0009989999999999721
606000,4397,-11505,126500,1714,-11869,134385,323,19193,1323,1,62640,0.0010000000000000009
607000,7256,-3526,127553,-5403,6955,123620,381,19193,1323,0,62641,0.0010000000000000009
608001,10262,16996,129757,1776,12572,119902,252,19215,1560,0,62642,0.0010010000000000296
609000,13888,-367,125375,2958,-7118,131731,252,19212,1032,0,62643,0.0009989999999999721
610000,10158,-6695,125839,5600,-6306,126343,295,19198,1208,0,62644,0.0010000000000000009
611001,6265,-7058,126031,-134,-6360,131883,326,19201,1335,0,62645,0.0010010000000000296
612001,8472,2332,128364,-6900,5405,123010,371,19222,1520,1,62646,0.0010000000000000009
613000,10046,9314,130326,5333,4153,127411,235,19222,1520,1,62647,0.0009989999999999721
614000,17969,-930,128632,5514,-1444,127283,283,19214,962,1,62648,0.0010000000000000009
615000,7621,-2779,126447,5056,-8708,126949,283,19203,1159,1,62649,0.0010000000000000009
616001,6461,-9992,126441,-6022,-8134,132030,318,19201,1302,1,62650,0.0010010000000000296
617000,7424,3298,128075,-2298,9990,121445,365,19203,1495,0,62651,0.0009989999999999721
618000,10507,15275,130949,4533,12674,125498,220,19213,901,0,62652,0.0010000000000000009
619001,15030,516,127985,524,-3083,127650,284,19213,901,0,62653,0.0010010000000000296
620000,5406,-10642,126371,3043,-12635,130392,316,19203,1163,0,62654,0.0009989999999999721
621000,9764,-8818,127284,1027,-6811,129961,316,19198,1294,0,62655,0.0010000000000000009
622000,6090,5191,129179,-4648,8851,121936,366,19193,1499,1,62656,0.0010000000000000009
623000,8757,10357,130461,-1804,6597,127715,200,19221,819,1,62657,0.0010000000000000009
624000,13017,6,126109,5764,-621,125864,262,19202,1073,1,62658,0.0010000000000000009
625001,7294,-508,126717,2140,-3209,127168,296,19202,1073,1,62659,0.0010009999999999186
626000,8599,-6247,125210,2523,-5771,128650,341,19203,1212,1,62660,0.0009990000000000832
627000,6674,5150,128616,-7156,6928,122899,341,19192,1397,0,62661,0.0010000000000000009
628000,16538,10734,128458,4088,8148,126532,234,19220,958,0,62662,0.0010000000000000009
629000,9804,3042,126773,5256,857,124549,282,19194,1155,0,62663,0.0010000000000000009
630000,5446,-4413,126137,-4776,-7770,128765,311,19205,1274,0,62664,0.0010000000000000009
631001,4568,-4980,125708,-4670,-4361,128864,353,19205,1446,0,62665,0.0010009999999999186
632001,5362,4958,129638,-2176,5816,126396,348,19191,1446,1,62666,0.0010000000000000009
633000,11041,6844,129783,1274,6718,125562,255,19231,1425,1,62667,0.0009990000000000832
634000,9604,-1009,124547,1193,-1252,122236,255,19206,1044,1,62668,0.0010000000000000009
635000,6641,1909,127475,-6305,-406,127159,301,19197,1233,1,62669,0.0010000000000000009
636000,9904,-4164,125061,13057,-2810,127141,341,19196,1397,1,62670,0.0010000000000000009
637000,-376,11273,129046,-5370,10591,125467,401,19196,1642,0,62671,0.0010000000000000009
638000,13745,4468,130358,-26101,4844,123344,264,19240,1642,0,62672,0.0010000000000000009
639000,10027,-125,128882,22634,-2228,125881,299,19208,1081,0,62673,0.0010000000000000009
640000,6077,-15165,126577,8567,-16739,138451,299,19202,1225,0,62674,0.0010000000000000009
641000,4277,-4985,124546,-22449,-4351,123420,339,19197,1388,0,62675,0.0010000000000000009
642000,-2254,15437,130018,2751,16035,122456,403,19231,1651,1,62676,0.0010000000000000009
643000,18214,20863,127707,-6669,17227,119786,251,19208,1028,1,62677,0.0010000000000000009
644000,12047,1085,125639,6729,-983,132013,289,19208,1028,1,62678,0.0010000000000000009
645000,3380,-14131,127132,8393,-16290,136358,323,19201,1184,1,62679,0.0010000000000000009
646000,7824,-15912,123936,-13926,-15303,120331,323,19195,1323,1,62680,0.0010000000000000009
647000,-39,16538,134488,-3595,16035,129538,385,19218,1577,0,62681,0.0010000000000000009
648001,16544,5827,130065,5038,149,123917,259,19210,1061,0,62682,0.0010009999999999186
649000,2356,1813,124931,-6797,-259,125600,305,19205,1249,0,62683,0.0009990000000000832
650001,4569,-4962,127675,-7235,-9867,130895,335,19205,1249,0,62684,0.0010009999999999186
651000,9765,-5759,123543,4860,2942,121333,379,19194,1372,0,62685,0.0009990000000000832
652001,4082,9569,131543,-1716,5327,131844,379,19183,1552,1,62686,0.0010009999999999186
653001,10166,-1474,129502,-1835,-1805,124296,221,19226,905,1,62687,0.0010000000000000009
654000,8272,1954,126056,7262,-1400,128717,272,19200,1114,1,62688,0.0009990000000000832
655001,6237,-6881,128666,-5197,-10809,130062,314,19202,1286,1,62689,0.0010009999999999186
656001,6414,-4717,124518,570,583,122585,365,19202,1286,1,62690,0.0010000000000000009
657000,4686,6408,130211,-8587,6122,130407,221,19195,1495,0,62691,0.0009989999999999721
658000,17567,11243,127815,857,9470,119807,221,19217,905,0,62692,0.0010000000000000009
659001,9586,-431,126389,4646,-9163,134059,278,19203,1139,0,62693,0.0010010000000000296
660000,4885,-12882,126352,-1275,-11081,128477,311,19203,1274,0,62694,0.0009989999999999721
661000,6853,-4332,126052,-1389,-2376,126965,364,19191,1491,1,62695,0.0010000000000000009
662000,5046,5077,129947,-4840,7829,126925,247,19191,1491,1,62696,0.0010000000000000009
663000,16806,12528,130200,-1062,9343,118991,277,19221,1012,1,62697,0.0010000000000000009
664000,9476,-2529,126780,3318,-8318,133294,277,19204,1135,1,62698,0.0010000000000000009
665001,4500,-11292,126257,-913,-12814,129603,304,19199,1245,1,62699,0.0010010000000000296
666000,6634,-9108,127078,-1209,-6296,131369,336,19194,1376,1,62700,0.0009989999999999721
667001,7276,6962,130432,-1875,11150,122977,403,19233,1651,0,62701,0.0010010000000000296
668000,17423,9918,128826,-259,5023,122114,270,19233,1651,0,62702,0.0009989999999999721
669000,11516,-2022,126168,4537,-4752,129447,310,19208,1106,0,62703,0.0010000000000000009
670000,7298,-6958,126141,1834,-9187,129772,310,19200,1270,0,62704,0.0010000000000000009
671000,6663,-5505,127350,-9904,-3722,129169,342,19189,1401,1,62705,0.0010000000000000009
672000,6225,9335,131600,6857,9371,124935,294,19226,1204,1,62706,0.0010000000000000009
673000,14812,-264,128935,7384,-3311,128845,253,19209,1036,1,62707,0.0010000000000000009
674000,9522,-3268,126249,-8899,-3068,125979,292,19209,1196,1,62708,0.0010000000000000009
675000,10258,-5328,126913,9170,-6340,129947,335,19208,1196,1,62709,0.0010000000000000009
676002,9165,403,127013,3339,3588,124088,392,19193,1372,0,62710,0.0010020000000000584
677000,7531,11675,131034,-10745,10401,124288,392,19232,1606,0,62711,0.0009979999999999434
678000,12307,-1538,125360,4334,-7167,131475,262,19204,1073,0,62712,0.0010000000000000009
679000,7006,-3862,125476,6295,-3376,125051,296,19208,1212,0,62713,0.0010000000000000009
680000,7463,53,128697,-3234,-985,128504,328,19208,1343,0,62714,0.0010000000000000009
681000,8969,-3250,126149,-4724,-3044,126646,386,19197,1343,1,62715,0.0010000000000000009
682000,8096,8676,130430,2458,8362,125992,231,19216,1581,1,62716,0.0010000000000000009
683000,16227,2109,126187,1343,-563,127451,231,19214,946,1,62717,0.0010000000000000009
684000,8380,-3264,124463,-94,-4637,125274,279,19202,1143,1,62718,0.0010000000000000009
685000,7069,-1884,127412,6091,-2800,129718,309,19194,1266,1,62719,0.0010000000000000009
686000,8304,3036,126680,-6380,2770,124666,360,19194,1474,0,62720,0.0010000000000000009
687002,8148,9006,129373,-3231,7058,124365,248,19218,1474,0,62721,0.0010020000000000584
688002,12584,2612,128139,10014,1530,126978,297,19205,1016,0,62722,0.0010000000000000009
689000,6917,-1524,125642,-7438,-2455,125683,297,19202,1216,0,62723,0.0009979999999999434
690001,7971,-3245,128190,4507,-3502,128249,331,19201,1356,0,62724,0.0010010000000000296
691000,5791,1140,127464,-76,460,124665,376,19191,1540,1,62725,0.0009989999999999721
692000,6868,7136,129336,-14738,6489,127706,169,19214,692,1,62726,0.0010000000000000009
693000,10879,2303,126358,6895,429,126710,272,19214,692,1,62727,0.0010000000000000009
694000,6648,-3994,123155,-704,-5050,121324,311,19203,1114,1,62728,0.0010000000000000009
695001,6989,4167,127520,-4036,4175,125943,311,19202,1274,1,62729,0.0010010000000000296
696000,7873,1670,126674,4096,-3205,131931,362,19196,1483,0,62730,0.0009989999999999721
697000,4456,2968,127717,-3724,9071,120930,261,19220,1069,0,62731,0.0010000000000000009
698002,14937,7800,126683,-17705,5277,122105,276,19210,1130,0,62732,0.0010020000000000584
699000,5786,-1157,128232,21987,-13233,135465,311,19210,1130,0,62733,0.0009979999999999434
700003,4641,-20269,124478,-15292,-15825,133088,355,19201,1274,0,62734,0.0010029999999999761
701002,2555,3589,128558,-12768,17596,117438,355,19195,1454,1,62735,0.0009990000000000832
702000,3864,25158,129247,1354,17409,121038,277,19224,1135,1,62736,0.0009979999999999434
703000,21335,7346,129334,7992,841,124825,270,19205,1106,1,62737,0.0010000000000000009
704001,3094,-8339,125923,3959,-18486,136410,306,19200,1253,1,62738,0.0010010000000000296
705000,6762,-16048,125180,-16034,-6649,125117,345,19200,1253,1,62739,0.0009989999999999721
706000,2727,9690,130835,2109,12427,123861,367,19193,1413,0,62740,0.0010000000000000009
707000,9054,2952,131062,2192,-1927,132840,367,19224,1503,0,62741,0.0010000000000000009
708002,10865,3758,125887,-5203,9001,118093,278,19205,1139,0,62742,0.0010020000000000584
709000,-2230,2907,128568,-6801,-9217,133539,320,19202,1311,0,62743,0.0009979999999999434
710000,10916,-13139,123907,-1076,-6881,124996,353,19194,1446,0,62744,0.0010000000000000009
711000,2612,4882,129698,1958,6881,127878,403,19194,1446,1,62745,0.0010000000000000009
712000,9874,7006,130308,-8846,7271,123334,225,19211,1651,1,62746,0.0010000000000000009
713002,11213,6733,125893,5607,-91,125895,225,19210,922,1,62747,0.0010019999999999474
714002,5973,-14837,126839,22,-16551,138295,288,19202,1180,1,62748,0.0010000000000000009
715000,9034,-4653,124711,3043,2018,117888,331,19199,1356,1,62749,0.0009980000000000544
716000,1031,8112,129332,-8926,6867,128597,387,19219,1585,0,62750,0.0010000000000000009
717000,13087,6659,130301,-5094,3668,124317,256,19219,1585,0,62751,0.0010000000000000009
718000,11372,-414,127289,11995,-4066,130329,291,19207,1049,0,62752,0.0010000000000000009
719000,8128,-4046,127345,-933,-4201,126733,291,19201,1192,0,62753,0.0010000000000000009
720000,4695,-3502,125332,-2106,-7114,125980,326,19200,1335,0,62754,0.0010000000000000009
721000,5205,-7815,127890,-8693,-4729,134396,391,19211,1601,1,62755,0.0010000000000000009
722000,16238,12383,130834,7745,16299,117134,231,19212,946,1,62756,0.0010000000000000009
723000,9408,8165,128870,1900,2216,127147,286,19212,1171,1,62757,0.0010000000000000009
724000,6892,-11125,126856,-6024,-14056,130392,311,19206,1171,1,62758,0.0010000000000000009
725000,3317,-13801,126203,1758,-12567,134015,355,19198,1274,1,62759,0.0010000000000000009
726000,9772,3639,129845,-2630,8315,124976,355,19196,1454,0,62760,0.0010000000000000009
727000,8639,15440,130144,4014,12679,117661,243,19222,995,0,62761,0.0010000000000000009
728002,13185,-5040,126690,-1672,-7658,132955,285,19204,1167,0,62762,0.0010019999999999474
729001,9529,-9366,126289,6683,-10277,127652,318,19204,1302,0,62763,0.0009990000000000832
730000,6609,-1193,127484,3627,-649,129475,356,19199,1302,1,62764,0.0009989999999999721
731000,9286,5516,129627,-8910,6156,123061,172,19188,1458,1,62765,0.0010000000000000009
732000,13861,7024,128379,2709,3956,126277,172,19218,704,1,62766,0.0010000000000000009
733000,14626,-2507,128277,4974,-3793,131652,272,19207,1114,1,62767,0.0010000000000000009
734002,6148,-7714,125199,6903,-9470,125794,304,19203,1245,1,62768,0.0010019999999999474
735000,7076,-4655,126407,-7463,-5023,130206,353,19203,1446,0,62769,0.0009980000000000544
736000,8096,6822,129296,-2940,8407,123202,254,19191,1446,0,62770,0.0010000000000000009
737000,17260,12917,130592,6486,11918,123492,279,19213,1040,0,62771,0.0010000000000000009
738000,11812,-3143,125589,168,-5988,130589,279,19201,1143,0,62772,0.0010000000000000009
739000,3196,-9675,126483,1269,-10506,129728,306,19201,1253,0,62773,0.0010000000000000009
740000,8761,-5553,126791,-2578,-5742,126738,344,19195,1409,0,62774,0.0010000000000000009
741000,6569,9730,130091,-1864,9718,123317,341,19235,1397,1,62775,0.0010000000000000009
742000,14679,6786,129735,779,6489,127955,258,19235,1397,1,62776,0.0010000000000000009
743000,10637,-1885,125431,2107,-2264,123342,292,19206,1057,1,62777,0.0010000000000000009
744000,8265,-411,126883,3574,-8738,132194,292,19199,1196,1,62778,0.0010000000000000009
745001,8298,-8163,125742,3247,-181,125382,327,19193,1339,0,62779,0.0010009999999999186
746000,6100,9666,130160,-9360,10604,124672,390,19233,1597,0,62780,0.0009990000000000832
747000,16978,6842,128272,3867,2807,125596,268,19206,1098,0,62781,0.0010000000000000009
748014,7355,2446,125161,-674,-1479,125168,305,19206,1098,0,62782,0.0010139999999999594
749002,4115,-6640,127023,-3854,-8747,131543,341,19202,1249,0,62783,0.0009879999999999889
750000,6108,-3376,126793,-3624,1053,125375,341,19193,1397,1,62784,0.0009980000000000544
751000,7489,5217,128541,-1127,10547,123450,397,19222,1626,1,62785,0.0010000000000000009
752000,14603,9651,128630,1043,5915,123188,239,19215,979,1,62786,0.0010000000000000009
753000,7995,-666,124728,-4329,-9441,130990,284,19200,1163,1,62787,0.0010000000000000009
754000,6377,-7874,124891,6042,-42,123197,324,19200,1163,1,62788,0.0010000000000000009
755000,5778,11254,127959,992,6012,127460,382,19204,1327,0,62789,0.0010000000000000009
756000,5398,39,128908,-19175,692,127283,382,19209,1565,0,62790,0.0010000000000000009
757000,14904,6416,128887,2648,2546,123670,249,19210,1020,0,62791,0.0010000000000000009
758000,7671,-1398,126965,15276,-3279,130152,290,19198,1188,0,62792,0.0010000000000000009
759000,2489,-3977,125506,-14743,-8728,127770,327,19202,1339,0,62793,0.0010000000000000009
760001,5240,-8221,126088,-3489,-1244,128362,381,19202,1339,1,62794,0.0010009999999999186
761000,3766,16062,129190,-566,18379,121456,198,19203,1560,1,62795,0.0009990000000000832
762000,20000,13294,126347,-4831,10799,119569,198,19216,811,1,62796,0.0010000000000000009
763000,4705,-2608,127620,8342,-9777,133039,283,19204,1159,1,62797,0.0010000000000000009
764000,6524,-20020,123746,-1063,-18332,133124,318,19199,1302,1,62798,0.0010000000000000009
765000,3841,3950,128755,-12150,11594,119496,365,19188,1495,0,62799,0.0010000000000000009
766000,3878,11049,132580,-1247,4098,133511,184,19188,754,0,62800,0.0010000000000000009
767000,13369,366,123899,1154,2202,120246,294,19216,754,0,62801,0.0010000000000000009
768000,1232,7425,128682,-5057,1941,128230,331,19202,1204,0,62802,0.0010000000000000009
769000,8586,-12290,124314,-323,-12833,129565,331,19205,1356,0,62803,0.0010000000000000009
770000,3130,2097,127274,1179,3581,124334,369,19189,1511,1,62804,0.0010000000000000009
771000,9082,1505,131441,-14586,1266,131690,379,19233,1552,1,62805,0.0010000000000000009
772000,11730,10779,127448,5899,11862,115998,260,19233,1065,1,62806,0.0010000000000000009
773001,6651,-3824,127923,368,-12885,138337,300,19202,1065,1,62807,0.0010009999999999186
774001,8975,-16349,124022,-2033,-13088,125998,349,19201,1229,1,62808,0.0010000000000000009
775000,3141,5341,127210,-838,5242,125074,349,19201,1429,0,62809,0.0009989999999999721
776000,9087,8239,130844,-8758,8244,125662,337,19226,1380,0,62810,0.0010000000000000009
777000,12358,5749,130381,6925,3540,123825,274,19203,1122,0,62811,0.0010000000000000009
778000,7113,-11666,126425,-996,-13147,136721,304,19203,1245,0,62812,0.0010000000000000009
779000,5710,657,126083,2077,1332,118253,341,19196,1245,0,62813,0.0010000000000000009
780000,5569,-3846,127592,-3869,-5826,133617,376,19191,1397,1,62814,0.0010000000000000009
781001,11086,4080,130018,-4280,7512,123334,376,19233,1540,1,62815,0.0010010000000000296
782000,12913,7885,127438,7323,4259,124727,263,19209,1077,1,62816,0.0009989999999999721
783000,7327,-4555,126807,-5018,-5665,129589,299,19202,1225,1,62817,0.0010000000000000009
784000,4478,-9645,126858,4332,-11057,129086,325,19200,1331,1,62818,0.0010000000000000009
785000,6678,-7979,127385,-4451,-6817,133982,377,19200,1331,0,62819,0.0010000000000000009
786003,10340,18059,130334,-4352,18409,119729,254,19219,1544,0,62820,0.0010030000000000872
787000,14006,1912,125360,4663,-1927,132170,254,19210,1040,0,62821,0.0009969999999999146
788001,9582,-7221,125662,163,-7864,126092,299,19203,1225,0,62822,0.0010010000000000296
789000,6473,-7912,126362,5125,-9014,132630,336,19198,1376,0,62823,0.0009989999999999721
790000,8267,2955,128418,-5374,9777,120814,383,19227,1569,1,62824,0.0010000000000000009
791000,10911,11141,130113,-513,1168,129855,237,19227,1569,1,62825,0.0010000000000000009
792000,16807,-3321,128425,6691,-3732,127946,283,19204,971,1,62826,0.0010000000000000009
793000,8607,-3097,126141,5730,-8489,126831,283,19202,1159,1,62827,0.0010000000000000009
794000,6272,-7875,126443,821,-4724,130448,315,19197,1290,1,62828,0.0010000000000000009
795009,7173,3048,128218,-4161,11029,121774,375,19216,1536,0,62829,0.0010090000000000376
796000,11664,12729,130705,5106,7043,125851,252,19209,1032,0,62830,0.0009909999999999641
797000,14026,4191,128953,-836,-3868,127756,294,19209,1032,0,62831,0.0010000000000000009
798000,5522,-10570,126155,2314,-14252,130850,317,19206,1204,0,62832,0.0010000000000000009
799000,8739,-9316,127063,-274,-5451,129899,317,19201,1298,0,62833,0.0010000000000000009
800003,7369,5628,129394,-4102,10537,121406,360,19195,1474,1,62834,0.0010029999999999761
801000,9676,11644,130322,1577,7136,126540,164,19212,672,1,62835,0.0009970000000000256
802000,12564,212,126570,961,-3085,127218,271,19206,1110,1,62836,0.0010000000000000009
803000,6931,-3250,126424,2910,-4861,127668,306,19206,1110,1,62837,0.0010000000000000009
804000,8249,-4624,126050,3107,-3395,128449,347,19199,1253,1,62838,0.0010000000000000009
805000,6588,4383,128886,-9535,7116,123617,347,19188,1421,0,62839,0.0010000000000000009
806000,17293,10138,127901,4619,7768,126598,184,19218,754,0,62840,0.0010000000000000009
807000,10484,3217,126428,2685,1054,124727,283,19203,1159,0,62841,0.0010000000000000009
808000,5842,-2933,126180,-2731,-7720,128358,320,19202,1311,0,62842,0.0010000000000000009
809006,4373,-6410,125868,-5102,-4061,129551,365,19202,1495,0,62843,0.0010060000000000624
810000,4513,5455,129847,-4431,8295,125815,293,19192,1495,1,62844,0.0009939999999999394
811000,12045,8416,130479,3849,6692,124492,259,19226,1200,1,62845,0.0010000000000000009
812000,10291,-2004,124476,-134,-5378,125403,259,19204,1061,1,62846,0.0010000000000000009
813000,5176,-1666,126915,-6231,263,124761,296,19203,1212,1,62847,0.0010000000000000009
814000,11071,-733,124818,11264,-1596,129887,339,19200,1388,1,62848,0.0010000000000000009
815000,549,8829,129391,-4114,11954,123822,405,19200,1659,0,62849,0.0010000000000000009
816000,14401,8704,131192,-27356,3649,121902,274,19230,1659,0,62850,0.0010000000000000009
817000,11585,-442,128949,25043,-3028,128227,306,19204,1122,0,62851,0.0010000000000000009
818000,3269,-15434,126943,3709,-21214,139878,306,19197,1253,0,62852,0.0010000000000000009
819000,6205,-10641,124445,-20603,-2915,122305,339,19199,1388,0,62853,0.0010000000000000009
820000,-2783,23063,130441,1940,23860,120877,400,19237,1638,1,62854,0.0010000000000000009
821000,20007,16402,126685,-2778,11660,121096,254,19237,1040,1,62855,0.0010000000000000009
822000,8656,3910,124720,207,-1631,124330,300,19208,1040,1,62856,0.0010000000000000009
823000,5202,-15777,127551,6125,-18735,137998,334,19202,1229,1,62857,0.0010000000000000009
824000,6516,-9721,124645,-5671,-5258,124303,334,19195,1368,1,62858,0.0010000000000000009
825000,40,11697,133932,-6063,11059,127822,389,19216,1593,0,62859,0.0010000000000000009
826000,17157,5670,129409,-5629,5062,123089,259,19206,1061,0,62860,0.0010000000000000009
827000,4651,3729,125843,1735,58,126601,306,19205,1253,0,62861,0.0010000000000000009
828000,2333,-12661,126225,-4140,-14022,133143,343,19205,1253,0,62862,0.0010000000000000009
829001,7277,873,125747,-4393,3055,120145,393,19192,1405,0,62863,0.0010010000000000296
830000,5470,10965,130811,-447,10525,129901,393,19186,1610,1,62864,0.0009989999999999721
831000,10310,6536,130007,-2891,5304,122142,176,19218,721,1,62865,0.0010000000000000009
832001,12587,-9106,125534,2989,-11270,132709,274,19201,1122,1,62866,0.0010010000000000296
833000,4264,-11768,127620,4757,-11886,129763,311,19199,1274,1,62867,0.0009989999999999721
834001,7215,204,126907,-10164,-382,127706,365,19199,1274,1,62868,0.0010010000000000296
835000,3504,5140,130340,1259,4733,127283,184,19198,1495,0,62869,0.0009989999999999721
836000,12550,13525,127604,-2143,12231,122021,184,19216,754,0,62870,0.0010000000000000009
837001,9145,-501,125468,-5445,-1880,128831,290,19202,1188,0,62871,0.0010010000000000296
838000,7506,-5916,127015,5978,-7183,128982,316,19209,1294,0,62872,0.0009989999999999721
839000,11421,-13176,125972,5790,-10620,132903,364,19188,1491,1,62873,0.0010000000000000009
840000,4166,1787,129247,-7891,14082,120739,211,19188,1491,1,62874,0.0010000000000000009
841000,14413,14391,131576,-5294,3886,125866,281,19222,864,1,62875,0.0010000000000000009
842000,6815,-2285,126357,4280,-5605,129670,281,19202,1151,1,62876,0.0010000000000000009
843000,3706,-7831,126222,-4676,-12139,131707,313,19200,1282,1,62877,0.0010000000000000009
844000,5078,-9892,125832,-1607,-1867,126683,346,19202,1417,1,62878,0.0010000000000000009
845000,10101,10041,129660,-3960,13259,121273,388,19225,1589,0,62879,0.0010000000000000009
846000,18740,5855,129877,8834,-2120,127858,268,19225,1589,0,62880,0.0010000000000000009
847000,10836,-2056,126060,2309,-5292,127331,303,19205,1098,0,62881,0.0010000000000000009
848002,6967,-7695,126015,-1097,-11013,132020,344,19202,1241,0,62882,0.0010019999999999474
849000,5592,-4625,126704,-4560,2623,124843,344,19213,1409,1,62883,0.0009980000000000544
850000,8674,10775,131267,2784,7380,126723,254,19228,1040,1,62884,0.0010000000000000009
851001,16728,-191,129870,8221,-703,125082,261,19206,1069,1,62885,0.0010010000000000296
852002,7908,-1735,127372,-709,-8022,129558,295,19206,1208,1,62886,0.0010009999999999186
853000,8137,-13186,125684,2771,-10567,132346,328,19202,1208,1,62887,0.0009980000000000544
854000,7513,3037,127386,-1402,10179,120716,389,19196,1343,0,62888,0.0010000000000000009
855002,10182,14482,130205,-1709,12020,125288,389,19234,1593,0,62889,0.0010019999999999474
856000,13237,5723,125952,598,737,125135,269,19206,1102,0,62890,0.0009980000000000544
857000,7592,-7307,126482,7523,-12777,132227,305,19202,1249,0,62891,0.0010000000000000009
858000,6305,-11322,126991,1176,-7208,128787,333,19202,1364,0,62892,0.0010000000000000009
859000,6483,1240,127733,-10794,3396,124321,384,19198,1364,1,62893,0.0010000000000000009
860000,9119,9013,130853,24,8780,126833,232,19220,1573,1,62894,0.0010000000000000009
861000,17129,6599,126190,8332,3566,124878,232,19215,950,1,62895,0.0010000000000000009
862000,8645,-1639,125020,-877,-3647,125527,276,19211,1130,1,62896,0.0010000000000000009
863000,6957,-6919,125107,2020,-8039,128369,319,19197,1307,1,62897,0.0010000000000000009
864000,8152,-1000,127449,-1716,1201,127404,371,19197,1520,0,62898,0.0010000000000000009
865000,9083,12703,130732,-3078,11388,123988,249,19220,1520,0,62899,0.0010000000000000009
866000,12900,6027,129338,7866,2207,125111,291,19210,1020,0,62900,0.0010000000000000009
867000,4344,-3259,125642,-2844,-5351,126828,291,19203,1192,0,62901,0.0010000000000000009
868002,8539,-7329,126988,-1310,-7985,130129,327,19195,1339,0,62902,0.0010019999999999474
869000,4950,-2665,126649,1358,138,126245,382,19192,1565,1,62903,0.0009980000000000544
870000,8559,15504,130736,-10979,15853,122107,171,19192,700,1,62904,0.0010000000000000009
871000,11358,4047,125799,5059,-811,127692,272,19212,700,1,62905,0.0010000000000000009
872000,3492,-4957,124268,-2045,-6077,126727,306,19206,1114,1,62906,0.0010000000000000009
873000,9929,921,126845,-895,1819,123968,306,19201,1253,1,62907,0.0010000000000000009
874000,5137,1964,126899,4753,-474,129623,359,19189,1470,0,62908,0.0010000000000000009
875000,7164,3916,128792,-12067,5355,125725,235,19220,962,0,62909,0.0010000000000000009
876000,14803,6457,127381,-5666,5157,121453,283,19205,1159,0,62910,0.0010000000000000009
877001,4629,869,127851,16217,-3000,130695,312,19205,1159,0,62911,0.0010009999999999186
878000,4244,-18117,124712,-4592,-19459,135707,356,19201,1278,0,62912,0.0009990000000000832
879000,2289,2497,127115,-14009,7079,120585,356,19190,1458,1,62913,0.0010000000000000009
880000,7496,25358,129691,-2073,22125,120421,267,19224,1094,1,62914,0.0010000000000000009
881000,19180,3526,128113,6641,4080,123297,270,19204,1106,1,62915,0.0010000000000000009
882000,3791,-7615,126122,4729,-11283,134656,311,19197,1274,1,62916,0.0010000000000000009
883000,5494,-13441,125592,-8118,-12819,123801,353,19197,1274,1,62917,0.0010000000000000009
884000,2963,8747,130727,-5742,8938,128902,277,19191,1446,0,62918,0.0010000000000000009
885000,9517,1240,130615,1969,910,127679,277,19223,1135,0,62919,0.0010000000000000009
886000,10052,4457,127061,-3323,8701,119797,282,19200,1155,0,62920,0.0010000000000000009
887000,1560,1828,127945,-1385,-13230,134238,317,19199,1298,0,62921,0.0010000000000000009
888000,9394,-12490,123945,-3722,-3500,124823,357,19195,1462,0,62922,0.0010000000000000009
889000,3233,5611,129491,1422,8788,127422,414,19195,1462,1,62923,0.0010000000000000009
890000,8038,10720,129992,-11474,10148,119540,240,19217,1696,1,62924,0.0010000000000000009
891000,11687,5839,126474,6566,-9295,132195,240,19212,983,1,62925,0.0010000000000000009
892000,6320,-18408,126753,1452,-17794,135194,284,19201,1163,1,62926,0.0010000000000000009
893002,7406,-4688,125269,320,4290,118802,325,19197,1331,1,62927,0.0010019999999999474
894001,3028,8990,129626,-11723,7403,128397,390,19230,1597,0,62928,0.0009989999999999721
895000,13386,9842,129878,1448,6596,124347,262,19230,1597,0,62929,0.0009989999999999721
896000,11499,901,127254,5442,-6325,131704,297,19207,1073,0,62930,0.0010000000000000009
897000,7349,-4786,126005,-2172,-2602,123662,297,19203,1216,0,62931,0.0010000000000000009
898000,5659,-4153,126034,-884,-9072,130021,329,19196,1347,0,62932,0.0010000000000000009
899000,5869,-8465,128038,-5788,-956,130813,387,19218,1585,1,62933,0.0010000000000000009
900000,15612,12204,131236,5595,14667,118245,242,19216,991,1,62934,0.0010000000000000009
901000,9075,5887,128421,-4701,-2922,129487,291,19216,1192,1,62935,0.0010000000000000009
902000,6373,-10085,126764,-684,-13298,129573,321,19205,1192,1,62936,0.0010000000000000009
903000,4398,-11839,126088,1779,-9374,133692,366,19202,1315,1,62937,0.0010000000000000009
904001,8751,5017,129907,-4786,12346,120575,366,19180,1499,0,62938,0.0010010000000000296
905002,9614,12632,130274,3602,5474,123202,185,19207,758,0,62939,0.0010010000000000296
906000,13100,-5999,127133,566,-7965,131877,282,19200,1155,0,62940,0.0009979999999999434
907000,8720,-5863,126457,6654,-6048,126175,318,19200,1302,0,62941,0.0010000000000000009
908000,5991,-2395,127138,-2254,-1805,129281,365,19199,1302,1,62942,0.0010000000000000009
909000,8459,4617,129621,-7506,6007,124115,197,19208,1495,1,62943,0.0010000000000000009
910000,17035,4210,128593,7110,1642,128537,197,19220,807,1,62944,0.0010000000000000009
911000,13661,80,127993,3680,-2283,127706,273,19209,1118,1,62945,0.0010000000000000009
912000,4757,-8867,125570,3699,-11735,129495,306,19194,1253,1,62946,0.0010000000000000009
913000,6647,-6539,126114,-7532,-3882,129236,347,19194,1421,0,62947,0.0010000000000000009
914000,8422,11073,129968,-453,15324,121420,204,19198,1421,0,62948,0.0010000000000000009
915000,17118,13387,129404,3111,8470,124466,287,19219,836,0,62949,0.0010000000000000009
916001,11162,-4110,125460,-1340,-9028,128997,287,19203,1175,0,62950,0.0010010000000000296
917000,4152,-11047,126186,3824,-11619,130777,315,19196,1290,0,62951,0.0009989999999999721
918000,8734,-5806,127609,-2010,-3942,129121,352,19193,1442,1,62952,0.0010000000000000009
919003,6520,10801,130498,-4807,12026,122562,304,19229,1245,1,62953,0.0010029999999999761
920000,13977,5876,129333,1314,2605,127999,248,19229,1245,1,62954,0.0009970000000000256
921003,10705,-1050,125419,1904,-1081,124298,289,19210,1016,1,62955,0.0010029999999999761
922002,8180,-979,126668,4614,-4546,128773,289,19197,1184,1,62956,0.0009990000000000832
923000,8244,-7222,125416,822,-6175,128750,329,19195,1347,0,62957,0.0009979999999999434
924001,7118,11236,130296,-9548,11604,122531,316,19228,1294,0,62958,0.0010010000000000296
925000,16943,6164,128550,6810,6279,127699,266,19209,1089,0,62959,0.0009989999999999721
926000,6789,259,125191,-555,-1275,124652,298,19209,1089,0,62960,0.0010000000000000009
927000,4062,-6625,126660,-1757,-8182,129868,339,19205,1221,0,62961,0.0010000000000000009
928000,6112,-2345,127506,-4015,-1316,127342,339,19194,1388,1,62962,0.0010000000000000009
929003,8869,7968,130131,-3251,7779,128494,409,19221,1675,1,62963,0.0010029999999999761
930000,11728,-328,126269,3604,-1148,118773,251,19209,1028,1,62964,0.0009970000000000256
931000,8442,8478,126481,-6216,7209,130053,289,19199,1184,1,62965,0.0010000000000000009
932000,9283,-9476,124151,2706,-10426,127296,325,19199,1184,1,62966,0.0010000000000000009
933000,3353,7397,127242,8808,7889,123796,378,19192,1331,0,62967,0.0010000000000000009
934003,7738,6223,129843,-19002,2925,127240,378,19223,1548,0,62968,0.0010029999999999761
935002,13935,4080,127608,-5192,320,124453,252,19206,1032,0,62969,0.0009990000000000832
936000,6729,-6597,126231,12671,-9931,133307,300,19199,1229,0,62970,0.0009979999999999434
937000,4220,-6540,125658,-1888,-1569,125318,331,19207,1356,0,62971,0.0010000000000000009
938000,1656,693,125690,-5553,7823,124216,383,19207,1356,1,62972,0.0010000000000000009
939001,5982,15573,129567,-3984,14580,121814,218,19205,1569,1,62973,0.0010010000000000296
940000,19771,7858,125131,9724,3097,123139,218,19215,893,1,62974,0.0009989999999999721
941000,4616,-1279,128855,3473,-11384,132833,283,19212,1159,1,62975,0.0010000000000000009
942000,6174,-19453,123962,-9143,-18406,132293,323,19198,1323,1,62976,0.0010000000000000009
943001,2964,443,129130,-5682,15487,120696,376,19186,1540,0,62977,0.0010010000000000296
944000,5195,18901,132350,2116,7163,130269,171,19186,1540,0,62978,0.0009989999999999721
945000,11873,84,123927,-2811,592,121179,296,19213,700,0,62979,0.0010000000000000009
946001,454,2297,127368,-2768,-5637,131676,296,19200,1212,0,62980,0.0010010000000000296
947000,10542,-14090,125536,562,-9156,127382,326,19200,1335,0,62981,0.0009989999999999721
948000,4392,7462,127310,-1826,10199,123291,372,19189,1524,1,62982,0.0010000000000000009
949000,8826,2634,131755,-11872,-1439,131878,319,19235,1307,1,62983,0.0010000000000000009
950000,11693,3154,125849,6420,6784,118760,265,19235,1085,1,62984,0.0010000000000000009
951002,7120,692,128665,-1171,-11220,136535,301,19221,1085,1,62985,0.0010019999999999474
952002,8666,-14227,123495,918,-8971,124006,348,19209,1233,1,62986,0.0010000000000000009
953000,3222,2944,127866,-4627,3225,128441,348,19191,1425,0,62987,0.0009980000000000544
954000,8467,7206,130637,-5800,8740,123248,269,19223,1102,0,62988,0.0010000000000000009
955000,13183,10237,131081,9448,4601,123755,275,19202,1126,0,62989,0.0010000000000000009
956000,6132,-12639,126380,619,-15944,137143,309,19202,1266,0,62990,0.0010000000000000009
957000,5864,-5847,125768,-2447,-1514,120165,352,19188,1266,0,62991,0.0010000000000000009
958001,5629,-788,127642,-4024,-2146,132247,335,19185,1442,1,62992,0.0010010000000000296
959001,11212,7155,130947,-636,12257,120050,335,19226,1372,1,62993,0.0010000000000000009
960000,13003,5868,127422,5731,-2401,129394,268,19199,1098,1,62994,0.0009989999999999721
961001,4712,-8658,126652,-4171,-8243,129245,299,19205,1225,1,62995,0.0010010000000000296
962000,6197,-4910,127100,1409,-7004,128341,334,19199,1368,1,62996,0.0009989999999999721
963000,6457,-5829,127628,-1445,-2736,131531,393,19199,1368,0,62997,0.0010000000000000009
964000,11066,14083,129862,-5639,15702,117002,261,19209,1610,0,62998,0.0010000000000000009
965000,14763,2849,125897,9378,-2744,129498,261,19209,1069,0,62999,0.0010000000000000009
966000,8308,-6184,125787,1710,-7557,127251,299,19203,1225,0,63000,0.0010000000000000009
967002,7114,-8682,126339,-1637,-8319,131414,328,19196,1343,0,63001,0.0010019999999999474
968002,6722,3200,129111,-2776,5770,124606,376,19232,1540,1,63002,0.0010000000000000009
969000,13435,11664,129601,4777,6423,124543,245,19232,1540,1,63003,0.0009980000000000544
970000,14758,-4145,127554,6640,-4670,129347,290,19209,1003,1,63004,0.0010000000000000009
971000,8183,-3080,127226,-660,-5223,126659,290,19204,1188,1,63005,0.0010000000000000009
972000,8056,-9118,126254,-1530,-8616,131920,324,19200,1327,1,63006,0.0010000000000000009
973000,5096,8534,129615,2154,10442,121415,372,19223,1524,0,63007,0.0010000000000000009
974000,11595,8516,129568,-2223,7296,127314,250,19209,1024,0,63008,0.0010000000000000009
975000,13991,-2577,126474,-716,-2679,125905,296,19209,1024,0,63009,0.0010000000000000009
976000,7873,-3476,127675,12819,-5208,127777,324,19201,1212,0,63010,0.0010000000000000009
977000,9493,-7122,126274,-5319,-6766,124307,324,19200,1327,0,63011,0.0010000000000000009
978000,5464,4840,130242,-8962,4677,128245,371,19192,1520,1,63012,0.0010000000000000009
979000,7883,4074,130334,6473,3299,127639,168,19219,688,1,63013,0.0010000000000000009
980000,12584,1505,125759,2458,411,124137,266,19202,1089,1,63014,0.0010000000000000009
981000,5942,-992,128096,-2753,-6335,129986,302,19202,1089,1,63015,0.0010000000000000009
982000,9446,-4096,125026,6346,346,125314,348,19197,1237,1,63016,0.0010000000000000009
983000,8713,5099,127801,-4834,6509,124470,348,19193,1425,0,63017,0.0010000000000000009
984000,16016,12624,128398,3327,8400,124181,179,19215,733,0,63018,0.0010000000000000009
985000,9779,319,125059,6847,-5075,129011,286,19204,1171,0,63019,0.0010000000000000009
986000,6794,-6042,126977,-1693,-3753,127386,316,19197,1294,0,63020,0.0010000000000000009
987000,4725,-590,127356,5195,-2254,129420,358,19197,1294,0,63021,0.0010000000000000009
988000,2551,1989,128071,-15208,6762,123757,276,19197,1466,1,63022,0.0010000000000000009
989000,11941,7451,130303,2651,3395,126271,276,19228,1130,1,63023,0.0010000000000000009
990000,10681,-1084,126468,5734,-5443,130146,262,19200,1073,1,63024,0.0010000000000000009
991002,6794,-1950,124182,-8197,6211,114280,306,19201,1253,1,63025,0.0010019999999999474
992002,8772,10932,129194,6016,3643,132928,346,19190,1417,1,63026,0.0010000000000000009
993000,4282,-7323,126858,1433,-5605,132389,380,19190,1556,0,63027,0.0009980000000000544
994000,7134,5495,130080,-25021,7039,118466,267,19229,1556,0,63028,0.0010000000000000009
995000,14628,6966,131550,10743,3858,126553,303,19200,1094,0,63029,0.0010000000000000009
996000,6842,-4553,127151,17899,-16037,134163,303,19203,1241,0,63030,0.0010000000000000009
997000,4514,-18013,123722,-23869,-9753,132479,347,19196,1421,0,63031,0.0010000000000000009
998000,-459,12294,130143,-7347,21945,115718,415,19237,1700,1,63032,0.0010000000000000009
999000,14893,25595,127680,4947,16522,121766,255,19237,1044,1,63033,0.0010000000000000009
1000000,14425,1083,126934,5180,-8188,130363,294,19206,1044,1,63034,0.0010000000000000009
1001000,1515,-15041,124857,14,-19444,134724,330,19199,1204,1,63035,0.0009999999999998899
1002000,5713,-10280,124680,-15665,284,123889,330,19201,1352,0,63036,0.001000000000000112
1003000,1780,15716,132951,3344,12776,125462,394,19228,1614,0,63037,0.0009999999999998899
1004000,18573,128,128663,1461,-2277,128595,268,19206,1098,0,63038,0.001000000000000112
1005000,3386,7688,126532,-10737,8522,120110,313,19206,1282,0,63039,0.0009999999999998899
1006000,670,-6296,126653,-4989,-14318,134740,341,19203,1282,0,63040,0.001000000000000112
1007000,10056,-10347,124752,5999,-2699,125280,387,19191,1397,0,63041,0.0009999999999998899
1008000,3867,9260,131050,-4927,8275,127193,387,19192,1585,1,63042,0.001000000000000112
1009000,10359,7414,128830,-6613,7757,120474,167,19220,684,1,63043,0.0009999999999998899
1010000,8787,1071,127572,3637,-6668,131005,276,19202,1130,1,63044,0.001000000000000112
1011000,8747,-18457,126140,4144,-17596,135174,322,19200,1319,1,63045,0.0009999999999998899
1012000,5231,3715,126281,-208,7111,117055,375,19200,1319,0,63046,0.001000000000000112
1013000,3688,9861,131008,-13612,6315,129318,167,19185,1536,0,63047,0.0009999999999998899
1014000,17648,4091,126932,766,3551,126287,167,19213,684,0,63048,0.001000000000000112
1015000,8521,-3444,126925,8106,-5923,131915,280,19200,1147,0,63049,0.0009999999999998899
1016000,6426,-3390,126483,-1857,-2919,122488,317,19192,1298,0,63050,0.001000000000000112
1017000,3824,-3757,126032,-4407,-6081,128895,373,19184,1528,1,63051,0.0009999999999998899
1018002,9162,-4974,129179,-6897,-1617,132478,174,19184,1528,1,63052,0.0010019999999999474
1019000,16939,15956,129380,10672,15434,116890,275,19224,713,1,63053,0.0009980000000000544
1020000,6400,942,127457,-5459,-3806,129741,275,19206,1126,1,63054,0.001000000000000112
1021000,4040,-14012,125107,-3432,-16058,129930,303,19201,1241,1,63055,0.0009999999999998899
1022000,3998,-10361,127620,1686,-9405,135426,347,19197,1421,0,63056,0.001000000000000112
1023000,12365,11550,130296,-2161,15212,119560,292,19227,1196,0,63057,0.0009999999999998899
1024000,12850,12199,128662,1232,8278,129791,276,19227,1196,0,63058,0.001000000000000112
1025000,12188,-9809,125278,-2388,-11878,131701,307,19202,1130,0,63059,0.0009999999999998899
1026000,8797,-8655,125376,9351,-8925,128048,307,19202,1257,0,63060,0.001000000000000112
1027000,7105,519,128235,-1059,367,125429,342,19196,1401,1,63061,0.0009999999999998899
1028000,7557,8499,130601,-9396,7345,123630,260,19224,1065,1,63062,0.001000000000000112
1029000,14773,-137,129957,5262,-3394,131738,265,19206,1085,1,63063,0.0009999999999998899
1030000,10886,-3987,127345,4931,-7934,126341,303,19206,1085,1,63064,0.001000000000000112
1031000,5053,-6657,125491,5001,-6763,129085,338,19200,1241,1,63065,0.0009999999999998899
1032000,7891,-2246,127809,-8054,5362,124808,338,19190,1384,0,63066,0.001000000000000112
1033000,10763,12636,130588,-1387,12915,123637,305,19225,1249,0,63067,0.0009999999999998899
1034000,15351,7897,127282,2109,-1536,129539,268,19206,1098,0,63068,0.001000000000000112
1035000,5497,-7020,126034,-1749,-12255,127599,303,19204,1241,0,63069,0.0009999999999998899
1036000,5982,-9806,126991,-35,-5886,130160,339,19204,1241,0,63070,0.001000000000000112
1037000,7848,443,127865,-2562,6617,124557,394,19198,1388,1,63071,0.0009999999999998899
1038000,8772,11486,130194,-1734,8212,124849,394,19228,1614,1,63072,0.001000000000000112
1039000,15368,2248,126151,4829,-1340,127216,240,19210,983,1,63073,0.0009999999999998899
1040004,8742,-682,125436,4112,-2528,124568,266,19203,1089,1,63074,0.0010040000000000049
1041000,8589,-4415,125758,2367,-6628,130859,315,19201,1290,1,63075,0.0009959999999999969
1042003,6717,-1821,127285,-7751,4124,124391,374,19201,1532,0,63076,0.0010030000000000872
1043002,9967,10779,129524,2037,10106,124041,259,19228,1532,0,63077,0.0009989999999999721
1044000,13430,6706,128762,7117,2095,125023,296,19211,1061,0,63078,0.0009980000000000544
1045001,4760,-1333,125821,-3024,-6345,127737,296,19203,1212,0,63079,0.0010009999999998076
1046000,6387,-8740,126849,-4987,-6917,130833,326,19197,1335,0,63080,0.0009990000000001942
1047000,5434,103,127235,-1991,2044,126268,377,19198,1544,1,63081,0.0009999999999998899
1048000,7954,10545,130120,1020,12723,121154,194,19198,795,1,63082,0.001000000000000112
1049000,12522,9676,126502,-35,3557,124892,282,19222,795,1,63083,0.0009999999999998899
1050000,5544,-9814,124897,-1694,-13651,132166,319,19206,1155,1,63084,0.001000000000000112
1051000,8010,-1213,126239,5217,7041,120936,319,19194,1307,1,63085,0.0009999999999998899
1052000,4831,8754,127629,-5338,1077,130085,366,19190,1499,0,63086,0.001000000000000112
1053000,5677,2820,129045,-10247,7402,122774,183,19214,750,0,63087,0.0009999999999998899
1054000,15900,3499,127283,6467,-1396,127694,280,19203,1147,0,63088,0.001000000000000112
1055001,4695,-3653,127310,10112,-4102,128688,316,19203,1147,0,63089,0.0010009999999998076
1056001,4465,-7793,125518,-14450,-10993,129300,370,19199,1294,0,63090,0.001000000000000112
1057001,3173,754,127949,-2927,9183,124354,370,19192,1515,1,63091,0.0009999999999998899
1058000,6666,22519,128585,-2122,16297,119710,229,19220,938,1,63092,0.0009990000000001942
1059000,17528,4476,129265,2975,2474,124207,271,19205,1110,1,63093,0.0009999999999998899
1060001,2952,-7118,126031,6480,-14151,133632,305,19199,1249,1,63094,0.0010010000000000296
1061000,7903,-15344,125453,-8672,-10680,128280,353,19199,1249,1,63095,0.0009989999999999721
1062002,1372,12036,131202,-6598,13572,122277,252,19193,1446,0,63096,0.0010019999999999474
1063000,11876,1772,130334,3842,453,132656,252,19224,1032,0,63097,0.0009980000000000544
1064000,7955,2691,126368,-3937,5928,119324,289,19198,1184,0,63098,0.001000000000000112
1065000,3024,782,128639,-3045,-5567,131405,322,19211,1319,0,63099,0.0009999999999998899
1066003,8635,-11307,123354,-2616,-8716,127238,354,19191,1450,0,63100,0.0010030000000000872
1067000,2193,5074,130600,-917,4578,127940,413,19191,1450,1,63101,0.0009969999999999146
1068000,10582,4268,129265,-9392,4979,124473,251,19231,1692,1,63102,0.001000000000000112
1069000,10130,11218,126995,8203,7319,121133,251,19209,1028,1,63103,0.0009999999999998899
1070000,6080,-17421,126587,-2869,-20157,139959,295,19205,1208,1,63104,0.001000000000000112
1071000,6079,-5483,125261,1212,-2282,120584,338,19194,1384,1,63105,0.0009999999999998899
1072000,4006,7064,129673,-6379,5487,129455,395,19231,1618,0,63106,0.0009999999999998899
1073000,14366,11322,129082,-1770,8700,121338,261,19231,1618,0,63107,0.001000000000000112
1074000,10301,-889,127415,7480,-4669,137160,296,19214,1069,0,63108,0.0009999999999998899
1075000,8184,-9097,126180,-67,-8428,119922,296,19207,1212,0,63109,0.001000000000000112
1076000,4849,1412,126362,-1445,-6386,132385,338,19197,1384,0,63110,0.0009999999999998899
1077000,6891,-6897,128281,-5852,4871,126043,399,19218,1634,1,63111,0.001000000000000112
1078000,14724,11973,130672,3748,8672,121295,246,19211,1008,1,63112,0.0009999999999998899
1079000,9577,-174,128113,1481,-7123,132136,286,19211,1008,1,63113,0.001000000000000112
1080000,6044,-6184,127220,-2564,-10207,126950,316,19206,1171,1,63114,0.0009999999999998899
1081000,3882,-11707,126414,-498,-8971,135563,316,19199,1294,1,63115,0.001000000000000112
1082000,9690,3638,129039,-5885,16819,116108,366,19189,1499,0,63116,0.0009999999999998899
1083000,10099,15489,130666,4204,1229,126907,164,19212,672,0,63117,0.001000000000000112
1084000,13365,-8010,126671,-572,-8651,130515,290,19202,1188,0,63118,0.0009999999999998899
1085000,8203,-6353,126426,6195,-7579,127927,309,19202,1266,0,63119,0.001000000000000112
1086000,5928,-4412,127440,-4934,-1455,129462,364,19199,1266,1,63120,0.0009999999999998899
1087000,8329,7541,130005,-3539,8736,121856,212,19213,1491,1,63121,0.001000000000000112
1088000,16453,3840,128685,7883,-1977,131431,212,19210,868,1,63122,0.0009999999999998899
1089005,13899,-2263,126983,2732,-2678,125084,276,19206,1130,1,63123,0.0010050000000001447
1090000,4753,-5714,126054,3604,-9685,129774,313,19196,1282,1,63124,0.0009949999999998571
1091002,7442,-6375,126543,-6545,-548,127704,359,19196,1470,0,63125,0.0010020000000001694
1092000,8193,10365,129904,-1181,14076,122243,166,19192,1470,0,63126,0.0009979999999998324
1093000,15441,11049,129465,3908,4814,126777,284,19220,680,0,63127,0.001000000000000112
1094000,10605,-3236,125463,-129,-9874,128880,284,19202,1163,0,63128,0.0009999999999998899
1095000,4463,-12263,125720,3435,-11185,131525,311,19200,1274,0,63129,0.001000000000000112
1096000,8916,-3765,127541,-1797,1371,125813,356,19191,1458,1,63130,0.0009999999999998899
1097000,7710,11764,130465,-6743,10516,122757,251,19191,1028,1,63131,0.001000000000000112
1098000,15333,6962,128951,3201,1737,128288,255,19234,1028,1,63132,0.0009999999999998899
1099000,9213,-2272,125406,316,-3829,126129,294,19207,1044,1,63133,0.001000000000000112
1100001,7231,-2588,126067,4937,-4993,128935,294,19205,1204,1,63134,0.0010010000000000296
1101000,7760,-2993,126108,-1589,-682,126892,333,19197,1364,0,63135,0.0009989999999999721
1102000,8876,8017,129762,-8062,8062,124539,244,19222,999,0,63136,0.0009999999999998899
1103001,16541,5822,129600,11620,5023,124969,277,19205,1135,0,63137,0.0010010000000000296
1104002,5832,1071,125878,-1512,-1300,125495,312,19205,1135,0,63138,0.0010010000000000296
1105000,5003,-6794,126459,-2444,-9322,129814,346,19201,1278,0,63139,0.0009980000000000544
1106000,3986,-2941,127440,-4048,466,127836,346,19198,1417,1,63140,0.0009999999999998899
1107000,9352,9876,130733,-7013,10830,125680,409,19233,1675,1,63141,0.001000000000000112
1108001,13167,6806,127269,4780,1467,124003,248,19208,1016,1,63142,0.0010010000000000296
1109001,5748,-5231,123168,-2176,-4198,123918,293,19202,1200,1,63143,0.0009999999999998899
1110000,10423,177,126845,-4443,-1349,128757,335,19202,1200,1,63144,0.0009989999999999721
1111000,6922,481,125177,18018,1841,127168,394,19203,1372,0,63145,0.001000000000000112
1112000,241,14259,129714,-26331,13471,122926,394,19220,1614,0,63146,0.0009999999999998899
1113003,20512,3153,126382,-11133,435,123201,256,19206,1049,0,63147,0.0010030000000000872
1114000,2396,-4359,128914,32459,-9204,133893,297,19201,1216,0,63148,0.0009969999999999146
1115000,7795,-18738,124672,-14365,-19662,135501,331,19193,1356,0,63149,0.001000000000000112
1116000,-432,3132,126757,-13449,8108,118207,392,19193,1356,1,63150,0.0009999999999998899
1117000,5643,25483,131256,-3,23576,124085,237,19213,1606,1,63151,0.001000000000000112
1118000,21405,9023,125578,-509,9172,118348,237,19217,971,1,63152,0.0009999999999998899
1119000,2627,-7169,125970,4238,-11235,137472,286,19201,1171,1,63153,0.001000000000000112
1120000,9329,-18090,125895,-1491,-17923,127429,324,19197,1327,1,63154,0.0009999999999998899
1121001,477,1716,127909,-1500,3546,124749,376,19206,1540,0,63155,0.0010010000000000296
1122002,6495,11517,133399,-13154,9914,126274,233,19206,1540,0,63156,0.0010010000000000296
1123000,12822,5562,124805,750,4191,124479,303,19213,954,0,63157,0.0009980000000000544
1124000,-243,-3017,126390,3025,-10521,133018,303,19202,1241,0,63158,0.0009999999999998899
1125000,9265,-8633,124837,-4966,-1267,121627,335,19195,1372,0,63159,0.001000000000000112
1126000,2703,4899,126830,-2445,9802,126856,375,19179,1536,1,63160,0.0009999999999998899
1127001,11015,10469,132601,-7350,4588,125490,275,19223,1126,1,63161,0.0010010000000000296
1128000,14679,-1933,127020,3172,-9738,131519,263,19223,1077,1,63162,0.0009989999999999721
1129000,5220,-11977,125324,-2530,-10494,129924,303,19204,1077,1,63163,0.001000000000000112
1130001,5456,-3256,126108,-6215,464,121335,356,19200,1241,1,63164,0.0010010000000000296
1131001,5851,2175,126976,1668,7544,129209,356,19179,1458,0,63165,0.0009999999999998899
1132000,6513,11584,130927,-5233,9476,122013,248,19224,1016,0,63166,0.0009989999999999721
1133001,14142,3825,129039,3807,-3600,127897,277,19195,1135,0,63167,0.0010010000000000296
1134000,6911,-7618,126495,8180,-8720,129571,311,19195,1274,0,63168,0.0009989999999999721
1135000,7893,-9550,126532,-4103,-11347,129665,352,19200,1274,0,63169,0.001000000000000112
1136000,5664,-6277,127698,-9845,1822,128541,269,19201,1442,1,63170,0.0009999999999998899
1137000,9852,11480,131913,5836,14383,120820,269,19218,1102,1,63171,0.001000000000000112
1138000,10985,6376,127146,4304,-1641,128199,271,19205,1110,1,63172,0.0009999999999998899
1139000,2776,-5908,125761,-10006,-9515,128710,304,19192,1245,1,63173,0.001000000000000112
1140000,7906,-10224,126439,934,-7607,131305,318,19192,1302,1,63174,0.0009999999999998899
1141002,8482,823,128595,4754,6800,124591,388,19195,1302,0,63175,0.0010019999999999474
1142000,12650,11376,130461,-1809,5920,122690,260,19227,1589,0,63176,0.0009980000000000544
1143000,12442,-1373,125540,3194,-4995,129312,260,19206,1065,0,63177,0.001000000000000112
1144000,7134,-7907,126773,4459,-10090,130632,303,19200,1241,0,63178,0.0009999999999998899
1145000,8173,-6682,125913,-311,-2566,127309,340,19197,1393,0,63179,0.001000000000000112
1146000,5458,7557,129304,-7641,8815,123560,375,19233,1536,1,63180,0.0009999999999998899
1147000,12909,9462,129237,4300,3104,126069,247,19233,1536,1,63181,0.001000000000000112
1148000,15834,-129,128092,4618,-2114,128670,285,19207,1012,1,63182,0.0009999999999998899
1149001,9918,-8914,125828,6919,-12976,131350,285,19201,1167,1,63183,0.0010010000000000296
1150002,6679,-7271,125300,-3338,-2877,125844,322,19199,1319,1,63184,0.0010010000000000296
1151000,6525,8585,129521,-7569,11996,123898,384,19220,1573,0,63185,0.0009980000000000544
1152000,15010,8898,130004,6103,6195,125096,263,19208,1077,0,63186,0.0009999999999998899
1153000,11111,1706,127435,2700,-2523,127823,299,19208,1077,0,63187,0.001000000000000112
1154001,5932,-10811,127188,-2961,-12775,130431,323,19201,1225,0,63188,0.0010010000000000296
1155000,7147,-5656,126242,-124,-4378,127520,323,19198,1323,0,63189,0.0009989999999999721
1156000,7149,5218,130498,-1075,7355,127542,357,19194,1462,1,63190,0.0009999999999998899
1157000,11300,8081,129394,223,7406,122608,185,19216,758,1,63191,0.001000000000000112
1158000,12551,3543,126080,3559,248,125682,278,19213,1139,1,63192,0.0009999999999998899
1159000,7815,-4414,126683,3195,-6394,128678,312,19213,1139,1,63193,0.001000000000000112
1160000,8177,-5553,126019,835,-4957,127877,355,19197,1278,1,63194,0.0009999999999998899
1161000,5794,7467,130344,-7263,8358,125707,355,19193,1454,0,63195,0.001000000000000112
1162000,16109,9710,127239,2986,6888,124449,182,19210,745,0,63196,0.0009999999999998899
1163000,10110,367,125169,4729,-1331,126524,282,19201,1155,0,63197,0.001000000000000112
1164000,6894,-5327,126139,-1947,-8578,128094,319,19195,1307,0,63198,0.0009999999999998899
1165002,6414,-3274,125488,-3021,-1942,125844,372,19195,1307,0,63199,0.0010019999999999474
1166000,5098,9596,130147,-3270,9919,125443,256,19191,1524,1,63200,0.0009980000000000544
1167000,10243,6586,130534,-621,5610,125851,256,19220,1049,1,63201,0.001000000000000112
1168000,8894,1136,126748,-1126,870,127887,265,19206,1085,1,63202,0.0009999999999998899
1169000,5610,-9371,124647,-1526,-12338,126637,300,19201,1229,1,63203,0.001000000000000112
1170000,6048,-338,126162,6105,2797,122826,347,19188,1421,1,63204,0.0009999999999998899
1171003,8266,12375,129719,-6645,9914,132355,300,19188,1229,0,63205,0.0010030000000000872
1172000,10591,6,127009,-2272,9063,115863,273,19225,1229,0,63206,0.0009969999999999146
1173000,9863,12974,129572,-7593,248,128428,273,19202,1118,0,63207,0.001000000000000112
1174000,10949,-11189,127786,13938,-22817,137990,304,19204,1245,0,63208,0.0009999999999998899
1175000,-663,-18396,123636,93,-7762,129110,345,19206,1413,1,63209,0.001000000000000112
1176000,3662,7566,130799,-13534,21062,119306,383,19236,1569,1,63210,0.0009999999999998899
1177000,11527,28220,128465,5272,22345,115090,262,19236,1073,1,63211,0.001000000000000112
1178003,16279,9903,126761,7160,-9606,133823,303,19208,1073,1,63212,0.0010029999999998651
1179000,3504,-18768,124245,-2546,-21141,132841,339,19204,1241,1,63213,0.0009970000000001367
1180000,5031,-9859,125690,-12332,4514,122299,339,19194,1388,0,63214,0.0009999999999998899
1181000,4240,12361,133175,4835,7677,130904,399,19238,1634,0,63215,0.001000000000000112
1182000,13898,2,129036,-1689,-2573,125837,270,19203,1106,0,63216,0.0009999999999998899
1183000,5754,2708,126982,-7101,4152,125538,313,19203,1282,0,63217,0.001000000000000112
1184006,-2691,-1448,126141,-2238,-8084,128754,348,19200,1282,0,63218,0.0010059999999998404
1185000,10898,-5414,124480,-3566,1722,123467,398,19193,1425,0,63219,0.0009940000000001614
1186000,5315,7896,130373,-1192,7447,128450,398,19188,1630,1,63220,0.0009999999999998899
1187000,12122,6472,129332,-2689,5219,120622,183,19217,750,1,63221,0.001000000000000112
1188000,10073,-811,127967,3237,-12714,135005,278,19203,1139,1,63222,0.0009999999999998899
1189000,4318,-20597,126413,-351,-18305,134119,319,19203,1307,1,63223,0.001000000000000112
1190000,7171,459,125787,420,10517,118463,377,19202,1307,0,63224,0.0009999999999998899
1191000,1824,16867,130839,-15067,13673,125013,213,19203,1544,0,63225,0.0009999999999998899
1192000,19809,7095,127565,4479,1508,125837,213,19215,872,0,63226,0.001000000000000112
1193001,7830,-8497,125563,7252,-11265,133965,290,19197,1188,0,63227,0.0010010000000000296
1194000,7084,-5566,127218,-2101,-3597,122307,320,19197,1311,0,63228,0.0009989999999999721
1195001,4716,-3398,127222,-1745,-6992,131241,372,19199,1524,1,63229,0.0010010000000000296
1196001,6501,-3596,129159,-7827,2741,130944,190,19199,1524,1,63230,0.0009999999999998899
1197000,16998,14180,129133,7947,12702,117745,282,19219,778,1,63231,0.0009989999999999721
1198002,5144,3746,126551,-2906,-1407,128614,282,19207,1155,1,63232,0.0010020000000001694
1199000,7153,-11246,125160,-1676,-14578,129793,312,19194,1278,1,63233,0.0009979999999998324
1200000,3897,-12528,126521,673,-9296,134299,352,19189,1442,0,63234,0.001000000000000112
1201000,12783,9602,131058,-4563,16398,120566,248,19222,1016,0,63235,0.0009999999999998899
1202000,13088,12576,128699,4248,4093,122758,275,19222,1016,0,63236,0.001000000000000112
1203001,10208,-9500,124848,-4650,-12822,134298,310,19203,1126,0,63237,0.0010010000000000296
1204000,8724,-9216,125353,9594,-7437,127640,310,19200,1270,0,63238,0.0009989999999999721
1205000,6681,2545,127666,-2252,4460,125933,352,19191,1442,1,63239,0.0009999999999998899
1206000,10650,10840,130489,-6432,7950,122903,202,19217,827,1,63240,0.001000000000000112
1207000,14072,-1410,129941,9403,-2522,129289,267,19193,1094,1,63241,0.0009999999999998899
1208000,9944,-5455,127943,4896,-7027,131010,299,19193,1094,1,63242,0.001000000000000112
1209003,4213,-8168,126364,1795,-7916,127576,338,19200,1225,1,63243,0.0010030000000000872
1210001,6874,-1655,127748,-8782,318,128115,338,19196,1384,0,63244,0.0009979999999998324
1211000,11960,11996,129749,2230,14465,121972,262,19227,1073,0,63245,0.0009989999999999721
1212001,15349,11511,127475,6649,7759,124076,266,19204,1089,0,63246,0.0010010000000000296
1213000,7412,-9972,125529,16,-14115,132481,309,19201,1266,0,63247,0.0009989999999999721
1214002,4782,-10969,127254,1024,-9767,128071,341,19201,1266,0,63248,0.0010020000000001694
1215002,7930,1041,128864,-3611,1510,124090,395,19197,1397,1,63249,0.0009999999999998899
1216000,7787,13227,130227,-3863,12525,124247,395,19236,1618,1,63250,0.0009980000000000544
1217000,14996,1761,126437,3302,-1286,130466,241,19215,987,1,63251,0.0009999999999998899
1218000,8541,-4029,124705,810,-3649,120768,284,19200,1163,1,63252,0.001000000000000112
1219000,8652,503,125823,5706,-4547,131855,323,19204,1323,1,63253,0.0009999999999998899
1220000,7980,-1679,127366,-2456,4504,123645,384,19204,1573,0,63254,0.001000000000000112
1221000,9444,10421,129619,-8160,9144,126027,257,19227,1573,0,63255,0.0009999999999998899
1222001,13925,3770,129028,11564,-604,126810,296,19203,1053,0,63256,0.0010010000000000296
1223000,4689,-492,125485,-354,-7503,126472,296,19200,1212,0,63257,0.0009989999999999721
1224001,6085,-8798,126466,-5214,-4942,131745,331,19201,1356,0,63258,0.0010010000000000296
1225000,5460,3476,128133,-3963,9607,122583,388,19201,1589,1,63259,0.0009989999999999721
1226000,9289,8781,127891,6301,4692,123742,213,19201,872,1,63260,0.001000000000000112
1227000,10936,6198,126513,-4217,4916,124058,284,19213,872,1,63261,0.0009999999999998899
1228001,7529,-2789,124978,815,-12560,131127,315,19198,1163,1,63262,0.0010010000000000296
1229000,8241,-7322,124771,8698,5878,124673,315,19199,1290,1,63263,0.0009989999999999721
1230000,2142,12137,129560,-16028,8434,124589,364,19191,1491,0,63264,0.001000000000000112
1231002,8272,1845,129064,-5244,2664,123950,156,19216,639,0,63265,0.0010019999999999474
1232000,14010,-32,127897,13072,-6393,132687,287,19216,1175,0,63266,0.0009980000000000544
1233002,5637,-6455,128159,-661,-6585,128484,323,19204,1175,0,63267,0.0010019999999999474
1234002,2872,-2538,124728,-14973,-1248,124135,373,19200,1323,0,63268,0.001000000000000112
1235000,4164,9410,130461,-1491,13754,125612,373,19187,1528,1,63269,0.0009979999999998324
1236000,11472,12960,127129,3736,4478,123911,201,19214,823,1,63270,0.001000000000000112
1237000,16137,1615,128714,2448,625,124779,272,19206,1114,1,63271,0.0009999999999998899
1238000,3006,-5361,127152,-2057,-14242,133225,310,19201,1270,1,63272,0.001000000000000112
1239000,6219,-13860,124457,-4874,-6068,125889,362,19201,1270,1,63273,0.0009999999999998899
1240000,1572,10859,132329,-3022,13288,127277,268,19189,1483,0,63274,0.001000000000000112
1241000,10989,4397,130586,-2557,-15,126175,268,19219,1098,0,63275,0.0009999999999998899
1242000,7406,3261,126068,-6858,5202,121722,290,19200,1188,0,63276,0.001000000000000112
1243000,5069,-2872,129182,3227,-11506,134372,319,19198,1307,0,63277,0.0009999999999998899
1244001,8873,-9640,122688,-1580,-2639,122916,357,19192,1462,0,63278,0.0010010000000000296
1245000,1980,8958,131280,-6666,6600,129486,423,19192,1462,1,63279,0.0009989999999999721
1246000,8555,1125,129015,-5359,2061,123631,253,19235,1732,1,63280,0.001000000000000112
1247000,11549,8244,126172,9140,3400,124999,253,19209,1036,1,63281,0.0009999999999998899
1248000,5330,-12968,128186,-2209,-15281,136032,288,19203,1180,1,63282,0.001000000000000112
1249000,6461,-6769,124411,-1201,-2713,120844,336,19195,1376,1,63283,0.0009999999999998899
1250000,5371,4008,129239,-6847,5073,130991,395,19231,1618,0,63284,0.001000000000000112
1251000,13106,13357,129297,2634,12389,118629,258,19231,1618,0,63285,0.0009999999999998899
1252000,11246,2436,126853,3851,-5670,131536,298,19208,1057,0,63286,0.001000000000000112
1253000,6172,-11547,125949,-1766,-10932,129482,298,19196,1221,0,63287,0.0009999999999998899
1254003,6412,-3146,126088,-482,-4133,125459,339,19196,1388,1,63288,0.0010030000000000872
1255002,6749,-967,129204,-4098,1444,129691,403,19228,1651,1,63289,0.0009989999999999721
1256002,14089,11133,131210,2488,10395,119795,258,19201,1057,1,63290,0.0009999999999998899
1257000,9057,-3258,127665,-2826,-6969,133216,292,19201,1057,1,63291,0.0009980000000000544
1258000,5874,-6608,127401,236,-6107,126148,317,19208,1196,1,63292,0.001000000000000112
1259000,5905,-6190,126463,2584,-7824,132264,317,19198,1298,1,63293,0.0009999999999998899
1260000,8449,1671,128460,-6928,5446,124147,373,19195,1528,0,63294,0.001000000000000112
1261000,11642,10728,130566,3631,8986,128826,210,19215,860,0,63295,0.0009999999999998899
1262002,13019,-3941,127564,4811,-5518,127936,294,19198,1204,0,63296,0.0010019999999999474
1263000,7944,-5191,126520,2189,-6825,130068,320,19198,1204,0,63297,0.0009980000000000544
1264000,5840,-5339,127025,-1597,-5857,127927,365,19206,1311,1,63298,0.001000000000000112
1265000,7116,7733,129839,-4889,9305,123203,244,19215,1495,1,63299,0.0009999999999998899
1266000,18487,4527,128592,5430,3035,129333,244,19213,999,1,63300,0.001000000000000112
1267000,12324,-2447,127181,2955,-5995,126427,282,19208,1155,1,63301,0.0009999999999998899
1268000,6110,-7886,126490,2995,-8855,130886,316,19208,1294,1,63302,0.001000000000000112
1269000,6120,-3745,127134,-3087,5032,124704,360,19208,1474,0,63303,0.0009999999999998899
1270000,7549,11089,130283,-3209,11320,125372,177,19193,1474,0,63304,0.001000000000000112
1271000,15720,7739,128184,1097,1764,125656,284,19213,725,0,63305,0.0009999999999998899
1272000,10701,-299,126247,5522,-7036,127900,284,19200,1163,0,63306,0.001000000000000112
1273000,6608,-11223,125504,989,-11743,132632,316,19202,1294,0,63307,0.0009999999999998899
1274000,7310,-5126,127681,-6808,2881,124538,362,19194,1483,1,63308,0.001000000000000112
1275000,7640,9229,131046,-1982,9789,124995,248,19194,1016,1,63309,0.0009999999999998899
1276001,14515,6231,127781,6551,2553,124787,260,19229,1016,1,63310,0.0010010000000000296
1277001,9588,1130,125971,-2512,-4706,127613,294,19208,1065,1,63311,0.001000000000000112
1278000,8233,-5632,125736,3218,-6822,129595,294,19200,1204,1,63312,0.0009989999999999721
1279001,8525,-1375,125884,-13,3877,123961,336,19195,1376,0,63313,0.0010009999999998076
1280000,8103,10418,130344,-3511,9183,123822,242,19219,991,0,63314,0.0009990000000001942
1281000,15342,3316,128701,6798,-1139,127621,278,19197,1139,0,63315,0.0009999999999998899
1282000,6366,-2243,126186,-1799,-4240,127863,308,19197,1139,0,63316,0.001000000000000112
1283000,5464,-4029,126603,62,-3532,126281,344,19198,1261,0,63317,0.0009999999999998899
1284000,4887,1826,127980,-4972,3116,125306,344,19192,1409,1,63318,0.001000000000000112
1285000,7395,6094,129600,-7004,5567,128723,411,19234,1683,1,63319,0.0009999999999998899
1286000,13172,3223,126938,5367,630,125104,253,19199,1036,1,63320,0.001000000000000112
1287000,7820,-2267,123153,-1427,-898,122427,292,19204,1196,1,63321,0.0009999999999998899
1288002,6702,4453,127381,-2922,3127,125687,335,19204,1196,1,63322,0.0010019999999999474
1289000,9190,-2067,125585,10200,-4437,131302,395,19196,1372,0,63323,0.0009980000000000544
1290000,2107,7728,129486,-15305,9936,124044,395,19223,1618,0,63324,0.001000000000000112
1291000,17407,5162,126662,-13100,3414,120980,258,19206,1057,0,63325,0.0009999999999998899
1292000,6359,1834,127726,26873,-6303,131960,296,19204,1212,0,63326,0.001000000000000112
1293000,4182,-18872,123838,-6545,-20987,137859,334,19198,1368,0,63327,0.0009999999999998899
1294000,3524,5,126992,-18046,12121,116753,395,19198,1368,1,63328,0.001000000000000112
1295000,1770,22902,129759,-83,19608,123187,235,19214,1618,1,63329,0.0009999999999998899
1296000,22671,10607,126695,4142,7143,119711,235,19209,962,1,63330,0.001000000000000112
1297000,5337,-4669,126223,8412,-11631,134410,288,19201,1180,1,63331,0.0009999999999998899
1298001,5135,-20474,125739,-8885,-16735,132820,324,19195,1327,1,63332,0.0010010000000000296
1299002,4024,2906,127996,-6628,7479,119439,378,19214,1548,0,63333,0.0010010000000000296
1300000,5179,11257,133074,732,8725,133228,249,19214,1548,0,63334,0.0009980000000000544
1301000,13456,2657,124499,113,2947,121215,304,19220,1020,0,63335,0.0009999999999998899
1302001,-2010,1947,127300,-3525,-4148,129910,304,19202,1245,0,63336,0.0010010000000000296
1303000,8955,-12631,124440,-6317,-10002,128624,337,19199,1380,0,63337,0.0009989999999999721
1304000,6902,6626,127921,3266,7925,120960,379,19190,1552,1,63338,0.001000000000000112
1305000,7686,6798,130887,-5477,4412,132011,277,19221,1135,1,63339,0.0009999999999998899
1306000,12119,1239,127103,-4389,-103,121704,263,19221,1135,1,63340,0.001000000000000112
1307000,6172,-7265,126081,1216,-9951,135144,307,19204,1077,1,63341,0.0009999999999998899
1308000,9977,-5505,126254,5265,-5013,124972,307,19202,1257,1,63342,0.001000000000000112
1309000,3612,1679,126831,-3829,1199,125319,361,19202,1479,0,63343,0.0009999999999998899
1310000,7298,6098,131221,-14075,5344,122822,249,19212,1020,0,63344,0.0009999999999998899
1311000,13924,4354,129946,10684,4507,129248,280,19207,1147,0,63345,0.001000000000000112
1312000,6341,-4142,127104,2751,-6369,128243,307,19207,1257,0,63346,0.0009999999999998899
1313000,6017,-8273,125461,-2340,-8991,128913,354,19202,1257,0,63347,0.001000000000000112
1314003,3491,-5475,127192,-4982,2253,128621,259,19194,1450,1,63348,0.0010030000000000872
1315000,14033,10087,130611,-2742,13990,118586,259,19222,1061,1,63349,0.0009969999999999146
1316000,13407,8899,128474,10360,-3506,129866,274,19203,1122,1,63350,0.0009999999999998899
1317000,5370,-9172,125815,-5496,-14110,130023,304,19202,1245,1,63351,0.001000000000000112
1318003,4583,-11793,126768,-2167,-7186,132100,334,19202,1368,1,63352,0.0010030000000000872
1319000,6211,-499,128708,-1830,7967,124640,389,19195,1368,0,63353,0.0009969999999999146
1320000,11106,13491,129502,3270,8129,120105,261,19224,1593,0,63354,0.0009999999999998899
1321000,11907,2272,125680,-1143,-5642,130895,261,19203,1069,0,63355,0.001000000000000112
1322000,10145,-8883,126376,6359,-10486,128815,305,19201,1249,0,63356,0.0009999999999998899
1323011,8043,-7025,126158,1588,-700,128374,341,19195,1397,0,63357,0.0010110000000000952
1324002,8021,4790,129397,-9373,7689,123715,382,19234,1565,1,63358,0.0009909999999999641
1325000,11049,9785,129074,4193,5570,125387,246,19234,1565,1,63359,0.0009980000000000544
1326000,14643,-1439,129138,4258,-8042,133350,296,19215,1008,1,63360,0.0009999999999998899
1327000,9161,-9986,125461,6191,-10690,127308,296,19205,1212,1,63361,0.001000000000000112
1328000,6309,-4437,126239,-5840,-77,126641,331,19205,1356,1,63362,0.0009999999999998899
1329000,7871,5925,129065,-4065,10822,123342,391,19227,1601,0,63363,0.001000000000000112
1330000,15821,11971,129757,5660,6663,124589,260,19200,1065,0,63364,0.0009999999999998899
1331000,12458,486,127790,262,-6330,129883,297,19200,1065,0,63365,0.001000000000000112
1332000,5083,-7918,127027,-1391,-9541,126924,323,19197,1216,0,63366,0.0009999999999998899
1333000,7771,-5828,126552,-168,-5394,130586,323,19207,1323,0,63367,0.001000000000000112
1334000,6405,2898,130079,-1002,7731,125374,379,19210,1552,1,63368,0.0009999999999998899
1335000,11015,8324,129608,-497,6460,124169,211,19213,864,1,63369,0.001000000000000112
1336002,12550,2861,126727,644,407,125115,277,19205,1135,1,63370,0.0010019999999999474
1337000,7922,-2395,126843,5985,-7155,129001,308,19205,1135,1,63371,0.0009980000000000544
1338000,7961,-7631,125590,-232,-5102,129132,353,19197,1261,1,63372,0.0009999999999998899
1339000,5678,8294,130107,-9720,10439,122739,353,19210,1446,0,63373,0.001000000000000112
1340000,16891,10949,127406,5459,6785,125657,230,19210,942,0,63374,0.0009999999999998899
1341000,9901,1024,125729,748,-1208,125954,293,19206,1200,0,63375,0.001000000000000112
1342001,5567,-3396,126880,-1702,-7065,128578,327,19199,1339,0,63376,0.0010010000000000296
1343002,5998,-6679,125272,-3729,-5603,129833,369,19199,1339,0,63377,0.0010010000000000296
1344002,4260,5333,128979,-3727,11725,120653,237,19188,1511,1,63378,0.0009999999999998899
1345000,12761,12783,131511,2443,8323,126095,237,19220,971,1,63379,0.0009980000000000544
1346000,10113,-3215,125803,-2135,-6005,128979,268,19206,1098,1,63380,0.0009999999999998899
1347000,4722,-6059,125872,-1137,-3855,123296,308,19203,1261,1,63381,0.001000000000000112
1348000,7547,4321,127569,7274,4369,128511,359,19194,1470,1,63382,0.0009999999999998899
1349000,4883,-87,128131,-10459,-278,127507,265,19194,1470,0,63383,0.001000000000000112
1350000,11564,7538,130917,-9745,7885,122308,276,19222,1085,0,63384,0.0009999999999998899
1351000,11476,4559,127669,9133,1202,126795,276,19203,1130,0,63385,0.001000000000000112
1352000,4371,-3267,127676,3878,-8245,130455,302,19196,1237,0,63386,0.0009999999999998899
1353000,4413,-17263,123476,-13098,-16327,133566,347,19187,1421,1,63387,0.001000000000000112
1354000,925,14025,129577,-2772,19214,118746,346,19235,1417,1,63388,0.0009999999999998899
1355000,16332,18964,128284,-3486,12654,123114,265,19235,1417,1,63389,0.001000000000000112
1356000,11504,1235,126086,5076,-2363,125639,300,19210,1085,1,63390,0.0009999999999998899
1357000,3851,-13138,125274,3376,-16658,134859,300,19201,1229,1,63391,0.001000000000000112
1358006,5980,-4135,130272,-13164,36,120760,337,19193,1380,0,63392,0.0010060000000000624
1359004,2488,10568,131541,-1053,6997,134681,400,19237,1638,0,63393,0.0009979999999998324
1360003,15735,-1376,127808,1600,-2068,119957,271,19204,1110,0,63394,0.0009989999999999721
1361000,3470,9767,127089,-8767,8335,128186,318,19204,1302,0,63395,0.0009970000000001367
1362000,2820,-8541,125651,-1647,-11956,130671,350,19197,1302,0,63396,0.0009999999999998899
