t_us,ax,ay,az,ax1,ay1,az1,shunt_raw,bus_raw,curr_raw,pg_rpm,seq,dt
0,-18911,17435,124565,20510,11648,102595,213,19216,872,0,26017,
1000,448,36,120417,-40529,1013,128668,265,19202,1085,0,26018,0.001
2000,-7038,-1641,124278,-11850,-4327,120099,319,19202,1307,1,26019,0.001
3000,-14516,-5723,117541,15779,-4712,110920,216,19184,1307,1,26020,0.001
4000,8430,31489,132581,-33546,30530,127662,296,19228,885,0,26021,0.001
5000,-23541,-14655,117548,-25052,-18888,123776,296,19207,1212,0,26022,0.001
6000,7051,19030,129946,1001,18389,112778,263,19208,1077,1,26023,0.001
7000,-21776,4180,123929,-4764,3870,132905,231,19223,946,1,26024,0.0009999999999999992
8000,895,3554,128930,-31491,9675,123666,249,19223,1020,0,26025,0.0010000000000000009
9000,-1477,4550,127487,1211,645,128047,279,19184,1020,0,26026,0.0009999999999999992
10000,-3638,12872,132870,-2106,6285,135328,352,19208,1143,1,26027,0.0010000000000000009
11004,9100,-4342,129256,-7868,-9450,132309,352,19217,1442,1,26028,0.0010039999999999997
12000,-111,1575,136528,7703,3988,133266,198,19220,811,0,26029,0.0009960000000000004
13002,18388,-20337,132702,19751,-32575,153460,236,19200,967,0,26030,0.0010019999999999994
14000,5478,-6035,132709,-49,11474,116644,316,19200,1294,1,26031,0.0009979999999999989
15000,5596,-8107,139582,-4327,-31543,153558,272,19177,1294,1,26032,0.0010000000000000009
16000,20642,-12039,131764,33116,6541,128580,299,19219,1114,0,26033,0.0010000000000000009
17000,7442,7434,135451,7360,-17816,141280,299,19217,1225,0,26034,0.0009999999999999974
18002,14767,-17343,124051,-10793,6880,123473,269,19201,1102,1,26035,0.0010020000000000029
19000,-1538,24603,133367,33189,12384,122623,199,19220,815,1,26036,0.0009979999999999989
20000,11297,-7584,121646,5910,662,123819,275,19186,1126,0,26037,0.0010000000000000009
21000,-8107,13327,128245,-16118,6834,120569,283,19186,1126,0,26038,0.0009999999999999974
22000,2347,-7273,119780,-12365,-1964,132898,355,19208,1159,1,26039,0.0010000000000000009
23001,-3029,28914,127018,23236,25693,106378,355,19226,1454,1,26040,0.0010010000000000019
24002,-7260,6947,123371,-16260,342,118377,225,19215,922,0,26041,0.0010009999999999984
25002,-6551,4437,122954,-20078,-785,125016,277,19209,1135,0,26042,0.0010000000000000009
26000,-12793,-8643,121432,-2744,-4734,118628,317,19192,1298,1,26043,0.0009979999999999989
27000,-3015,8487,125998,-3885,7084,122475,243,19192,1298,1,26044,0.0010000000000000009
28000,-8282,6526,124563,-27236,1365,119910,313,19221,995,0,26045,0.0009999999999999974
29000,-5721,17260,127355,-15689,20354,115691,313,19211,1282,0,26046,0.0010000000000000009
30000,-8223,8334,127151,2113,-4308,127335,264,19207,1081,1,26047,0.0010000000000000009
31000,-10725,-1565,123126,-12561,6444,120921,254,19221,1040,1,26048,0.0010000000000000009
32000,146,7517,130051,-15154,4445,127363,257,19185,1053,0,26049,0.0010000000000000009
33001,-2125,3784,127818,-6261,6789,128728,283,19185,1053,0,26050,0.001000999999999995
34000,2537,8810,130051,6824,1947,129809,359,19203,1159,1,26051,0.0009989999999999999
35000,353,4899,135371,-12080,2526,132628,359,19219,1470,1,26052,0.0010000000000000009
36000,8084,-10409,132003,2026,-17714,146440,205,19218,840,0,26053,0.0010000000000000009
37001,8056,-13794,134681,24371,-8021,133497,240,19205,983,0,26054,0.0010010000000000019
38000,7677,-156,137486,5083,-1755,129340,312,19177,1278,1,26055,0.0009989999999999999
39000,6442,-19153,132860,-11407,-23649,152226,231,19177,1278,1,26056,0.0010000000000000009
40000,29138,-7866,135063,18497,-4520,128439,302,19222,946,0,26057,0.0010000000000000009
41000,-4333,10998,134190,38973,2283,135649,302,19213,1237,0,26058,0.000999999999999994
42000,24497,-20622,120265,-32558,-20194,133149,264,19206,1081,1,26059,0.0010000000000000009
43000,-2518,22159,135755,25192,22521,120031,188,19214,770,1,26060,0.0010000000000000009
44000,13049,-10100,121626,26601,-8855,133493,275,19189,1126,0,26061,0.0010000000000000009
45001,-2400,23987,125660,-18090,25770,107344,288,19189,1126,0,26062,0.0010010000000000019
46002,-12631,-8677,126074,-26249,-14787,137351,339,19206,1180,1,26063,0.0010010000000000019
47000,12472,28656,124907,20784,29002,110761,339,19227,1388,1,26064,0.0009979999999999989
48000,-20148,4802,121094,4630,-823,110899,215,19209,881,0,26065,0.0010000000000000009
49000,2182,6999,124623,-41189,10296,125497,265,19204,1085,0,26066,0.000999999999999994
50000,-10048,-6809,121268,3351,-8306,120152,315,19197,1290,1,26067,0.0010000000000000009
51000,-9279,2278,120578,5460,4192,104576,227,19197,930,1,26068,0.0010000000000000009
52002,4599,22964,130094,-37083,19374,135992,306,19223,930,0,26069,0.0010020000000000029
53001,-21848,-11166,119417,-15089,-15244,113779,264,19212,1253,0,26070,0.0009989999999999999
54000,5595,21620,127609,3818,18642,120195,264,19204,1081,1,26071,0.0009989999999999999
55000,-23137,-2098,126192,-15870,-4064,130316,230,19224,942,1,26072,0.0010000000000000009
56000,8210,7602,129779,-19108,7319,124730,253,19185,1036,0,26073,0.000999999999999994
57000,-7462,937,127987,-1400,4934,127351,281,19185,1151,0,26074,0.0010000000000000009
58000,-833,9271,132117,-2003,-1088,138186,366,19208,1151,1,26075,0.0010000000000000009
59000,8564,-1329,131089,-6812,-3174,129783,197,19225,1499,1,26076,0.0010000000000000009
60000,5770,4518,135303,7991,-5235,140855,197,19218,807,0,26077,0.0010000000000000009
61000,14816,-25898,131703,13853,-23024,142974,237,19204,971,0,26078,0.0010000000000000009
62000,7259,4065,136694,-387,5032,122226,318,19181,1302,1,26079,0.0010000000000000009
63000,10458,-23271,132967,1775,-29102,155661,259,19181,1061,1,26080,0.0010000000000000009
64000,18512,3058,135675,37132,9613,122537,302,19219,1061,0,26081,0.0010000000000000009
65000,9027,-3998,129534,-9647,-24223,147401,270,19210,1237,0,26082,0.0010000000000000009
66004,10713,-317,128200,1518,17101,118056,270,19203,1106,1,26083,0.001003999999999991
67002,2558,16674,130379,26180,-803,127766,199,19213,815,1,26084,0.0009979999999999989
68000,8473,-1891,122859,-2654,8328,118399,284,19192,1163,0,26085,0.0009979999999999989
69000,-9789,6836,128249,-15341,-2491,128512,291,19209,1192,0,26086,0.0010000000000000009
70000,11009,-2923,120657,-4538,9595,123236,359,19209,1192,1,26087,0.0010000000000000009
71000,-9363,30801,124585,16970,23066,106724,214,19231,1470,1,26088,0.0010000000000000009
72000,-739,5594,121579,-22566,4287,118745,214,19215,876,0,26089,0.0010000000000000009
73000,-9181,-1148,121480,-20202,-10641,125913,262,19205,1073,0,26090,0.0010000000000000009
74000,-11000,-5772,121656,763,2249,118011,323,19193,1323,1,26091,0.0010000000000000009
75000,-1271,8365,125498,-5959,8345,121899,226,19222,926,1,26092,0.0010000000000000009
76001,-8629,3584,122677,-28997,1735,120815,308,19222,926,0,26093,0.0010010000000000019
77000,-4316,26331,128433,-6138,20407,114976,265,19212,1261,0,26094,0.0009989999999999999
78000,-9495,-540,122898,-7743,-7003,130001,265,19199,1085,1,26095,0.0010000000000000009
79000,-8508,1737,128106,-9639,4792,119870,216,19216,885,1,26096,0.0010000000000000009
80000,843,2997,128160,-19134,-1535,132575,259,19191,1061,0,26097,0.0010000000000000009
81000,-747,8772,131319,-1062,14345,123651,285,19210,1167,0,26098,0.0010000000000000009
82000,1449,6255,129570,6560,1506,130793,361,19210,1167,1,26099,0.000999999999999987
83000,4086,5476,135475,-12349,-2826,136644,199,19222,1479,1,26100,0.0010000000000000009
84000,13495,-15428,128436,10252,-20042,144466,199,19218,815,0,26101,0.0010000000000000009
85000,9137,-10468,135110,20363,-6881,131999,244,19199,999,0,26102,0.0010000000000000009
86000,6952,738,139547,-2671,-1570,129842,324,19178,1327,1,26103,0.0010000000000000009
87000,1886,-21864,129451,-6933,-24262,154314,229,19222,938,1,26104,0.0010000000000000009
88000,33675,2128,139507,34276,5833,120873,286,19222,938,0,26105,0.0010000000000000009
89000,-7140,1574,127733,17191,-10050,145784,271,19214,1171,0,26106,0.0010000000000000009
90000,23606,-12442,123040,-19238,-5724,119086,271,19198,1110,1,26107,0.0010000000000000009
91000,-3971,17276,132087,24798,10706,129560,196,19214,803,1,26108,0.0010000000000000009
92000,16666,-5154,122458,20823,-221,125579,280,19198,1147,0,26109,0.0010000000000000009
93000,-11174,22335,124847,-24625,19920,113811,290,19209,1188,0,26110,0.0010000000000000009
94000,2175,-13300,125424,-19122,-16985,139412,345,19209,1188,1,26111,0.0010000000000000009
95000,240,36746,123315,29817,33560,102376,228,19228,1413,1,26112,0.0010000000000000009
96000,-15651,-3286,120403,-16514,-4750,117457,275,19218,934,0,26113,0.0010000000000000009
97000,2602,9236,127813,-31020,8839,123085,275,19207,1126,0,26114,0.000999999999999987
98000,-14192,-11609,119091,4990,-11100,121552,323,19190,1323,1,26115,0.0010000000000000009
99002,-342,17864,127469,-545,21201,107216,229,19219,938,1,26116,0.0010020000000000029
100001,-5940,8122,125888,-35629,2715,138793,309,19219,1266,0,26117,0.0009989999999999999
101000,-10110,2345,122385,-5816,-2225,108038,262,19213,1266,0,26118,0.0009989999999999999
102002,-2739,17375,125235,-2454,15282,128871,244,19206,1073,1,26119,0.0010020000000000029
103000,-16035,-1992,128565,-16459,4745,123084,244,19218,999,1,26120,0.0009979999999999989
104000,8765,5673,126069,-10682,3881,124156,267,19188,1094,0,26121,0.0010000000000000009
105000,-9471,3439,130853,-8362,6521,132646,284,19205,1163,0,26122,0.0010000000000000009
106000,4643,3307,130437,1798,-837,133498,366,19205,1499,1,26123,0.0010000000000000009
107000,5213,3250,131928,1237,-2006,132490,198,19227,1499,0,26124,0.0010000000000000009
108000,10677,2385,135397,7153,-15501,146902,235,19216,811,0,26125,0.0010000000000000009
109000,10739,-28312,130340,8795,-14530,135590,235,19204,962,0,26126,0.0010000000000000009
110000,6170,2880,139358,2477,-4170,129055,320,19176,1311,1,26127,0.0010000000000000009
111000,15388,-22892,130638,9453,-14630,147773,218,19221,893,1,26128,0.0010000000000000009
112000,15716,8302,136477,25282,4192,126814,297,19211,1216,0,26129,0.000999999999999987
113000,13682,-15259,124866,-12792,-19903,141876,266,19211,1216,1,26130,0.0010000000000000009
114000,6484,11267,131365,15352,22823,119083,198,19204,1089,1,26131,0.0010000000000000009
115000,8069,7576,124421,21538,-7497,130000,198,19219,811,1,26132,0.0010000000000000009
116000,6785,4679,124345,-9180,13581,115193,284,19194,1163,0,26133,0.0010000000000000009
117000,-9443,1600,128233,-15006,-10487,133921,293,19201,1200,0,26134,0.0010000000000000009
118000,10996,7945,122155,2413,21794,114155,357,19226,1462,1,26135,0.0010000000000000009
119000,-12172,28679,125444,1061,12739,112366,213,19226,1462,1,26136,0.0010000000000000009
120000,-468,1858,122123,-23636,4661,119647,259,19212,872,0,26137,0.0010000000000000009
121000,-10162,-4270,120289,-17226,-8241,121477,259,19206,1061,0,26138,0.0010000000000000009
122000,-6691,-1924,123493,2306,4465,119813,325,19190,1331,1,26139,0.0010000000000000009
123000,-2273,6723,123228,-16036,8451,119118,230,19221,942,1,26140,0.0010000000000000009
124000,-7629,4503,122054,-26694,7240,119351,313,19214,1282,0,26141,0.0010000000000000009
125001,-4109,26707,128049,-2732,16313,119450,262,19214,1282,1,26142,0.0010010000000000019
126000,-10919,-5644,120709,-11413,-6985,128573,214,19203,1073,1,26143,0.0009989999999999999
127000,-8349,7005,129232,-13973,6374,119602,214,19222,876,1,26144,0.0010000000000000009
128000,21,-1660,127477,-16656,-2040,134608,261,19187,1069,0,26145,0.0010000000000000009
129000,-456,14638,132456,3952,14972,121723,292,19204,1196,0,26146,0.0010000000000000009
130000,-302,1821,130460,61,-781,130993,371,19219,1520,1,26147,0.0010000000000000009
131000,6052,4507,133517,-13980,-5813,141631,211,19219,1520,0,26148,0.0010000000000000009
132000,12244,-19317,129022,16829,-21833,143310,247,19216,864,0,26149,0.0010000000000000009
133000,11277,-3790,135552,18362,-1623,127455,247,19207,1012,0,26150,0.0010000000000000009
134000,9233,-4950,138440,-11332,-9316,137805,327,19175,1339,1,26151,0.0009999999999999731
135000,10492,-24501,129418,4678,-22823,149478,228,19224,934,0,26152,0.0010000000000000009
136001,23115,10888,139976,45659,11994,120829,291,19215,1192,0,26153,0.0010010000000000019
137000,2192,-12937,124040,-9754,-21239,149256,268,19215,1192,1,26154,0.0009989999999999999
138000,10870,8331,131297,-5696,16872,109073,205,19207,1098,1,26155,0.0010000000000000009
139000,-270,6020,126314,27875,-3244,137775,205,19213,840,1,26156,0.0010000000000000009
140000,11513,4849,123276,7424,11456,115167,284,19194,1163,0,26157,0.0010000000000000009
141000,-16884,13116,126769,-26658,6545,122221,295,19210,1208,1,26158,0.0010000000000000009
142003,14641,-6523,119960,-5390,-5559,134775,341,19223,1397,1,26159,0.0010030000000000039
143002,-9256,33571,123792,23245,30715,97238,212,19223,868,0,26160,0.0009989999999999999
144000,-5980,-5037,120486,-26785,-6175,127291,256,19213,868,0,26161,0.0009979999999999989
145000,-3610,3211,124787,-28622,-822,119249,327,19203,1049,0,26162,0.0010000000000000009
146000,-14668,-9616,118979,17424,-9567,119294,327,19196,1339,1,26163,0.0010000000000000009
147000,3541,25258,130335,-18871,28213,115075,231,19220,946,1,26164,0.0010000000000000009
148001,-16788,-3702,120983,-34022,-9143,132730,315,19216,1290,0,26165,0.0010010000000000019
149000,2857,15278,128337,-2072,14092,111823,264,19216,1081,1,26166,0.0009989999999999999
150002,-13999,6771,123465,924,-1960,130557,198,19203,1081,1,26167,0.0010020000000000029
151000,-8354,509,127098,-30519,11221,122922,260,19221,811,1,26168,0.0009979999999999989
152000,5465,6005,128900,-6527,-3238,129671,260,19185,1065,0,26169,0.0010000000000000009
153000,-5418,9785,131816,968,13240,127520,292,19204,1196,0,26170,0.0010000000000000009
154000,6799,1363,129798,-2333,-7903,137119,372,19227,1524,1,26171,0.0010000000000000009
155000,367,-290,132880,509,3150,131365,201,19227,823,0,26172,0.0010000000000000009
156001,17366,-6791,134417,19910,-26819,152284,252,19219,823,0,26173,0.0010010000000000019
157000,4804,-20026,129855,4081,4492,123560,331,19202,1032,0,26174,0.0009989999999999999
158000,4960,3816,142552,-4028,-20292,141676,331,19172,1356,1,26175,0.0010000000000000009
159000,19980,-24755,129319,15205,-5448,139283,214,19221,876,0,26176,0.0010000000000000009
160001,7081,12799,138037,26207,-2164,131922,279,19213,1143,0,26177,0.0010010000000000019
161000,20301,-24911,123049,-18347,-15117,136128,268,19204,1098,1,26178,0.0009989999999999999
162000,-1483,22119,134062,21904,25452,117903,201,19204,1098,1,26179,0.0010000000000000009
163000,10623,-3721,121892,23142,-6956,130566,288,19216,823,0,26180,0.0010000000000000009
164000,2926,10854,125315,-14422,14781,113314,288,19193,1180,0,26181,0.0009999999999999731
165000,-10482,-2503,124213,-21244,-11594,137107,295,19208,1208,1,26182,0.0010000000000000009
166000,10861,17456,124059,13248,28035,109573,320,19229,1311,1,26183,0.0010000000000000009
167000,-15912,17789,126037,-1478,4011,114986,215,19215,881,0,26184,0.0010000000000000009
168000,530,5290,122357,-24629,5488,122500,264,19215,881,0,26185,0.0010000000000000009
169000,-15750,-7896,119963,-13064,-8099,119142,328,19203,1081,1,26186,0.0010000000000000009
170000,-3563,2973,125027,571,6414,120853,328,19200,1343,1,26187,0.0010000000000000009
171001,-3201,8674,123587,-19984,5009,118871,236,19220,967,0,26188,0.0010010000000000019
172000,-9024,7932,122595,-27737,14771,117460,322,19206,1319,0,26189,0.0009989999999999999
173000,-5702,20342,128958,794,6937,123298,255,19202,1044,1,26190,0.0010000000000000009
174000,-9266,-7536,120870,-12302,-2117,126708,227,19202,1044,1,26191,0.0010000000000000009
175000,-8363,10570,128723,-11027,8633,120081,270,19218,930,0,26192,0.0010000000000000009
176002,737,-1852,128098,-16160,-681,132535,270,19186,1106,0,26193,0.0010020000000000029
177002,-488,13461,131900,3840,9543,124359,295,19205,1208,1,26194,0.0010000000000000009
178000,-471,2587,132426,-3636,1408,131737,381,19230,1560,1,26195,0.0009979999999999989
179000,6259,-2423,133115,-11559,-11482,144341,201,19213,823,0,26196,0.0010000000000000009
180001,7790,-19853,132774,19182,-16942,140522,251,19213,823,0,26197,0.0010010000000000019
181000,11460,272,135337,16810,1968,127087,327,19204,1028,0,26198,0.0009989999999999999
182000,8429,-9880,137048,-13750,-15628,143120,327,19180,1339,1,26199,0.0010000000000000009
183000,19299,-18797,130629,7695,-16065,141421,223,19220,913,0,26200,0.0010000000000000009
184000,12434,13696,139043,43508,11825,125069,289,19212,1184,0,26201,0.0010000000000000009
185000,9686,-23010,121438,-18993,-28658,146827,267,19206,1094,1,26202,0.0010000000000000009
186000,5105,18735,134997,3894,25803,109040,212,19206,1094,1,26203,0.0010000000000000009
187000,3963,-3273,124081,28109,-7757,139923,289,19213,868,0,26204,0.0010000000000000009
188000,5861,15298,125082,-314,20289,109944,289,19199,1184,0,26205,0.0010000000000000009
189000,-16553,3344,125667,-27755,-4785,127803,296,19210,1212,1,26206,0.0010000000000000009
190000,13682,5807,121153,-2,9612,127619,339,19232,1388,1,26207,0.0010000000000000009
191004,-15190,20916,125959,18025,16011,100888,214,19209,876,0,26208,0.0010039999999999771
192000,-2835,103,120233,-34834,509,129105,252,19209,1032,0,26209,0.0009960000000000246
193000,-5895,-1621,123707,-16872,-4121,118993,331,19202,1032,1,26210,0.0010000000000000009
194001,-13209,-5320,117825,16158,-4554,113524,236,19198,1356,1,26211,0.0010009999999999741
195000,6005,27554,131472,-29460,27061,125714,236,19219,967,0,26212,0.0009989999999999999
196000,-19815,-10195,117876,-29181,-14559,122473,323,19210,1323,0,26213,0.0010000000000000009
197000,3069,18978,130833,1553,18925,115975,266,19199,1089,1,26214,0.0010000000000000009
198001,-18589,1938,123393,-3844,-4001,131301,192,19199,786,1,26215,0.0010010000000000019
199000,-2303,3424,128762,-32382,7714,124968,264,19218,786,0,26216,0.0009989999999999999
200000,-394,3827,128471,-1261,2070,128267,295,19194,1081,0,26217,0.0010000000000000009
201000,-1874,13100,132345,1780,6944,133331,295,19211,1208,1,26218,0.0010000000000000009
202000,6595,-1879,129869,-6419,-9574,133207,380,19225,1556,1,26219,0.0010000000000000009
203000,1162,400,135314,4270,4426,133307,214,19218,876,0,26220,0.0010000000000000009
204000,16965,-19802,132691,23653,-30929,153470,258,19201,1057,0,26221,0.0010000000000000009
205000,5850,-6269,132111,1173,12483,114875,333,19201,1057,1,26222,0.0010000000000000009
206000,5347,-4584,140469,-9341,-30290,153304,224,19175,1364,1,26223,0.0010000000000000009
207000,21513,-18003,130608,33200,2333,130884,224,19222,917,0,26224,0.0010000000000000009
208000,6036,11009,137426,15188,-12298,138791,283,19213,1159,0,26225,0.0010000000000000009
209001,17699,-22442,122355,-16802,-1094,126802,270,19211,1106,1,26226,0.0010010000000000019
210000,-1883,28435,135289,30891,17942,121168,217,19214,889,1,26227,0.0009989999999999999
211000,13512,-10358,121217,13951,-5021,127149,291,19214,889,0,26228,0.0010000000000000009
212000,-6330,13813,127013,-16895,12086,116613,295,19193,1192,0,26229,0.0010000000000000009
213000,-1348,-6955,121621,-19029,-7733,136620,295,19206,1208,1,26230,0.0010000000000000009
214000,1155,28434,126434,26040,30078,104600,321,19227,1315,1,26231,0.0010000000000000009
215000,-10745,9220,124541,-11866,15,117280,220,19210,901,0,26232,0.0010000000000000009
216000,-3724,6148,122649,-22633,3586,124145,261,19204,1069,0,26233,0.0010000000000000009
217002,-14895,-8881,121204,-7891,-6919,118807,328,19204,1069,1,26234,0.0010020000000000029
218002,-1832,5942,124448,436,8964,120664,232,19193,1343,1,26235,0.0010000000000000009
219000,-8043,10606,125119,-24994,1591,120218,232,19220,950,0,26236,0.0009979999999999989
220000,-5844,11749,125064,-21765,18581,116230,325,19213,1331,0,26237,0.0010000000000000009
221000,-9020,12498,128807,4574,-869,126542,262,19205,1073,1,26238,0.0010000000000000009
222000,-9631,-6479,121540,-12029,2795,123574,202,19225,827,1,26239,0.0010000000000000009
223000,-2638,12996,131205,-13622,9569,123858,260,19225,827,0,26240,0.0010000000000000009
224002,-2033,-1513,126935,-11918,852,130941,294,19187,1065,0,26241,0.0010019999999999751
225000,1671,11789,130907,8183,3906,129080,294,19212,1204,1,26242,0.0009979999999999989
226000,-37,2160,134549,-9507,2228,132376,382,19228,1565,1,26243,0.0010000000000000009
227000,7137,-7571,132305,-3533,-14612,145300,196,19221,803,0,26244,0.0010000000000000009
228000,7688,-14879,135054,23850,-9306,135289,247,19210,1012,0,26245,0.0010000000000000009
229000,9470,-338,135648,10338,-988,129551,332,19210,1012,1,26246,0.0010000000000000009
230002,6713,-16921,134650,-13584,-22138,149065,228,19178,1360,1,26247,0.0010020000000000029
231000,26165,-12850,133009,13372,-10242,132982,228,19220,934,0,26248,0.0009979999999999989
232000,-271,14398,136558,41764,8320,131331,292,19213,1196,0,26249,0.0010000000000000009
233000,19978,-22490,120243,-29271,-25134,136936,259,19209,1061,1,26250,0.0010000000000000009
234000,-56,22863,136174,17958,25213,117022,210,19217,860,1,26251,0.0010000000000000009
235003,10756,-9508,122310,27205,-9469,134902,284,19217,1163,0,26252,0.0010030000000000039
236002,231,22482,124882,-10557,25614,108186,299,19198,1163,0,26253,0.0009989999999999999
237001,-14212,-5580,126486,-28325,-12646,132916,300,19206,1225,1,26254,0.0009989999999999999
238000,12872,21802,123293,13305,23030,118158,300,19230,1229,1,26255,0.0009989999999999999
239000,-18505,10572,123294,12001,4553,105497,217,19208,889,0,26256,0.0010000000000000009
240000,-593,3905,122383,-41414,6389,128844,251,19210,1028,0,26257,0.0010000000000000009
241000,-8880,-3499,123133,-2078,-4975,124098,331,19210,1356,1,26258,0.0010000000000000009
242000,-10733,-672,119472,8257,115,106544,237,19200,1356,1,26259,0.0010000000000000009
243002,4396,24385,130348,-32985,21752,133588,327,19221,971,0,26260,0.0010020000000000029
244000,-19971,-11927,118553,-24006,-16118,115936,327,19210,1339,0,26261,0.0009979999999999989
245000,3280,21889,128981,8533,14395,118960,265,19201,1085,1,26262,0.0010000000000000009
246000,-22480,-3928,124426,-12731,-8096,131587,206,19219,844,1,26263,0.0010000000000000009
247000,6993,8365,130489,-28262,11668,123833,273,19219,1118,0,26264,0.0010000000000000009
248002,-7645,2328,128304,3077,5053,127752,301,19193,1118,0,26265,0.0010020000000000029
249000,1065,11646,131652,-272,1093,135983,393,19206,1233,1,26266,0.0009979999999999989
250000,4954,-5893,130759,-4533,-10336,133952,393,19226,1610,1,26267,0.0010000000000000009
251000,6780,5845,136842,9468,447,135532,202,19221,827,0,26268,0.0010000000000000009
252000,14437,-26239,131344,16383,-28677,148550,253,19201,1036,0,26269,0.0010000000000000009
253000,7670,2367,136133,550,8214,118724,327,19178,1339,1,26270,0.0010000000000000009
254000,10128,-16563,135506,-4717,-26700,153904,224,19178,1339,1,26271,0.0010000000000000009
255000,18456,-3798,133482,42533,3923,128481,287,19221,917,0,26272,0.0010000000000000009
256000,10079,-2856,131422,-7145,-21254,142530,287,19214,1175,0,26273,0.0010000000000000009
257000,10294,-2088,126824,-1422,14576,120356,272,19209,1114,1,26274,0.0010000000000000009
258000,2319,17600,130975,26679,2764,125762,221,19215,905,1,26275,0.0010000000000000009
259000,10180,-123,123708,2089,7866,118471,292,19189,1196,0,26276,0.0010000000000000009
260002,-11722,5318,126919,-15746,-3590,130151,294,19189,1196,0,26277,0.0010020000000000029
261000,12091,-2109,120432,-9611,9767,121973,319,19211,1204,1,26278,0.0009979999999999989
262000,-12567,31911,126341,21941,22022,107717,319,19226,1307,1,26279,0.0010000000000000009
263000,2322,3232,121105,-21247,3051,119281,216,19207,885,0,26280,0.0010000000000000009
264000,-11279,1945,121881,-20918,-7270,123682,255,19202,1044,0,26281,0.0010000000000000009
265000,-10989,-5559,122883,-2419,-103,121154,333,19199,1364,1,26282,0.0010000000000000009
266000,-1021,6065,124565,-3092,8219,120612,233,19199,1364,1,26283,0.0010000000000000009
267000,-10633,6425,123946,-28463,2460,119821,307,19220,954,0,26284,0.0010000000000000009
268000,-2837,23352,128860,-9860,18708,117094,307,19213,1257,0,26285,0.0009999999999999454
269000,-10493,-756,122745,-4872,-6657,128022,265,19194,1085,1,26286,0.0010000000000000009
270000,-7737,2765,127714,-8061,7523,119554,188,19222,770,1,26287,0.0010000000000000009
271000,642,5535,129036,-20705,-273,132784,269,19185,1102,0,26288,0.0010000000000000009
272002,-1198,6876,129604,-2394,13110,122987,293,19185,1102,0,26289,0.0010020000000000029
273001,624,6417,130110,7681,971,132316,389,19204,1200,1,26290,0.0009990000000000276
274000,3833,4190,134899,-12916,-2695,136478,389,19228,1593,1,26291,0.0009989999999999721
275000,12081,-12867,129185,7065,-16793,142173,211,19216,864,0,26292,0.0010000000000000009
276000,9341,-9667,136032,23418,-5818,133431,256,19204,1049,0,26293,0.0010000000000000009
277000,7581,-2418,138154,-287,-4116,130486,331,19181,1356,1,26294,0.0010000000000000009
278000,3627,-20395,130264,-8853,-23979,153815,229,19181,938,1,26295,0.0010000000000000009
279000,31281,-505,139351,32820,2168,122371,272,19219,938,0,26296,0.0010000000000000009
280001,-4513,4734,127781,18392,-6690,143812,268,19213,1114,0,26297,0.0010010000000000296
281000,22898,-13778,123811,-18754,-8370,121575,268,19203,1098,1,26298,0.0009989999999999721
282000,-2660,16643,131762,25828,11756,128922,217,19216,889,1,26299,0.0010000000000000009
283000,15252,-5214,122549,20779,-217,124160,291,19195,1192,0,26300,0.0010000000000000009
284000,-9926,23122,125169,-23668,20784,114851,295,19195,1208,0,26301,0.0010000000000000009
285000,691,-12551,125576,-18948,-15793,136956,303,19208,1208,1,26302,0.0010000000000000009
286000,309,36516,123473,27923,32778,104781,228,19225,1241,1,26303,0.0010000000000000009
287000,-13834,-3242,120262,-13826,-5133,117209,228,19207,934,0,26304,0.0010000000000000009
288000,401,9974,127234,-29067,10621,120140,256,19204,1049,0,26305,0.0010000000000000009
289002,-12217,-11721,118874,2119,-11487,122215,338,19204,1384,1,26306,0.0010020000000000029
290002,-3319,16236,127296,-571,18845,107926,235,19204,962,1,26307,0.0010000000000000009
291000,-1932,7517,125727,-34779,3159,138349,319,19219,962,0,26308,0.0009979999999999989
292000,-13297,3527,122860,-3791,-1530,107680,260,19213,1307,0,26309,0.0010000000000000009
293000,-2096,15763,125209,-5477,5281,129043,260,19203,1065,1,26310,0.0010000000000000009
294000,-13017,494,128979,-17878,5859,122398,188,19226,770,1,26311,0.0010000000000000009
295000,4283,4888,126433,-4726,-1868,127976,267,19191,1094,0,26312,0.0010000000000000009
296000,-4701,2625,130831,-11132,9546,128667,297,19206,1216,0,26313,0.0010000000000000009
297002,-909,4124,130632,-613,-1714,135179,388,19206,1216,1,26314,0.0010020000000000029
298002,8333,6221,133799,1921,-1431,133696,208,19226,1589,1,26315,0.0010000000000000009
299000,9819,870,133821,5494,-11808,142833,208,19216,852,0,26316,0.0009979999999999989
300002,11534,-24244,131982,12424,-19459,141090,256,19202,1049,0,26317,0.0010020000000000029
301002,7693,-4823,136772,393,-1667,121486,334,19187,1368,1,26318,0.0010000000000000009
302000,14268,-16609,132938,11781,-18181,155845,236,19216,967,1,26319,0.0009979999999999989
303000,18500,-1698,134770,25750,1976,124870,288,19216,967,0,26320,0.0010000000000000009
304000,9338,142,127966,-11590,-10737,139703,264,19211,1180,1,26321,0.0010000000000000009
305000,5135,2681,130591,8259,14465,122309,264,19211,1081,1,26322,0.0010000000000000009
306000,6735,14263,125631,22095,-3996,126984,215,19213,881,1,26323,0.0010000000000000009
307002,5166,-4674,124356,-3941,6404,118498,294,19197,1204,0,26324,0.0010020000000000029
308002,-8378,6716,128449,-16332,-2731,131905,297,19206,1216,0,26325,0.0010000000000000009
309002,10219,3886,121547,1384,17287,113883,290,19206,1216,1,26326,0.0010000000000000009
310000,-9125,33048,125174,2944,19723,112975,220,19235,1188,1,26327,0.0009979999999999989
311000,-735,-3849,121546,-21373,-2377,121194,220,19207,901,0,26328,0.0010000000000000009
312000,-10686,985,120432,-19323,-5498,120579,256,19204,1049,0,26329,0.0010000000000000009
313002,-8010,-6956,123036,2733,-2566,123224,334,19200,1368,1,26330,0.0010020000000000029
314000,-1007,9594,123450,-14120,14842,113704,234,19220,958,1,26331,0.0009979999999999989
315000,-8956,7579,124143,-27451,4078,123366,318,19220,958,0,26332,0.0010000000000000009
316000,-3335,21735,126522,-5615,15676,118219,268,19212,1302,0,26333,0.0010000000000000009
317000,-11601,-875,122060,-8855,-5908,128455,268,19193,1098,1,26334,0.0010000000000000009
318000,-7110,3459,128852,-13652,6344,119984,203,19222,831,1,26335,0.0010000000000000009
319000,414,2947,126808,-17021,-224,131739,279,19189,1143,0,26336,0.0010000000000000009
320001,229,12032,132954,1890,14642,122474,300,19209,1229,0,26337,0.0010009999999999741
321000,1258,-837,128656,3834,-3341,133802,371,19209,1520,1,26338,0.0009990000000000276
322000,6502,6903,135006,-14864,-2811,138291,200,19228,1520,0,26339,0.0010000000000000009
323000,10239,-18208,128460,14333,-20629,144158,263,19219,819,0,26340,0.0010000000000000009
324000,11236,-3332,136285,16936,-2224,128666,263,19204,1077,0,26341,0.0010000000000000009
325000,7874,-7354,138018,-8330,-8870,136105,335,19182,1372,1,26342,0.0010000000000000009
326000,6574,-19791,130203,2529,-20969,151605,230,19220,942,0,26343,0.0010000000000000009
327000,30291,3690,138297,39732,6222,119467,283,19220,1159,0,26344,0.0010000000000000009
328000,-4714,-3690,125988,3504,-12690,147249,274,19210,1159,1,26345,0.0009999999999999454
329000,18567,-3841,126982,-13345,4463,113906,228,19212,1122,1,26346,0.0010000000000000009
330000,-5370,13810,128668,24345,6021,134484,228,19212,934,1,26347,0.0010000000000000009
331000,15853,1636,124168,15895,7236,118714,302,19201,1237,0,26348,0.0010000000000000009
332000,-17045,16309,124009,-28424,11764,119561,292,19210,1196,1,26349,0.0010000000000000009
333000,10252,-9707,122981,-11143,-11777,135578,298,19210,1221,1,26350,0.0010000000000000009
334000,-4828,33983,122726,27537,31493,100239,214,19228,1221,0,26351,0.0010000000000000009
335000,-11220,-3410,121764,-25781,-3842,122159,268,19213,876,0,26352,0.0010000000000000009
336000,-1075,2026,125648,-27326,-1620,121326,268,19204,1098,0,26353,0.0010000000000000009
337000,-14255,-6954,120639,7285,-5845,119459,344,19205,1409,1,26354,0.0010000000000000009
338000,229,22989,129827,-9195,25862,113477,233,19218,954,1,26355,0.0010000000000000009
339000,-8982,-1414,122078,-31973,-6458,135849,297,19218,1216,0,26356,0.0010000000000000009
340000,-4900,8484,125401,-2051,6086,108964,264,19213,1216,1,26357,0.0010000000000000009
341000,-8032,13783,125130,-10001,7720,130945,197,19204,1081,1,26358,0.0010000000000000009
342000,-10645,1439,127858,-18161,7777,121943,197,19219,807,1,26359,0.0010000000000000009
343000,5288,3908,126844,-3572,-1600,126734,280,19194,1147,0,26360,0.0010000000000000009
344000,-6862,7001,131687,-12370,9885,131819,296,19203,1212,0,26361,0.0010000000000000009
345000,4243,3542,130660,-1809,-1084,133764,379,19224,1552,1,26362,0.0010000000000000009
346000,6290,-69,131411,1784,-2999,132328,211,19224,1552,0,26363,0.0010000000000000009
347003,10457,-1197,136477,13782,-18632,149101,271,19217,864,0,26364,0.0010030000000000316
348000,11388,-27147,128496,8098,-13221,133711,271,19202,1110,0,26365,0.0009969999999999701
349000,5535,3964,141737,-2493,-3743,127011,351,19186,1438,1,26366,0.0010000000000000009
350002,16091,-22053,130077,17977,-17944,153231,241,19217,987,0,26367,0.0010020000000000029
351000,17550,5102,136230,11620,7271,121663,267,19214,1094,0,26368,0.0009979999999999989
352000,6912,-5223,126838,-3845,-13701,139831,270,19214,1094,1,26369,0.0010000000000000009
353000,7698,3831,129785,16318,16966,120951,220,19209,1106,1,26370,0.0010000000000000009
354000,4343,7913,124073,19085,-3252,123691,220,19216,901,1,26371,0.0010000000000000009
355000,3081,523,123886,-9849,6959,124367,302,19197,1237,0,26372,0.0010000000000000009
356000,-892,3803,124617,-15072,-1339,126122,296,19210,1212,1,26373,0.0010000000000000009
357003,99,17118,125288,6382,24533,113376,287,19224,1175,1,26374,0.0010029999999999761
358000,-4547,20623,125696,-1573,5056,118163,226,19224,1175,0,26375,0.0009970000000000256
359000,-7824,-1520,120953,-25837,1408,119085,264,19206,926,0,26376,0.0010000000000000009
360000,-10884,-3687,122227,-6713,-7317,121841,264,19206,1081,1,26377,0.0010000000000000009
361000,-3046,-1225,122752,-5188,4391,119197,347,19204,1421,1,26378,0.0010000000000000009
362000,-5725,14049,124819,-19124,12760,114192,238,19216,975,0,26379,0.0010000000000000009
363002,-3139,5468,123536,-25460,6224,126490,312,19210,1278,0,26380,0.0010020000000000029
364000,-8147,17240,126246,-1546,11326,116870,260,19210,1278,1,26381,0.0009979999999999989
365002,-11269,-1212,122775,-10899,-1164,127997,186,19200,1065,1,26382,0.0010020000000000029
366001,-5300,4510,127331,-17111,4207,123043,186,19226,762,1,26383,0.0009989999999999721
367001,-1792,3690,128344,-8266,6029,126454,277,19193,1135,0,26384,0.0010000000000000009
368002,2480,11392,132471,748,6399,130752,300,19211,1229,1,26385,0.0010010000000000296
369002,-3394,1419,131083,-4112,1633,128542,371,19229,1520,1,26386,0.0010000000000000009
370000,7134,4127,134992,-12107,-5728,142984,212,19229,868,0,26387,0.0009979999999999989
371000,10260,-22332,130630,20868,-20226,143910,265,19213,868,0,26388,0.0010000000000000009
372000,8601,-1172,135179,11853,1043,123414,343,19206,1085,0,26389,0.0010000000000000009
373000,11692,-11462,137087,-9869,-16888,147238,343,19195,1405,1,26390,0.0010000000000000009
374000,18570,-20469,130434,6849,-17160,141587,242,19220,991,0,26391,0.0010000000000000009
375000,10442,12757,138055,47382,10066,124718,281,19215,1151,0,26392,0.0010000000000000009
376000,12729,-17887,124141,-26766,-22753,145257,267,19215,1094,1,26393,0.0010000000000000009
377000,2626,16415,132745,8014,22363,110778,224,19210,1094,1,26394,0.0010000000000000009
378002,4611,-1429,125506,31815,-7199,138894,300,19215,917,0,26395,0.0010020000000000029
379002,6484,11094,123108,-3791,16576,110467,300,19201,1229,0,26396,0.0010000000000000009
380000,-19432,6717,125800,-29829,-183,126821,296,19204,1212,1,26397,0.0009979999999999989
381000,19673,6539,122289,6401,9245,126577,304,19230,1245,1,26398,0.0010000000000000009
382000,-22164,20626,123988,15029,16456,102660,215,19230,881,0,26399,0.0010000000000000009
383001,6045,1636,122042,-39157,1899,127194,264,19206,881,0,26400,0.0010009999999999741
384000,-14230,-3670,122137,-8841,-7144,120514,342,19201,1081,1,26401,0.0009990000000000276
385000,-8484,-6632,118459,8819,-5853,114101,342,19201,1401,1,26402,0.0010000000000000009
386000,3361,28861,131671,-28857,29440,125060,236,19217,967,0,26403,0.0010000000000000009
387000,-19987,-13490,118854,-18722,-17865,125886,307,19214,1257,0,26404,0.0009999999999999454
388000,5404,17399,129204,-5728,16868,111471,267,19198,1094,1,26405,0.0010000000000000009
389000,-19347,8223,125212,-14151,1296,135228,213,19198,1094,1,26406,0.0010000000000000009
390000,-5004,5434,128455,-18120,8937,119702,291,19219,872,0,26407,0.0010000000000000009
391000,1495,-473,126093,-1260,-1392,128164,291,19193,1192,0,26408,0.0010000000000000009
392000,-6005,8384,132914,-9958,1674,138831,296,19205,1212,1,26409,0.0010000000000000009
393000,10847,474,129652,-4084,2358,127129,390,19231,1597,1,26410,0.0010000000000000009
394000,2136,1990,133969,9499,-1485,136885,204,19214,836,0,26411,0.0010000000000000009
395000,12649,-10467,136113,13900,-20575,147231,268,19214,836,0,26412,0.0010000000000000009
396000,10040,-17300,128307,1926,-6111,125085,349,19200,1098,1,26413,0.0010000000000000009
397000,4746,-3539,142688,444,-18173,146252,349,19184,1429,1,26414,0.0010000000000000009
398000,18440,-19381,128667,24729,-10416,137236,240,19215,983,0,26415,0.0010000000000000009
399000,12249,8099,137738,4708,4291,130284,275,19214,1126,0,26416,0.0010000000000000009
400000,9441,-7264,126278,-2408,-7318,134331,272,19217,1114,1,26417,0.0010000000000000009
401000,6537,13157,129155,26658,19496,116483,246,19217,1114,1,26418,0.0010000000000000009
402001,3401,474,125250,6747,-5816,126893,316,19212,1008,0,26419,0.0010010000000000296
403000,382,1898,123954,-10795,8267,123564,316,19192,1294,0,26420,0.0009989999999999721
404000,2051,2144,120193,-11163,-1138,124491,292,19205,1196,1,26421,0.0010000000000000009
405000,-3807,24279,128275,14138,25357,114209,282,19227,1155,1,26422,0.0010000000000000009
406000,-4864,12601,125239,-6973,1006,115903,219,19211,897,0,26423,0.0010000000000000009
407000,-11169,264,120658,-27904,1884,123817,272,19211,897,0,26424,0.0010000000000000009
408000,-11113,-6182,124520,2148,-7808,121419,351,19201,1114,1,26425,0.0010000000000000009
409000,-3459,2231,121843,-11187,7247,118028,351,19203,1438,1,26426,0.0010000000000000009
410000,-8192,16147,127560,-19585,8987,117992,232,19217,950,0,26427,0.0010000000000000009
411000,-710,7286,123641,-21211,8727,123501,292,19217,1196,0,26428,0.0010000000000000009
412000,-11287,13666,127573,2624,7528,117563,263,19205,1077,1,26429,0.0010000000000000009
413001,-10674,971,123818,-9506,3939,127602,203,19205,831,1,26430,0.0010010000000000296
414000,-121,3115,128505,-19409,3071,125042,288,19223,831,0,26431,0.0009989999999999721
415000,-6253,5876,128925,-2907,7023,126204,296,19199,1180,0,26432,0.0010000000000000009
416000,6904,8376,130100,1628,1184,134474,296,19206,1212,1,26433,0.0010000000000000009
417000,-4959,6131,134856,-12267,6960,125636,361,19226,1479,1,26434,0.0010000000000000009
418000,8553,-9318,133473,520,-18920,150812,208,19218,852,0,26435,0.0010000000000000009
419000,8840,-17688,133823,21832,-11319,135486,276,19218,1130,0,26436,0.0010000000000000009
420000,6299,979,136620,6638,1789,126102,359,19202,1130,1,26437,0.0010000000000000009
421002,8998,-17806,134548,-8675,-22811,151750,244,19190,1470,1,26438,0.0010020000000000029
422002,28157,-9603,133920,10718,-7599,131252,244,19222,999,0,26439,0.0010000000000000009
423002,-2988,10798,135133,46513,3784,134416,272,19208,1114,0,26440,0.0010000000000000009
424002,24703,-20040,120609,-35978,-21338,135790,268,19214,1098,1,26441,0.0010000000000000009
425001,-5445,21187,135248,25137,23555,116956,239,19214,979,1,26442,0.0009989999999999721
426000,13259,-7795,122397,27813,-7768,134738,316,19212,979,0,26443,0.0009990000000000276
427000,-2701,21406,125364,-17770,24069,107368,296,19198,1294,0,26444,0.0010000000000000009
428000,-13427,-5526,126263,-26053,-12099,136842,296,19205,1212,1,26445,0.0010000000000000009
429000,15495,25097,125211,20332,26386,112426,273,19228,1118,1,26446,0.0010000000000000009
430000,-22972,5710,120590,6387,216,110059,219,19211,897,0,26447,0.0010000000000000009
431000,5214,7114,124910,-41826,9738,121586,274,19205,1122,0,26448,0.0010000000000000009
432007,-12666,-8171,121233,1983,-9506,122146,355,19205,1122,1,26449,0.0010069999999999801
433000,-8324,1357,120100,4872,2132,107566,237,19210,1454,1,26450,0.0009930000000000216
434000,5193,25564,130467,-37733,22809,134033,237,19213,971,0,26451,0.0010000000000000009
435002,-22447,-12591,119050,-9234,5547,115241,288,19213,1180,0,26452,0.0010020000000000029
436002,6484,19527,127335,-3760,15259,117534,265,19201,1085,1,26453,0.0010000000000000009
437002,-22461,2290,126156,-18570,-1407,133696,197,19222,807,1,26454,0.0010000000000000009
438000,4582,8171,130337,-10991,4825,123645,285,19222,807,0,26455,0.0009979999999999989
439002,-5223,1002,126339,-4307,6449,124998,300,19189,1167,0,26456,0.0010020000000000029
440000,-5743,8430,133445,-3370,-2734,142098,300,19205,1229,1,26457,0.0009979999999999989
441000,11946,60,131077,1106,-1751,128009,339,19229,1388,1,26458,0.0010000000000000009
442000,3616,2524,134891,8769,-2838,137998,204,19217,836,0,26459,0.0010000000000000009
443000,14393,-21544,133311,12413,-26483,148058,267,19205,1094,0,26460,0.0010000000000000009
444000,5970,-4998,133301,-179,6008,114739,351,19205,1094,1,26461,0.0010000000000000009
445000,9834,-11996,137993,8980,-30194,163522,254,19196,1438,1,26462,0.0010000000000000009
446000,17432,-14768,131702,26072,1272,122598,254,19220,1040,0,26463,0.0010000000000000009
447000,11818,14025,133588,3113,-1580,138359,280,19207,1147,0,26464,0.0009999999999999454
448000,9233,-10008,127078,-1952,-2272,130433,279,19213,1143,1,26465,0.0010000000000000009
449000,5839,18682,129000,27294,13524,113659,235,19215,962,1,26466,0.0010000000000000009
450000,4999,-4073,125090,-3843,-6212,131381,315,19215,962,0,26467,0.0010000000000000009
451000,-3586,5847,126671,-12812,7109,123233,297,19197,1290,0,26468,0.0010000000000000009
452002,2893,4540,122645,-1192,8703,118951,297,19205,1216,1,26469,0.0010020000000000029
453000,-4151,28559,126078,9483,22334,114838,271,19228,1110,1,26470,0.0009979999999999989
454000,-3798,3113,120952,-16019,-539,115188,223,19209,913,0,26471,0.0010000000000000009
455000,-8055,1442,122527,-20957,-2863,125344,277,19205,1135,0,26472,0.0010000000000000009
456000,-10865,-8740,122164,4398,-6373,121860,359,19205,1135,1,26473,0.0010000000000000009
457000,-4235,9333,124108,-14498,14488,114608,236,19209,1470,1,26474,0.0010000000000000009
458000,-7811,10584,127205,-23090,2413,126363,236,19214,967,0,26475,0.0010000000000000009
459000,-5303,12324,124940,-8751,10551,117948,305,19212,1249,0,26476,0.0010000000000000009
460000,-10176,10044,125340,-4557,5891,120165,269,19205,1102,1,26477,0.0010000000000000009
461000,-11083,548,127335,-13646,576,129032,220,19214,901,1,26478,0.0010000000000000009
462000,4597,3243,126697,-15481,3589,123832,303,19214,1241,0,26479,0.0010000000000000009
463000,-4886,10028,131935,-196,10677,127631,300,19193,1241,0,26480,0.0010000000000000009
464000,5603,-227,127546,2710,-3854,136118,324,19204,1229,1,26481,0.0010000000000000009
465000,-565,11921,136624,-11640,6854,125735,324,19233,1327,1,26482,0.0010000000000000009
466000,12471,-16285,129281,12977,-24971,153376,194,19217,795,0,26483,0.0010000000000000009
467001,9592,-10401,135482,14554,-4425,128825,274,19201,1122,0,26484,0.0010010000000000296
468001,5746,-554,139278,2666,-5424,132494,360,19201,1474,1,26485,0.0010000000000000009
469001,7359,-23642,130239,-5491,-23733,153162,245,19191,1474,1,26486,0.0010000000000000009
470002,29243,1358,137545,27653,2638,122011,281,19216,1003,0,26487,0.0010009999999999741
471002,-5674,3455,130361,22335,-6803,143502,281,19209,1151,0,26488,0.0010000000000000009
472000,26120,-13133,121238,-24065,-9506,123528,277,19213,1135,1,26489,0.0009979999999999989
473000,-6400,19766,133620,30347,16351,124645,243,19209,995,1,26490,0.0010000000000000009
474000,18109,-5583,121762,19230,-2420,128273,320,19202,1311,0,26491,0.0010000000000000009
475000,-11287,22162,124715,-26777,21829,110388,292,19202,1311,0,26492,0.0010000000000000009
476000,2838,-13416,125524,-15474,-17565,140764,276,19210,1196,1,26493,0.0010000000000000009
477000,1149,35805,123590,29421,32641,103264,276,19229,1130,1,26494,0.0010000000000000009
478001,-15676,-3215,120137,-14747,-5396,126445,219,19209,897,0,26495,0.0010009999999999741
479000,2415,9048,127567,-30999,9307,122452,277,19209,1135,0,26496,0.0009990000000000276
480000,-13886,-11315,119538,3900,-11449,120148,361,19207,1479,1,26497,0.0010000000000000009
481000,-3174,15163,126014,-351,17055,108590,236,19207,1479,1,26498,0.0010000000000000009
482000,-2115,9361,126456,-37235,5056,137589,290,19218,967,0,26499,0.0010000000000000009
483000,-13377,2159,121333,-2916,15543,108091,290,19213,1188,0,26500,0.0010000000000000009
484000,-1409,16986,125473,-3802,6549,127611,268,19202,1098,1,26501,0.0010000000000000009
485000,-14754,-148,128510,-19851,5270,123725,207,19222,848,1,26502,0.0010000000000000009
486000,5735,7328,127349,-5328,-1087,128293,302,19193,1237,0,26503,0.0010000000000000009
487000,-5926,2354,129868,-8479,11373,125816,295,19193,1237,0,26504,0.0010000000000000009
488000,-865,5119,131559,-3159,-3194,137751,343,19206,1208,1,26505,0.0010000000000000009
489000,7537,4818,133277,2312,-2632,133131,343,19227,1405,1,26506,0.0010000000000000009
490000,9702,-1721,133253,7799,-13789,143464,215,19213,881,0,26507,0.0010000000000000009
491000,11062,-23714,132596,11661,-18269,140224,284,19199,1163,0,26508,0.0010000000000000009
492000,6583,-2363,137286,-2907,183,121381,383,19196,1569,1,26509,0.0010000000000000009
493000,14674,-16090,132992,17976,-19232,156135,247,19196,1569,1,26510,0.0010000000000000009
494000,18519,-4230,134006,21379,1647,123724,276,19216,1012,0,26511,0.0010000000000000009
495000,10243,1795,127833,-9356,-8682,139301,276,19209,1130,1,26512,0.0010000000000000009
496000,5999,474,130333,11033,9291,124994,273,19217,1118,1,26513,0.0010000000000000009
497000,7265,13939,124778,23026,1580,122681,245,19217,1003,1,26514,0.0010000000000000009
498000,2317,-817,125004,-10529,3869,122622,328,19200,1343,0,26515,0.0010000000000000009
499000,-3573,2869,127626,-12894,-1701,130979,292,19200,1343,0,26516,0.0010000000000000009
500001,6014,9960,123659,6904,18676,111396,270,19202,1196,1,26517,0.0010010000000000296
501000,-5535,28253,123615,-3037,15896,116648,270,19227,1106,1,26518,0.0009989999999999721
502000,-3964,-1091,122799,-20970,171,118027,221,19212,905,0,26519,0.0010000000000000009
503000,-7585,-2077,120399,-14657,-8193,123383,280,19200,1147,0,26520,0.0010000000000000009
504003,-8766,-5312,122848,1574,1264,120280,368,19213,1507,1,26521,0.0010029999999999761
505000,-3013,11654,124003,-19335,14900,114471,234,19213,958,1,26522,0.0009970000000000256
506000,-6526,5666,124514,-22634,2856,125945,285,19214,958,0,26523,0.0010000000000000009
507000,-4410,18557,124524,-3807,13266,116981,270,19217,1167,0,26524,0.0010000000000000009
508000,-11920,2256,122844,-12408,300,125708,270,19204,1106,1,26525,0.0010000000000000009
509001,-7333,3410,129033,-15458,1859,123682,208,19218,852,1,26526,0.0010009999999999186
510000,936,1255,126253,-10804,2306,128533,300,19194,1229,0,26527,0.0009990000000000832
511000,-1315,12469,133670,-575,12130,126462,296,19194,1212,0,26528,0.0010000000000000009
512000,1785,-572,128703,1199,-727,132047,321,19199,1212,1,26529,0.0010000000000000009
513002,4570,9779,135462,-11811,-892,135392,206,19227,1315,0,26530,0.0010019999999999474
514000,13406,-20901,127690,16205,-23938,148250,206,19215,844,0,26531,0.0009980000000000544
515000,10137,-5155,136518,12641,-3534,126614,276,19203,1130,0,26532,0.0010000000000000009
516000,9023,-6202,138127,-5625,-9652,139085,365,19198,1495,1,26533,0.0010000000000000009
517000,6847,-21090,130524,2221,-19228,148606,254,19198,1040,1,26534,0.0010000000000000009
518000,28359,7278,138529,39399,7407,120952,268,19213,1040,0,26535,0.0010000000000000009
519000,-3377,-6291,127607,407,-14272,146755,282,19212,1098,1,26536,0.0010000000000000009
520000,20258,-2676,125601,-12044,3719,115076,282,19218,1155,1,26537,0.0010000000000000009
521000,-5904,11156,129716,28447,3445,134195,243,19210,995,1,26538,0.0010000000000000009
522000,17214,2679,123406,13077,8419,117860,329,19198,1347,0,26539,0.0010000000000000009
523001,-19402,17419,124566,-32075,13261,119197,292,19204,1196,1,26540,0.0010009999999999186
524000,13586,-9281,123555,-6698,-10384,136444,256,19204,1196,1,26541,0.0009990000000000832
525001,-8762,32951,122072,28267,30355,100743,225,19226,1049,0,26542,0.0010009999999999186
526000,-7844,-2934,122414,-31738,-3170,126792,225,19208,922,0,26543,0.0009990000000000832
527000,-3610,2415,124918,-20866,-930,120891,282,19200,1155,0,26544,0.0010000000000000009
528000,-13238,-7375,120213,5780,-6338,118647,372,19217,1524,1,26545,0.0010000000000000009
529000,1348,23299,129335,-11275,25866,114994,232,19215,950,1,26546,0.0010000000000000009
530000,-12047,-1398,123001,-30741,-6333,135099,293,19215,950,0,26547,0.0010000000000000009
531000,-1529,8511,124065,-2980,13107,108450,269,19214,1200,1,26548,0.0010000000000000009
532000,-11451,14257,125973,-4255,7303,129753,269,19213,1102,1,26549,0.0010000000000000009
533000,-9827,-566,127788,-24125,3021,125030,226,19211,926,1,26550,0.0010000000000000009
534000,8286,5141,127044,-7322,4780,124242,315,19194,1290,0,26551,0.0010000000000000009
535001,-12592,9822,132773,-2277,10198,130933,301,19202,1233,0,26552,0.0010009999999999186
536001,11059,-1170,128743,-12009,-8995,137423,298,19202,1233,1,26553,0.0010000000000000009
537000,-2501,1602,133243,5857,5037,126187,206,19227,1221,0,26554,0.0009989999999999721
538000,19526,-2637,135888,16296,-27420,158456,206,19214,844,0,26555,0.0010000000000000009
539000,6545,-25710,128560,4175,-27,121430,278,19200,1139,0,26556,0.0010000000000000009
540000,2894,8193,142530,-1606,-11005,136914,374,19194,1532,1,26557,0.0010000000000000009
541000,22726,-28526,129750,18938,-14944,147975,244,19214,999,0,26558,0.0010000000000000009
542000,6324,9740,135466,18657,3329,122328,277,19214,999,0,26559,0.0010000000000000009
543000,19610,-14792,125863,-12663,-14237,142426,280,19211,1135,1,26560,0.0010000000000000009
544000,-406,12121,131058,19878,22608,116686,280,19217,1147,1,26561,0.0010000000000000009
545000,10818,5992,123518,24102,-2349,127017,245,19214,1003,1,26562,0.0010000000000000009
546000,1377,4523,124701,-15846,4631,122363,333,19202,1364,0,26563,0.0010000000000000009
547000,-6454,-2356,124527,-16511,-5937,130502,293,19198,1200,1,26564,0.0010000000000000009
548000,6550,21020,125960,12901,26789,111087,268,19198,1200,1,26565,0.0010000000000000009
549000,-10542,17630,124523,-7879,4085,117552,220,19224,1098,0,26566,0.0010000000000000009
550000,-2641,5936,124163,-21441,6385,117533,220,19210,901,0,26567,0.0010000000000000009
551000,-12533,-9752,120225,-11147,-10468,125705,282,19203,1155,1,26568,0.0010000000000000009
552002,-3862,1919,124793,-651,6823,115913,379,19219,1552,1,26569,0.0010020000000000584
553002,-5401,10206,124347,-22919,8234,119080,237,19214,971,0,26570,0.0010000000000000009
554000,-4326,7672,123602,-23039,12201,120154,287,19214,1175,0,26571,0.0009979999999999434
555000,-8658,18974,127436,-2342,8584,120259,269,19216,1175,1,26572,0.0010000000000000009
556000,-7648,-4690,122427,-11946,-1813,128324,216,19208,1102,1,26573,0.0010000000000000009
557000,-10613,7463,127611,-12965,5575,121208,216,19218,885,1,26574,0.0010000000000000009
558000,2374,732,128394,-13147,4046,129599,312,19194,1278,0,26575,0.0010000000000000009
559000,-1757,12897,132119,2458,8606,128129,296,19205,1212,1,26576,0.0010000000000000009
560000,-1017,4110,132379,-5894,4024,128325,327,19205,1339,1,26577,0.0010000000000000009
561000,7244,-735,132551,-10858,-11016,146229,216,19225,1339,0,26578,0.0010000000000000009
562000,8344,-20654,131575,21339,-18358,141085,285,19217,885,0,26579,0.0010000000000000009
563000,11305,-2016,135188,12583,-466,125612,285,19201,1167,0,26580,0.0010000000000000009
564000,9108,-11380,136777,-10713,-16919,146188,379,19198,1552,1,26581,0.0010000000000000009
565000,19425,-18485,131680,8118,-15222,140138,249,19213,1020,0,26582,0.0010000000000000009
566000,11120,13857,138033,45830,10696,126553,270,19213,1106,0,26583,0.0010000000000000009
567000,10719,-20041,123479,-23897,-24911,144268,280,19211,1106,1,26584,0.0010000000000000009
568000,5020,15710,133052,6742,22430,111317,252,19217,1147,1,26585,0.0010000000000000009
569000,2496,-3288,125370,31491,-8873,138064,252,19208,1032,0,26586,0.0010000000000000009
570000,7854,14249,124019,-4252,19941,109783,339,19209,1388,0,26587,0.0010000000000000009
571000,-18873,5714,126085,-27157,-1526,127456,293,19201,1200,1,26588,0.0010000000000000009
572005,18999,9160,122207,4910,12093,125649,257,19233,1053,1,26589,0.0010050000000000336
573002,-20200,18827,123547,16271,14730,102442,226,19233,1053,0,26590,0.0009970000000000256
574000,3451,3879,121587,-37875,3371,126608,284,19211,926,0,26591,0.0009979999999999434
575000,-13536,-10025,121317,-9422,-12962,118769,284,19201,1163,1,26592,0.0010000000000000009
576000,-8708,-672,119878,6342,327,113930,378,19216,1548,1,26593,0.0010000000000000009
577005,3222,27123,131607,-28618,27215,127528,235,19213,962,0,26594,0.0010050000000000336
578001,-19072,-11958,118592,-17038,453,121432,292,19212,1196,0,26595,0.0009959999999999969
579000,5970,16939,129326,-10450,11216,116198,272,19212,1196,1,26596,0.0009989999999999721
580000,-21282,6002,125123,-4114,751,132030,212,19206,1114,1,26597,0.0010000000000000009
581000,2406,1747,126391,-21426,4356,121913,212,19219,868,0,26598,0.0010000000000000009
582000,-947,4123,128305,-4256,2959,129022,311,19190,1274,0,26599,0.0010000000000000009
583001,-6201,14199,134559,-5202,6285,136928,293,19202,1200,1,26600,0.0010010000000000296
584000,8587,-2048,127682,-3668,-2484,129068,302,19233,1237,1,26601,0.0009989999999999721
585000,-6165,10761,138517,4511,8629,129072,208,19233,1237,0,26602,0.0010000000000000009
586000,19853,-24502,131234,16654,-43041,163066,280,19215,852,0,26603,0.0010000000000000009
587000,6131,-15986,130272,7318,12110,108001,280,19198,1147,1,26604,0.0010000000000000009
588000,9853,4972,143798,101,-24140,155698,379,19195,1552,1,26605,0.0010000000000000009
589001,22292,-28747,125890,17251,-4537,132891,250,19210,1024,0,26606,0.0010010000000000296
590000,4099,21509,141857,17547,4268,129622,264,19210,1081,0,26607,0.0009989999999999721
591003,16210,-24060,123026,-10711,-21597,143751,283,19210,1081,1,26608,0.0010029999999999761
592000,-4110,19063,131705,21702,26345,108273,246,19213,1159,1,26609,0.0009970000000000256
593000,11317,-2509,125524,14610,-10649,136568,246,19211,1008,0,26610,0.0010000000000000009
594000,-1177,5232,124133,-8564,16156,113203,339,19202,1388,0,26611,0.0010000000000000009
595000,-4786,8932,123054,-21127,-395,128186,293,19203,1200,1,26612,0.0010000000000000009
596000,4595,18364,126550,14335,23237,117958,239,19227,979,1,26613,0.0010000000000000009
597000,-10819,14097,123460,-434,4781,108883,229,19227,938,0,26614,0.0010000000000000009
598000,-3501,4154,121192,-23525,4858,123905,284,19210,938,0,26615,0.0010000000000000009
599014,-14442,-10406,121380,-12584,-10556,123177,383,19201,1163,1,26616,0.0010139999999999594
600000,-1237,1305,122414,-526,7730,117645,383,19219,1569,1,26617,0.0009860000000000424
601000,-6019,15838,126609,-17445,8121,120973,237,19213,971,0,26618,0.0010000000000000009
602000,-8375,6953,123265,-30682,9924,121003,295,19212,1208,0,26619,0.0010000000000000009
603001,-9254,14386,130470,3847,4229,121462,269,19212,1102,1,26620,0.0010010000000000296
604000,-10816,-8071,121377,-7880,-4593,130293,229,19209,1102,1,26621,0.0009989999999999721
605000,-2303,10521,130392,-16450,13490,117914,326,19217,938,0,26622,0.0010000000000000009
606000,-1372,1584,127713,-10097,70,133147,326,19193,1335,0,26623,0.0010000000000000009
607000,3855,12424,130272,5939,7117,126797,301,19202,1233,1,26624,0.0010000000000000009
608000,-1211,6632,134145,-8465,5201,129340,294,19236,1204,1,26625,0.0010000000000000009
609000,5611,-10957,131283,-4967,-19116,150606,209,19236,856,0,26626,0.0010000000000000009
610000,7768,-10370,136399,22041,-3491,128328,281,19219,856,0,26627,0.0010000000000000009
611000,8903,-2298,134116,10701,-3679,134246,380,19201,1151,1,26628,0.0010000000000000009
612000,7043,-16628,136358,-11639,-20176,145186,380,19198,1556,1,26629,0.0010000000000000009
613000,27494,-12445,133291,15308,-11438,135179,240,19224,983,0,26630,0.0010000000000000009
614000,-844,8719,136481,37916,3767,133607,273,19203,1118,0,26631,0.0010000000000000009
615000,21193,-19728,121148,-28297,-21690,135581,281,19212,1151,1,26632,0.0010000000000000009
616000,-2685,21325,136254,20129,24371,117938,246,19212,1151,1,26633,0.0010000000000000009
617000,12237,-7880,121781,25973,-7574,133751,341,19206,1008,0,26634,0.0010000000000000009
618000,-2229,21250,125108,-14070,23005,108919,341,19203,1397,0,26635,0.0010000000000000009
619000,-10179,-7248,124802,-24466,-12835,134894,295,19201,1208,1,26636,0.0010000000000000009
620001,8997,26431,124246,16270,27044,113594,257,19227,1053,1,26637,0.0010010000000000296
621001,-18040,8136,123360,3172,3794,120449,223,19213,913,0,26638,0.0010000000000000009
622000,1313,7800,123478,-36471,8994,125534,285,19213,913,0,26639,0.0009989999999999721
623000,-12170,-11944,121354,1638,-12663,118363,383,19202,1167,1,26640,0.0010000000000000009
624001,-6505,7683,120883,-2868,8110,110841,383,19217,1569,1,26641,0.0010009999999999186
625003,-1933,18593,129732,-29247,15709,134432,237,19211,971,0,26642,0.0010020000000000584
626000,-14281,-9241,118997,-15440,10540,111693,297,19212,1216,0,26643,0.0009970000000000256
627000,2188,18785,128505,-6893,9828,123925,278,19209,1139,1,26644,0.0010000000000000009
628000,-21183,1708,126201,-6154,-1619,127681,219,19209,1139,1,26645,0.0010000000000000009
629000,10591,2786,128032,-17311,3348,125373,322,19219,897,0,26646,0.0010000000000000009
630000,-12815,5152,129574,-6695,8900,128453,322,19193,1319,0,26647,0.0010000000000000009
631005,3434,10382,132218,-802,-2012,140082,296,19202,1212,1,26648,0.0010049999999999226
632000,1739,458,130440,-602,3289,122361,313,19226,1282,1,26649,0.0009950000000000792
633000,2811,7370,138406,4011,-9086,145450,223,19211,913,0,26650,0.0010000000000000009
634000,17880,-34527,128021,14633,-29366,145023,291,19211,1192,0,26651,0.0010000000000000009
635000,4861,6710,137916,6257,11304,116179,391,19200,1192,1,26652,0.0010000000000000009
636000,15810,-16685,135176,-3319,-32254,161412,391,19198,1601,1,26653,0.0010000000000000009
637000,14965,-3700,133688,38079,11669,117253,245,19212,1003,0,26654,0.0010000000000000009
638000,10625,2796,134813,-1897,-22025,149914,264,19213,1081,0,26655,0.0010000000000000009
639003,12045,-17018,123144,-2218,5095,121944,287,19223,1175,1,26656,0.0010029999999999761
640002,-2712,24414,132990,25341,12963,118947,252,19223,1175,1,26657,0.0009989999999999721
641000,15737,-5202,123321,2535,67,128420,349,19214,1032,0,26658,0.0009980000000000544
642000,-13585,11967,126509,-11089,9087,117348,349,19205,1429,0,26659,0.0010000000000000009
643000,12548,-2919,120792,-11094,-1219,132633,292,19205,1196,1,26660,0.0010000000000000009
644001,-9950,26433,126496,18678,22681,108343,237,19227,971,1,26661,0.0010009999999999186
645000,-2633,9662,122082,-12183,5539,112890,234,19208,958,0,26662,0.0009990000000000832
646000,-7578,3623,122811,-22128,-3900,127621,285,19208,1167,0,26663,0.0010000000000000009
647000,-14904,-8208,122240,-8112,-4610,118627,389,19207,1167,1,26664,0.0010000000000000009
648001,1492,7613,125777,1303,11148,121295,239,19222,1593,1,26665,0.0010009999999999186
649000,-11798,6688,124358,-27854,1656,121054,239,19210,979,0,26666,0.0009990000000000832
650000,-4967,20219,127606,-14988,20060,113587,304,19213,1245,0,26667,0.0010000000000000009
651002,-8895,3912,125826,-2342,-4632,129947,278,19217,1139,1,26668,0.0010019999999999474
652002,-9918,-4232,123816,-4656,2625,123017,214,19217,876,1,26669,0.0010000000000000009
653000,3331,10932,131502,-20213,5475,127034,324,19214,876,0,26670,0.0009980000000000544
654000,-2799,2581,128328,-4125,8585,128138,298,19194,1327,0,26671,0.0010000000000000009
655000,295,8166,129283,8644,2149,129498,298,19199,1221,1,26672,0.0009999999999998899
656002,2638,6287,136442,-11587,-332,135179,300,19231,1229,1,26673,0.0010020000000000584
657000,8672,-14160,128331,1089,-19118,145373,211,19214,864,0,26674,0.0009979999999999434
658002,9975,-8175,137014,25527,-4106,131811,282,19214,1155,0,26675,0.0010020000000000584
659002,7779,-1654,137110,1891,-3652,130407,394,19204,1155,1,26676,0.0010000000000000009
660001,4314,-20923,131095,-8909,-24724,153000,239,19204,1614,1,26677,0.0009989999999999721
661000,32151,-5280,137703,30008,-1766,123938,239,19211,979,0,26678,0.0009989999999999721
662000,-3920,7145,129567,22153,-4904,144056,267,19209,1094,0,26679,0.0010000000000000009
663000,22071,-15451,123921,-18572,-10455,122314,286,19219,1171,1,26680,0.0010000000000000009
664000,-3677,21286,132434,21540,17216,127545,247,19209,1012,1,26681,0.0010000000000000009
665000,13264,-6491,123892,21167,-3253,125630,352,19209,1012,0,26682,0.0010000000000000009
666000,-8428,21957,123827,-19780,21086,114279,296,19208,1442,0,26683,0.0010000000000000009
667000,609,-12897,126154,-21249,-16425,135129,296,19206,1212,1,26684,0.0010000000000000009
668001,629,34302,122991,27355,30418,108479,220,19224,901,1,26685,0.0010010000000000296
669000,-10900,1438,122043,-11672,-408,125963,236,19208,967,0,26686,0.0009989999999999721
670000,-2496,8102,126093,-26713,8853,122577,285,19205,1167,0,26687,0.0010000000000000009
671001,-11438,-11328,120088,-1639,-10801,121061,396,19205,1167,1,26688,0.0010010000000000296
672000,-4715,16263,126899,-2893,17686,108859,239,19227,1622,1,26689,0.0009989999999999721
673000,-4331,6782,125342,-29438,-15073,136685,239,19217,979,0,26690,0.0010000000000000009
674000,-11244,4854,123240,-10412,16162,107553,303,19210,1241,0,26691,0.0010000000000000009
675000,-1924,13147,124688,-2354,5408,129836,280,19209,1147,1,26692,0.0010000000000000009
676000,-13403,-488,129015,-12176,614,122341,232,19215,950,1,26693,0.0010000000000000009
677000,7821,5450,125880,-10423,6483,125368,336,19215,950,0,26694,0.0010000000000000009
678000,-10572,5820,132346,-11776,9212,131441,300,19201,1376,0,26695,0.0010000000000000009
679000,5090,5693,129261,2133,-3046,133731,300,19203,1229,1,26696,0.0010000000000000009
680000,-1892,4424,133483,3045,4617,125961,307,19229,1257,1,26697,0.0010000000000000009
681003,14518,-2599,133501,936,-27212,155132,216,19215,885,0,26698,0.0010029999999999761
682000,10664,-31174,129830,13165,-9001,129373,283,19201,1159,0,26699,0.0009970000000000256
683000,9376,14055,142538,7122,826,130842,391,19201,1159,1,26700,0.0010000000000000009
684000,13728,-30854,127512,-2328,-27279,152714,243,19199,1601,1,26701,0.0010000000000000009
685000,16881,16278,140418,40082,16509,116628,243,19215,995,0,26702,0.0010000000000000009
686000,11060,-18780,125280,-10698,-41485,160932,266,19210,1089,1,26703,0.0010000000000000009
687000,7272,-299,128197,2297,29135,103208,291,19218,1192,1,26704,0.0010000000000000009
688001,1234,23020,130468,19512,-1317,134966,264,19206,1081,1,26705,0.0010010000000000296
689002,12653,-2474,122944,3261,12617,116448,356,19206,1458,0,26706,0.0010010000000000296
690000,-17034,15649,128659,-16340,2136,120232,292,19212,1458,0,26707,0.0009979999999999434
691000,16539,-9416,119444,-8940,-288,136701,237,19207,1196,1,26708,0.0010000000000000009
692000,-11343,28394,123222,17356,24830,97559,237,19223,971,1,26709,0.0010000000000000009
693000,-710,10442,123288,-17100,7578,119559,239,19205,979,0,26710,0.0010000000000000009
694000,-7124,-5319,121488,-28103,-15653,128375,289,19200,1184,0,26711,0.0010000000000000009
695000,-13724,-3424,123014,-580,3931,116339,392,19200,1606,1,26712,0.0010000000000000009
696000,2293,8935,127336,-1304,9028,124505,231,19218,1606,1,26713,0.0010000000000000009
697000,-14780,804,120811,-34220,1089,118704,286,19216,946,0,26714,0.0010000000000000009
698001,-2368,29476,129418,-9142,22716,112785,286,19208,1171,0,26715,0.0010010000000000296
699000,-9288,-5130,121719,-4785,-11373,136260,282,19212,1155,1,26716,0.0009989999999999721
700001,-4550,2320,126820,-8736,7331,114383,224,19214,917,1,26717,0.0010010000000000296
701000,658,6650,129855,-20010,-752,136231,332,19214,1360,0,26718,0.0009989999999999721
702000,710,7990,130125,-977,16083,122221,290,19206,1360,0,26719,0.0010000000000000009
703002,-2268,8316,130830,7724,3206,126793,309,19203,1188,1,26720,0.0010020000000000584
704000,5291,183,134011,-13526,-11000,147673,309,19227,1266,0,26721,0.0009979999999999434
705000,11369,-14986,128625,7256,-15655,136163,229,19213,938,0,26722,0.0010000000000000009
706000,10711,-6132,135929,22591,-6477,135247,292,19198,1196,0,26723,0.0010000000000000009
707000,9366,-3853,138918,-5753,-3951,131145,405,19203,1659,1,26724,0.0010000000000000009
708000,6149,-20075,129365,-2768,-23033,152235,240,19203,1659,1,26725,0.0010000000000000009
709000,30597,704,138982,43500,3684,123408,253,19214,983,0,26726,0.0010000000000000009
710000,-1098,-3862,124698,2420,-13685,146543,253,19216,1036,1,26727,0.0010000000000000009
711000,15083,-3054,128855,-7567,4374,113603,290,19226,1188,1,26728,0.0010000000000000009
712000,-2722,14502,127861,19722,5890,134306,257,19211,1053,1,26729,0.0010000000000000009
713000,12738,467,124477,15476,5946,117819,360,19208,1474,0,26730,0.0010000000000000009
714002,-16394,16446,125936,-24274,12252,120980,289,19208,1474,1,26731,0.0010019999999999474
715001,12568,-9682,121524,-13311,-11684,134638,214,19200,1184,1,26732,0.0009990000000000832
716000,-7573,34504,122303,29224,31504,106411,214,19230,876,0,26733,0.0009989999999999721
717000,-3969,-1373,121682,-24514,-2061,128399,236,19209,967,0,26734,0.0010000000000000009
718000,-6097,453,124087,-22926,-2277,119784,293,19201,1200,0,26735,0.0010000000000000009
719000,-10805,-7113,120401,2624,-6149,121044,405,19220,1659,1,26736,0.0010000000000000009
720000,-972,22293,129872,-9904,24947,113011,233,19220,1659,1,26737,0.0010000000000000009
721004,-12127,-451,122560,-27547,-10879,133609,273,19220,954,0,26738,0.0010040000000000049
722000,-1439,10486,126121,-8667,12307,110770,273,19212,1118,1,26739,0.0009959999999999969
723000,-11747,9618,124548,-2551,3048,130476,283,19213,1159,1,26740,0.0010000000000000009
724000,-5204,-1714,128150,-14809,4549,122001,220,19223,901,1,26741,0.0010000000000000009
725001,4423,6600,127186,-13081,3070,127963,336,19196,1376,0,26742,0.0010010000000000296
726000,-7239,9930,132363,818,15337,127785,296,19196,1376,0,26743,0.0009989999999999721
727000,5113,5067,129809,-4266,-6384,134131,289,19202,1212,1,26744,0.0010000000000000009
728000,-135,-2797,131387,-3472,-3619,131463,289,19229,1184,0,26745,0.0010000000000000009
729001,17807,-7558,133831,15616,-23986,152671,215,19213,881,0,26746,0.0010010000000000296
730000,9995,-24113,129824,10886,-2197,126921,284,19204,1163,0,26747,0.0009989999999999721
731009,6398,9804,141988,-111,-3140,133371,405,19205,1659,1,26748,0.0010090000000000376
732000,17207,-23430,130182,3123,-15630,148282,250,19205,1024,0,26749,0.0009909999999999641
733000,9409,11046,137210,32233,4790,124450,250,19210,1024,0,26750,0.0010000000000000009
734000,14261,-21019,123682,-13588,-29554,147672,294,19209,1024,1,26751,0.0010000000000000009
735003,3082,7172,131667,9951,24546,113296,294,19222,1204,1,26752,0.0010029999999999761
736001,7193,13118,125988,21632,1294,128958,251,19209,1028,1,26753,0.0009980000000000544
737001,9069,5651,124507,-4551,11513,119011,360,19205,1474,0,26754,0.0010000000000000009
738000,-16629,4966,127770,-20380,-5042,127210,294,19205,1204,1,26755,0.0009989999999999721
739000,13490,4883,120443,29,14778,122466,203,19200,1204,1,26756,0.0010000000000000009
740000,-14015,20167,124583,6857,11846,107208,239,19225,831,0,26757,0.0010000000000000009
741000,1976,6605,122442,-20012,4259,120819,239,19203,979,0,26758,0.0010000000000000009
742000,-11707,-8954,120129,-19208,-9345,123365,288,19204,1180,0,26759,0.0010000000000000009
743000,-6366,3020,124086,-793,6946,118511,406,19224,1663,1,26760,0.0010000000000000009
744000,-1957,10719,125253,-15255,8844,120716,238,19224,975,0,26761,0.0010000000000000009
745000,-11607,3459,121211,-27979,7057,119201,291,19213,975,0,26762,0.0010000000000000009
746000,-5394,23884,128602,-5870,14366,117329,283,19214,1192,1,26763,0.0010000000000000009
747000,-9531,-5667,121885,-9982,-7787,132281,283,19209,1159,1,26764,0.0010000000000000009
748000,-4485,5035,126731,-9472,9081,116571,235,19215,962,1,26765,0.0010000000000000009
749000,-159,3010,129475,-16217,810,133007,349,19198,1429,0,26766,0.0010000000000000009
750000,960,12227,131516,-402,11250,125355,298,19197,1221,1,26767,0.0010000000000000009
751000,-2582,4449,131570,-839,2914,128047,280,19197,1221,1,26768,0.0010000000000000009
752001,7637,-3108,133134,-9880,-12587,148671,222,19231,1147,0,26769,0.0010009999999999186
753000,8637,-18661,131911,12660,-16698,137492,222,19210,909,0,26770,0.0009990000000000832
754002,11437,-3106,134354,18650,-2214,130911,288,19194,1180,0,26771,0.0010019999999999474
755010,10450,-7689,138512,-8942,-9933,138307,410,19203,1679,1,26772,0.0010080000000000089
756000,13657,-17423,130357,2470,-17244,145361,241,19211,987,0,26773,0.0009900000000000464
757000,16924,11182,138962,46299,10888,123441,256,19211,987,0,26774,0.0010000000000000009
758000,6270,-17026,122542,-14110,-23536,146823,293,19211,1049,1,26775,0.0010000000000000009
759000,7440,10468,132091,-351,18618,109152,293,19230,1200,1,26776,0.0010000000000000009
760000,1166,2781,126130,26383,-3881,138985,257,19210,1053,0,26777,0.0010000000000000009
761000,10022,10468,124222,5788,15234,112645,369,19211,1511,0,26778,0.0010000000000000009
762001,-20306,8967,126348,-27700,3044,123170,291,19198,1192,1,26779,0.0010009999999999186
763000,16913,720,120720,-5898,1474,133171,216,19198,1192,1,26780,0.0009990000000000832
764000,-16862,22463,124357,23443,19552,109055,239,19226,885,0,26781,0.0010000000000000009
765000,1023,1684,120970,-32997,1319,128718,239,19206,979,0,26782,0.0010000000000000009
766000,-11428,-6738,122524,-18291,-10116,117981,293,19203,1200,1,26783,0.0010000000000000009
767000,-9184,-345,120011,8620,35,116615,416,19230,1704,1,26784,0.0010000000000000009
768000,3243,24559,131461,-23184,6836,124066,235,19205,962,0,26785,0.0010000000000000009
769000,-18419,-6983,118883,-19983,-2293,124359,276,19205,962,0,26786,0.0010000000000000009
770000,3978,14749,129184,-10670,10216,115558,285,19211,1130,1,26787,0.0010000000000000009
771000,-17961,7599,124786,-3518,4225,129636,285,19215,1167,1,26788,0.0010000000000000009
772000,-3933,2671,127767,-20663,4448,124942,225,19217,922,0,26789,0.0010000000000000009
773000,4110,3427,127962,-11836,2299,129006,350,19206,1433,0,26790,0.0010000000000000009
774000,-9485,14820,133800,5562,11501,131884,294,19200,1204,1,26791,0.0009999999999998899
775008,10012,1386,129511,-10309,-7380,131421,305,19200,1249,1,26792,0.0010080000000000089
776000,-2433,-4856,133591,4339,-4470,134039,232,19228,1249,0,26793,0.0009919999999999929
777000,19270,-13939,135027,23059,-28219,153863,232,19213,950,0,26794,0.0010000000000000009
778000,10722,-17407,129430,20,6565,120373,295,19198,1208,1,26795,0.0010000000000000009
779000,1903,7345,143062,803,-15322,145128,424,19207,1737,1,26796,0.0010000000000000009
780000,24348,-22550,128474,15897,-4223,133776,243,19210,995,0,26797,0.0010000000000000009
781004,427,14271,137996,18258,-3238,133352,245,19210,1003,0,26798,0.0010040000000000049
782002,18362,-31793,120865,-9456,-20625,139413,290,19209,1003,1,26799,0.0009980000000000544
783000,1366,23126,133643,23102,27728,113083,254,19224,1188,1,26800,0.0009979999999999434
784000,8748,1959,124131,15458,-940,129664,254,19212,1040,0,26801,0.0010000000000000009
785002,3384,12130,124584,-9959,15087,115866,371,19212,1520,0,26802,0.0010020000000000584
786000,-10238,-1953,124464,-18412,-12839,133707,295,19200,1208,1,26803,0.0009979999999999434
787000,6667,14699,123693,12872,20517,116534,206,19200,844,1,26804,0.0010000000000000009
788002,-12722,15079,126656,-2199,7172,108410,242,19224,844,0,26805,0.0010020000000000584
789000,-1802,7466,122396,-22482,5432,123929,287,19206,991,0,26806,0.0009979999999999434
790000,-11907,-8478,121508,-11007,-6276,119707,287,19204,1175,1,26807,0.0010000000000000009
791000,-4393,4967,123720,-3903,9141,119783,415,19224,1700,1,26808,0.0010000000000000009
792000,-5438,8788,125095,-18378,1269,124089,241,19201,987,0,26809,0.0010000000000000009
793000,-7114,6661,121637,-25752,14817,114290,285,19201,1167,0,26810,0.0010000000000000009
794000,-10020,19986,130425,1280,8582,122601,286,19212,1167,1,26811,0.0010000000000000009
795000,-6379,-7323,121376,-11227,-3961,129624,220,19212,1171,1,26812,0.0010000000000000009
796000,-4852,9788,128858,-8634,11053,118423,220,19219,901,0,26813,0.0010000000000000009
797000,-2508,1766,128936,-14863,340,133398,357,19204,1462,0,26814,0.0010000000000000009
798000,1582,11987,130622,1699,7362,126887,298,19194,1221,1,26815,0.0010000000000000009
799001,-4269,4782,134228,-6216,4336,128686,270,19230,1106,1,26816,0.0010010000000000296
800000,9253,-8985,132480,-5342,-17486,150869,225,19230,1106,0,26817,0.0009989999999999721
801000,6684,-17319,133911,19155,-11872,134615,284,19216,922,0,26818,0.0010000000000000009
802000,11726,282,135052,14543,913,129039,284,19202,1163,1,26819,0.0010000000000000009
803000,8268,-13796,136675,-11178,-19650,146622,423,19216,1732,1,26820,0.0010000000000000009
804000,23251,-15394,131081,10913,-12345,135130,240,19218,983,0,26821,0.0010000000000000009
805000,4024,13933,138710,38515,8658,131507,252,19211,1032,0,26822,0.0010000000000000009
806000,14858,-25675,119933,-24656,-27475,140674,298,19211,1032,1,26823,0.0010000000000000009
807000,384,26563,136323,12209,30341,111537,251,19226,1221,1,26824,0.0010000000000000009
808001,10441,-9670,122943,26316,-10558,138376,251,19208,1028,0,26825,0.0010010000000000296
809007,-578,19007,123821,-5691,22921,108309,376,19207,1540,0,26826,0.0010059999999999514
810002,-10505,-1890,126634,-26150,-8689,129842,295,19196,1208,1,26827,0.0009950000000000792
811000,9037,17223,122658,4904,19125,99840,188,19229,770,1,26828,0.0009979999999999434
812000,-15505,15294,125269,15213,10349,120759,246,19229,770,0,26829,0.0010000000000000009
813000,-869,3643,121651,-35376,4273,123152,288,19210,1008,0,26830,0.0010000000000000009
814007,-12904,-7224,122624,-9853,-7554,120402,288,19201,1180,1,26831,0.0010069999999999801
815000,-7535,1988,120239,5676,22576,111313,395,19225,1618,1,26832,0.0009930000000000216
816000,2522,21492,129170,-28981,-5159,130921,240,19204,983,0,26833,0.0010000000000000009
817000,-18516,-7609,119532,-16955,8645,114015,280,19212,1147,0,26834,0.0010000000000000009
818000,3643,17310,129110,-7000,9113,123238,292,19212,1147,1,26835,0.0010000000000000009
819000,-21616,96,124048,-9301,1325,127416,235,19211,1196,1,26836,0.0010000000000000009
820000,3142,10756,131060,-19029,7043,126349,235,19215,962,0,26837,0.0010000000000000009
821001,-4970,-1340,126824,-4091,4291,126454,364,19207,1491,0,26838,0.0010010000000000296
822001,-5129,12569,132890,273,-226,137341,299,19196,1225,1,26839,0.0010000000000000009
823000,10241,-6858,129755,-3178,-9081,133433,288,19229,1180,1,26840,0.0009989999999999721
824000,2166,7444,137805,6241,5472,132865,228,19229,934,0,26841,0.0010000000000000009
825000,15986,-22222,132098,18160,-29763,152653,290,19218,934,0,26842,0.0010000000000000009
826001,6342,-2715,134004,1299,5452,116266,426,19198,1188,1,26843,0.0010010000000000296
827000,7332,-11266,138301,-5168,-27746,154650,426,19210,1745,1,26844,0.0009989999999999721
828000,19981,-13653,131254,40151,-3014,132555,243,19208,995,0,26845,0.0010000000000000009
829002,10103,3704,134890,-1209,-10570,135951,245,19209,1003,0,26846,0.0010020000000000584
830000,11567,-5346,126595,-3015,10644,124500,302,19209,1237,1,26847,0.0009979999999999434
831000,1832,22080,132152,23004,10399,121182,257,19230,1237,1,26848,0.0010000000000000009
832000,9792,-6506,122477,9317,-1312,124025,376,19212,1053,0,26849,0.0010000000000000009
833000,-9911,4912,126513,-13944,1541,126284,376,19206,1540,0,26850,0.0010000000000000009
834000,8277,-3156,119192,-15363,4480,124333,293,19199,1200,1,26851,0.0010000000000000009
835000,-8180,32723,127908,23210,27197,108698,189,19226,774,1,26852,0.0010000000000000009
836000,1520,5501,122450,-9867,731,118144,247,19226,1012,0,26853,0.0010000000000000009
837000,-12267,1982,121401,-25649,-2925,124003,297,19209,1012,0,26854,0.0010000000000000009
838000,-12049,-7020,123548,-7344,-6171,122163,419,19202,1216,1,26855,0.0010000000000000009
839000,-3436,4310,124466,749,7120,120465,419,19233,1716,1,26856,0.0010000000000000009
840000,-10019,10340,125001,-25286,5531,117712,235,19206,962,0,26857,0.0010000000000000009
841000,-3642,20624,128078,-18522,19248,118476,263,19209,1077,0,26858,0.0010000000000000009
842000,-8662,2845,124607,602,-5725,127347,292,19218,1196,1,26859,0.0010000000000000009
843000,-8033,150,124700,-2772,8520,119765,227,19218,1196,1,26860,0.0010000000000000009
844000,1051,8735,130220,-23790,3092,129697,366,19218,930,0,26861,0.0010000000000000009
845000,-2467,2811,128039,-3828,8235,125985,366,19208,1499,0,26862,0.0010000000000000009
846000,1564,7605,129864,9545,511,132557,296,19195,1212,1,26863,0.0010000000000000009
847002,1314,3577,135690,-12867,-53,134215,277,19226,1135,1,26864,0.0010019999999999474
848000,8099,-10981,129989,1447,-18042,145420,235,19216,962,0,26865,0.0009980000000000544
849010,9467,-10965,136589,24486,-6071,131714,296,19216,962,0,26866,0.0010099999999999554
850000,6948,425,137711,3640,-1130,129601,430,19202,1212,1,26867,0.0009900000000000464
851000,5319,-22223,131084,-10802,-26269,153333,430,19215,1761,1,26868,0.0010000000000000009
852000,31295,-4944,137698,25721,-2023,125700,245,19207,1003,0,26869,0.0010000000000000009
853000,-4235,7200,130189,29602,-2715,140757,245,19210,1003,0,26870,0.0010000000000000009
854001,24735,-15915,121947,-26211,-12775,125561,307,19226,1257,1,26871,0.0010010000000000296
855002,-4223,20445,133899,25398,17919,125720,249,19226,1257,1,26872,0.0010009999999999186
856000,15676,-7874,122162,24865,-4648,128302,382,19212,1020,0,26873,0.0009980000000000544
857000,-6908,23721,124785,-22120,23175,111095,382,19207,1565,0,26874,0.0010000000000000009
858000,-4044,-11258,126539,-22645,-15461,137585,296,19196,1212,1,26875,0.0010000000000000009
859000,4812,34016,123859,28312,30841,100294,184,19227,754,1,26876,0.0010000000000000009
860000,-15448,1092,121444,-8385,-1691,126672,248,19209,1016,0,26877,0.0010000000000000009
861000,999,7688,126545,-31883,9202,123352,290,19209,1016,0,26878,0.0010000000000000009
862000,-11268,-10904,119907,1929,-10367,119351,399,19204,1188,1,26879,0.0010000000000000009
863000,-5888,13759,125279,-526,28450,108443,399,19227,1634,1,26880,0.0010000000000000009
864000,-49,11614,127247,-34906,-13892,136561,239,19205,979,0,26881,0.0010000000000000009
865000,-16225,-334,121803,-7489,12036,109674,277,19214,1135,0,26882,0.0010000000000000009
866000,3369,12784,124886,-1955,7804,126401,294,19215,1204,1,26883,0.0010000000000000009
867000,-21222,2361,129067,-12086,2225,124547,223,19215,1204,1,26884,0.0010000000000000009
868000,11947,5120,126272,-6290,6118,126354,363,19217,913,0,26885,0.0010000000000000009
869001,-11415,7317,131553,2269,10947,125943,363,19205,1487,0,26886,0.0010009999999999186
870000,-164,6136,131297,-8501,-6896,138895,295,19201,1208,1,26887,0.0009990000000000832
871000,5481,-7474,129231,-1393,-4621,130540,247,19231,1012,1,26888,0.0010000000000000009
872000,10587,12413,138883,12133,-5391,143075,228,19215,934,0,26889,0.0010000000000000009
873000,15865,-33911,127085,11591,-24543,142612,287,19215,1175,0,26890,0.0010000000000000009
874000,4114,10902,140258,-2747,11483,117974,431,19200,1175,1,26891,0.0010000000000000009
875002,16256,-25745,131725,6981,-33753,161720,239,19224,1765,1,26892,0.0010019999999999474
876000,15626,-640,133737,36866,9210,119451,239,19208,979,0,26893,0.0009980000000000544
877000,11247,-6644,128796,-14060,-25289,147942,243,19216,995,0,26894,0.0010000000000000009
878002,7220,4484,130270,2382,22478,117861,308,19226,1261,1,26895,0.0010019999999999474
879002,4792,17972,127244,26186,-1718,125796,257,19226,1053,1,26896,0.0010000000000000009
880002,8384,301,124829,-4050,9424,121110,372,19211,1053,0,26897,0.0010000000000000009
881000,-11717,1769,127101,-16250,-6114,127836,295,19209,1524,0,26898,0.0009980000000000544
882000,11976,3206,120299,-3220,16099,119753,295,19193,1208,1,26899,0.0010000000000000009
883000,-10046,29159,125898,12493,18434,109082,192,19224,786,1,26900,0.0010000000000000009
884000,1653,3359,120067,-21247,6069,117744,252,19208,1032,0,26901,0.0010000000000000009
885000,-9231,313,122356,-20754,-9627,124616,296,19202,1212,0,26902,0.0010000000000000009
886000,-11618,-5730,121557,-1397,1402,120589,419,19202,1212,1,26903,0.0010000000000000009
887000,-1814,5885,125130,-8637,7084,119675,241,19227,1716,1,26904,0.0010000000000000009
888000,-9649,3028,121797,-26198,3737,121587,241,19206,987,0,26905,0.0010000000000000009
889000,-5464,28995,128898,-8975,20376,115160,270,19210,1106,0,26906,0.0010000000000000009
890000,-7625,-4772,121069,-7528,-8756,131079,298,19214,1221,1,26907,0.0010000000000000009
891000,-8744,4593,128977,-8914,6011,118437,241,19214,987,1,26908,0.0010000000000000009
892000,1199,2858,127601,-19397,-171,133205,379,19214,987,0,26909,0.0010000000000000009
893000,-1118,10331,131064,-850,14057,123568,297,19207,1552,0,26910,0.0009999999999998899
894000,-271,4457,130178,4904,446,129639,297,19200,1216,1,26911,0.0010000000000000009
895000,5097,4488,134247,-11480,-4923,141416,261,19231,1069,1,26912,0.0010000000000000009
896000,11857,-15692,128458,10375,-18646,141367,232,19215,950,0,26913,0.0010000000000000009
897000,10909,-5560,137051,19150,-4168,130785,295,19201,1208,0,26914,0.0010000000000000009
898000,8105,-6367,137815,-4148,-7314,134543,439,19201,1208,1,26915,0.0010000000000000009
899001,4089,-18322,130225,-3088,-20464,151082,241,19219,1798,1,26916,0.0010010000000000296
900001,33086,830,139830,37815,2593,122468,241,19207,987,0,26917,0.0010000000000000009
901000,-6043,-2451,125331,9400,-11633,146164,245,19212,1003,1,26918,0.0009989999999999721
902000,20084,-7503,125961,-13946,-829,115960,309,19224,1266,1,26919,0.0010000000000000009
903000,-3189,16742,130435,21889,9884,131477,263,19213,1077,1,26920,0.0010000000000000009
904000,14725,-610,123198,18676,4463,121587,357,19213,1077,0,26921,0.0010000000000000009
905000,-12075,21782,125746,-23782,18682,115934,296,19210,1462,0,26922,0.0010000000000000009
906000,6315,-14308,122953,-17163,-17308,120724,296,19196,1212,1,26923,0.0010000000000000009
907015,-2717,35389,121991,30863,32191,103947,188,19228,770,1,26924,0.0010149999999999881
908000,-10759,-1413,122501,-20558,-1971,128667,253,19204,1036,0,26925,0.0009850000000000136
909000,-2732,2490,125749,-28005,676,120852,291,19203,1192,0,26926,0.0010000000000000009
910000,-11110,-7736,120813,2284,-6485,120333,396,19203,1192,1,26927,0.0010000000000000009
911000,-2482,21193,128984,-4349,22887,111358,238,19222,1622,1,26928,0.0010000000000000009
912000,-8679,1886,123565,-31754,-13832,135098,238,19207,975,0,26929,0.0010000000000000009
913000,-6436,8062,124136,-6358,12018,110009,276,19216,1130,0,26930,0.0010000000000000009
914000,-6007,11600,124228,-1102,5209,129733,298,19214,1221,1,26931,0.0010000000000000009
915000,-7045,-143,128761,-14887,4800,122003,222,19216,909,1,26932,0.0010000000000000009
916000,5729,7214,126805,-6073,3623,126734,368,19216,1507,0,26933,0.0010000000000000009
917000,-9309,7333,132212,-10704,12154,129509,294,19206,1507,0,26934,0.0010000000000000009
918000,3586,4540,129948,-1040,-6049,136193,255,19198,1204,1,26935,0.0010000000000000009
919000,-2348,4348,133298,1176,4171,126706,255,19227,1044,0,26936,0.0010000000000000009
920000,16398,-7479,132063,4999,-31066,157175,243,19216,995,0,26937,0.0010000000000000009
921000,10574,-29979,130097,15775,-4418,124355,291,19200,1192,0,26938,0.0010000000000000009
922000,10432,15406,143916,6011,-43,132700,437,19200,1790,1,26939,0.0010000000000000009
923001,16480,-31827,126984,-1302,-25166,154591,239,19221,1790,0,26940,0.0010010000000000296
924001,15657,15004,139620,36217,17388,115713,244,19207,979,0,26941,0.0010000000000000009
925000,8901,-15029,125351,-13363,-35859,156031,244,19213,999,1,26942,0.0009989999999999721
926000,3863,538,128465,3130,27219,106552,306,19226,1253,1,26943,0.0010000000000000009
927000,2842,17178,128932,23358,-4370,134525,249,19208,1020,1,26944,0.0010000000000000009
928000,12466,-1637,123728,671,11514,118694,372,19208,1524,0,26945,0.0010000000000000009
929000,-16781,14370,126776,-20827,4363,119303,293,19206,1524,1,26946,0.0010000000000000009
930000,15650,977,121762,-2587,9515,130990,188,19201,1200,1,26947,0.0010000000000000009
931001,-10588,21223,122140,14401,12035,104575,188,19224,770,0,26948,0.0010010000000000296
932001,-2295,7242,122535,-23265,8185,118640,256,19208,1049,0,26949,0.0010000000000000009
933000,-8879,-7094,121618,-22103,-14695,128747,293,19200,1200,0,26950,0.0009989999999999721
934002,-9684,-2974,122712,1174,3743,116076,375,19223,1536,1,26951,0.0010020000000000584
935000,962,16093,127419,-9418,14583,118371,236,19223,1536,1,26952,0.0009979999999999434
936000,-13404,362,122016,-35715,428,124200,263,19208,967,0,26953,0.0010000000000000009
937001,-2933,22264,128019,-4552,16134,113822,263,19213,1077,1,26954,0.0010010000000000296
938000,-10068,-3177,122357,-4502,-7475,133657,298,19215,1221,1,26955,0.0009989999999999721
939001,-3747,3435,126235,-15061,8126,116441,224,19211,917,1,26956,0.0010010000000000296
940002,1256,3631,129271,-14669,670,132819,379,19211,1552,0,26957,0.0010010000000000296
941000,1492,11137,131078,2246,11750,125472,294,19211,1552,0,26958,0.0009979999999999434
942000,-2904,6127,130822,96,4791,126104,216,19203,1204,1,26959,0.0010000000000000009
943000,6231,-740,133298,-13421,-11544,148761,216,19231,885,0,26960,0.0010000000000000009
944000,8887,-16314,131392,11164,-13471,135586,234,19214,958,0,26961,0.0010000000000000009
945000,10316,-4403,133548,19930,-6138,133468,292,19198,1196,0,26962,0.0010000000000000009
946000,10915,-8783,138718,-8684,-8719,136300,453,19213,1855,1,26963,0.0010000000000000009
947000,13552,-17924,130161,4401,-17701,146289,258,19213,1855,0,26964,0.0010000000000000009
948000,18604,6194,137680,45800,5549,125501,253,19205,1057,0,26965,0.0010000000000000009
949000,8184,-14976,123460,-16186,-20524,145368,253,19211,1036,1,26966,0.0010000000000000009
950000,6075,9673,132696,2702,16533,112872,317,19225,1298,1,26967,0.0010000000000000009
951001,1605,2050,124529,24439,-4921,137507,269,19206,1102,0,26968,0.0010010000000000296
952000,6341,10709,124949,1067,15707,111241,363,19209,1487,0,26969,0.0009989999999999721
953000,-16717,5441,125949,-25432,-723,129380,289,19209,1487,1,26970,0.0010000000000000009
954000,16757,5927,121538,190,7478,108037,181,19192,1184,1,26971,0.0010000000000000009
955000,-16788,24602,124386,19373,21293,112551,181,19227,741,0,26972,0.0010000000000000009
956000,3684,2119,121113,-34254,1600,126886,252,19210,1032,0,26973,0.0010000000000000009
957000,-14449,-7313,121857,-12816,-10951,118443,296,19201,1212,1,26974,0.0010000000000000009
958003,-6038,-776,121228,4089,14193,118192,403,19226,1651,1,26975,0.0010029999999999761
959000,-1028,23055,130045,-20616,7245,121881,236,19226,1651,0,26976,0.0009970000000000256
960000,-15881,-5385,119865,-21994,434,124194,251,19205,967,0,26977,0.0010000000000000009
961000,4214,17132,128687,-11741,9581,115843,251,19211,1028,1,26978,0.0010000000000000009
962000,-20617,4606,124746,-2482,888,131319,301,19220,1233,1,26979,0.0010000000000000009
963000,2704,-1566,126798,-14042,2047,124238,242,19213,991,1,26980,0.0010000000000000009
964000,-3566,6602,129203,-6243,4138,126328,397,19210,1626,0,26981,0.0010000000000000009
965020,-632,10240,132472,332,8022,133657,298,19210,1221,1,26982,0.0010200000000000209
966003,8156,5178,128964,-10263,956,127998,234,19197,1221,1,26983,0.0009829999999999561
967001,-5976,1524,134876,461,104,137652,232,19230,958,0,26984,0.0009980000000000544
968002,21730,-14425,132374,18482,-28803,151923,232,19215,950,0,26985,0.0010009999999999186
969001,-1818,-15339,130507,4417,6077,118281,294,19193,1204,0,26986,0.0009990000000000832
970000,13181,1988,142666,-3174,-21507,147306,460,19226,1884,1,26987,0.0009989999999999721
971000,17472,-26873,127794,22884,-9308,137739,243,19226,995,0,26988,0.0010000000000000009
972000,11138,13682,140475,14288,991,131058,252,19208,995,0,26989,0.0010000000000000009
973001,17583,-19739,123321,-7240,-13169,137731,301,19211,1032,1,26990,0.0010010000000000296
974000,-4714,18271,132711,20913,24217,113904,301,19227,1233,1,26991,0.0009989999999999721
975000,12444,-3427,123011,16360,-9487,132852,257,19207,1053,0,26992,0.0010000000000000009
976000,-4186,3372,123590,-14896,11188,117495,352,19208,1442,0,26993,0.0010000000000000009
977000,-131,3852,122316,-12237,-896,130013,293,19208,1200,1,26994,0.0010000000000000009
978000,2591,21474,125854,7957,25273,112856,192,19199,1200,1,26995,0.0010000000000000009
979001,-9516,17696,125376,-1521,6803,112160,261,19227,786,0,26996,0.0010010000000000296
980002,-3493,4162,122126,-20033,2159,125826,261,19209,1069,0,26997,0.0010009999999999186
981000,-14889,-11192,120685,-10920,-11027,119595,294,19201,1204,1,26998,0.0009980000000000544
982000,-3758,3874,124186,-4185,9410,119070,380,19226,1556,1,26999,0.0010000000000000009
983000,-3970,13194,126351,-20028,7229,119226,234,19202,958,0,27000,0.0010000000000000009
984000,-7433,8755,123351,-25150,13207,119347,245,19202,958,0,27001,0.0010000000000000009
985000,-7120,12074,129164,-1070,2960,124113,305,19211,1003,1,27002,0.0010000000000000009
986000,-11439,-5182,121395,-10873,283,126274,305,19224,1249,1,27003,0.0010000000000000009
987000,-5671,7362,129142,-11796,7223,121654,230,19215,942,0,27004,0.0010000000000000009
988000,546,2585,128062,-11052,3568,130700,373,19209,1528,0,27005,0.0010000000000000009
989001,527,10734,130637,1635,6175,128201,295,19194,1208,1,27006,0.0010009999999999186
990001,-326,8231,134413,-5071,6837,128853,236,19194,1208,1,27007,0.0010000000000000009
991001,5242,-7256,131654,-9530,-15726,146920,248,19226,967,0,27008,0.0010000000000000009
992000,6982,-14023,134430,23825,-9108,133780,248,19214,1016,0,27009,0.0009990000000000832
993000,10528,-2129,134227,6639,-1454,129776,300,19198,1229,1,27010,0.0010000000000000009
994002,4830,-15420,135796,-7688,-20697,147364,470,19225,1925,1,27011,0.0010019999999999474
995000,28117,-13503,133282,12966,-9557,134457,241,19210,987,0,27012,0.0009980000000000544
996001,1080,11201,136719,37564,4391,133656,254,19210,987,0,27013,0.0010009999999999186
997001,20952,-22291,122465,-27200,-23951,137729,317,19214,1040,1,27014,0.0010000000000000009
998003,-815,19626,134801,20113,21905,118241,317,19222,1298,1,27015,0.0010020000000000584
999000,8664,-9604,123537,28419,-9914,134339,258,19205,1057,0,27016,0.0009970000000000256
1000000,-429,22286,125149,-17384,24801,108364,366,19207,1499,0,27017,0.0010000000000000009
1001000,-12438,-3357,125980,-24474,-9922,134904,295,19197,1208,1,27018,0.0009999999999998899
1002001,10895,23857,124215,17358,25642,101917,203,19197,1208,1,27019,0.0010010000000000296
1003000,-17548,9353,122966,1164,4599,120124,263,19224,831,0,27020,0.0009989999999999721
1004000,2454,7769,123089,-34345,8445,124173,263,19207,1077,0,27021,0.001000000000000112
1005000,-11862,-11692,120006,480,-12934,117721,295,19201,1208,1,27022,0.0009999999999998899
1006000,-4116,7275,121290,-363,24922,111989,367,19220,1503,1,27023,0.001000000000000112
1007000,-6004,18592,129609,-29008,-10379,134580,249,19203,1020,0,27024,0.0009999999999998899
1008000,-11283,-9279,119537,-20947,10888,112421,253,19203,1036,0,27025,0.001000000000000112
1009000,-3103,20622,130608,-3252,7912,123566,307,19215,1036,1,27026,0.0009999999999998899
1010000,-18920,191,124735,-8698,-643,128369,225,19222,1257,1,27027,0.001000000000000112
1011000,8709,3296,127491,-9218,4374,122842,225,19216,922,0,27028,0.0009999999999998899
1012000,-9724,2609,128900,-2525,1811,132707,398,19209,1630,0,27029,0.001000000000000112
1013000,5490,9846,131299,-64,6148,132881,300,19193,1229,1,27030,0.0009999999999998899
1014000,-940,3519,130696,-8563,1630,129822,200,19193,819,1,27031,0.001000000000000112
1015000,3375,4335,136852,8502,-1338,138042,241,19229,819,0,27032,0.0009999999999998899
1016000,14537,-20868,131625,15730,-27314,145689,288,19216,987,0,27033,0.001000000000000112
1017000,4122,-8213,132667,5233,3638,118201,288,19198,1180,1,27034,0.0009999999999998899
1018000,14639,-9796,139445,-2597,-30451,159547,469,19223,1921,1,27035,0.001000000000000112
1019000,17915,-18737,129656,30868,-187,124302,240,19207,983,0,27036,0.0009999999999998899
1020000,9999,17383,139848,8681,-1406,140088,253,19207,1036,0,27037,0.001000000000000112
1021000,14325,-16128,124072,-6773,-7093,128607,301,19210,1036,1,27038,0.0009999999999998899
1022000,-3112,18294,131570,26308,14854,118670,253,19228,1233,1,27039,0.001000000000000112
1023000,12717,-9100,123913,6604,-8549,129986,253,19209,1036,0,27040,0.0009999999999998899
1024000,-7359,10966,125175,-15273,15363,117657,355,19211,1454,0,27041,0.001000000000000112
1025000,4253,2424,122402,-9709,2027,126107,298,19205,1221,1,27042,0.0009999999999998899
1026000,-2981,29928,127045,16098,27387,112110,201,19226,823,1,27043,0.001000000000000112
1027000,-7266,7447,121627,-13137,796,114582,266,19226,823,0,27044,0.0009999999999998899
1028001,-6087,4904,122244,-19205,3341,123880,293,19209,1089,0,27045,0.0010010000000000296
1029002,-13587,-12499,121443,-4621,-12475,121558,293,19201,1200,1,27046,0.0010010000000000296
1030002,-2147,7054,122956,-4390,14141,116155,343,19223,1405,1,27047,0.0009999999999998899
1031002,-7351,12730,127928,-26245,2688,124536,244,19202,999,0,27048,0.001000000000000112
1032000,-7890,8044,124617,-15035,10409,120025,250,19214,1024,0,27049,0.0009980000000000544
1033003,-9047,11721,128067,-231,3624,122140,312,19214,1024,1,27050,0.0010029999999998651
1034001,-14324,-3134,124097,-13103,1625,127289,237,19220,1278,1,27051,0.0009980000000000544
1035000,3502,7122,129591,-14974,4414,124582,237,19210,971,0,27052,0.0009989999999999721
1036000,-3144,3404,129008,-3161,6594,127517,384,19206,1573,0,27053,0.001000000000000112
1037001,3952,5720,128341,4767,-965,135551,300,19195,1229,1,27054,0.0010010000000000296
1038000,2034,10326,136444,-10524,8667,125401,187,19231,766,1,27055,0.0009989999999999721
1039000,6489,-12052,129597,5369,-20020,149352,244,19231,766,0,27056,0.0009999999999998899
1040001,8760,-10203,136639,19194,-5424,131741,293,19212,999,0,27057,0.0010010000000000296
1041000,6424,-3538,135762,1812,-5487,131566,293,19198,1200,1,27058,0.0009989999999999721
1042000,4812,-17954,133748,-5642,-20837,150355,474,19223,1941,1,27059,0.001000000000000112
1043000,31727,-7193,135666,22229,-5412,127325,245,19205,1003,0,27060,0.0009999999999998899
1044002,-4779,8164,132687,28309,-1243,139147,256,19211,1049,0,27061,0.0010019999999999474
1045004,27709,-19168,122037,-25054,-17873,129545,297,19211,1049,1,27062,0.0010020000000001694
1046001,-5507,21295,134078,28002,20364,123298,269,19222,1216,1,27063,0.0009969999999999146
1047001,14646,-6995,122808,20995,-4453,127248,269,19208,1102,0,27064,0.0009999999999998899
1048000,-7547,23596,124278,-23205,23592,112347,346,19207,1417,0,27065,0.0009990000000001942
1049000,-3299,-11231,126143,-19016,-15637,129889,293,19201,1200,1,27066,0.0009999999999998899
1050000,3540,32515,123816,25312,30349,101635,199,19226,815,1,27067,0.001000000000000112
1051000,-13958,1289,121664,-8501,-1960,124658,269,19226,1102,0,27068,0.0009999999999998899
1052000,387,9845,125603,-29389,10658,122001,298,19208,1102,0,27069,0.001000000000000112
1053001,-11177,-11405,120412,828,-11361,121316,366,19207,1221,1,27070,0.0010009999999998076
1054000,-6754,11068,123891,-2741,26941,108407,366,19224,1499,1,27071,0.0009990000000001942
1055000,-1131,12294,127422,-32179,-14377,137090,237,19200,971,0,27072,0.0009999999999998899
1056000,-14865,-465,121103,-9382,15609,107439,250,19212,1024,0,27073,0.001000000000000112
1057000,1666,17178,126494,-4018,7313,127142,315,19212,1290,1,27074,0.0009999999999998899
1058000,-19430,-1090,128057,-23228,-1810,125939,231,19228,1290,1,27075,0.001000000000000112
1059003,9311,5594,127128,-12041,4155,128095,369,19213,946,0,27076,0.0010029999999998651
1060011,-10977,5200,130715,821,13649,125318,369,19206,1511,0,27077,0.00100800000000012
1061000,-1018,10179,131556,-2747,-4515,136945,299,19192,1225,1,27078,0.0009889999999999066
1062000,5885,-6316,129572,-5494,-6960,130113,220,19230,901,1,27079,0.001000000000000112
1063000,7692,3478,136513,13577,-8353,143732,244,19230,999,0,27080,0.0009999999999998899
1064002,18239,-27994,130063,14098,-23004,142187,299,19209,999,0,27081,0.0010019999999999474
1065000,5646,10612,139358,-4295,15195,117650,486,19201,1225,1,27082,0.0009980000000000544
1066002,7679,-20219,133272,2688,-37589,165256,486,19224,1991,1,27083,0.0010019999999999474
1067002,20332,-2860,134806,38078,15767,110725,248,19209,1016,0,27084,0.001000000000000112
1068001,4264,1112,130451,-6577,-32506,158505,257,19212,1053,0,27085,0.0009989999999999721
1069000,16795,-18371,125829,1218,15499,112834,276,19226,1130,1,27086,0.0009989999999999721
1070000,-1133,33492,131408,20878,14155,120898,259,19226,1130,1,27087,0.001000000000000112
1071000,13972,-3243,124095,2775,4020,128824,339,19207,1061,0,27088,0.0009999999999998899
1072000,-12678,12296,126904,-11414,4686,115203,339,19209,1388,0,27089,0.0009999999999998899
1073002,8956,-10935,120042,-11584,-4929,136398,301,19206,1233,1,27090,0.0010020000000001694
1074000,-5785,26307,123206,17047,24290,104295,198,19230,811,1,27091,0.0009979999999998324
1075000,-3839,10954,123503,-15377,7557,114256,268,19211,1098,0,27092,0.001000000000000112
1076000,-5286,609,122859,-21786,-10440,129004,294,19211,1098,0,27093,0.0009999999999998899
1077000,-15386,-6004,121573,-8368,255,118277,351,19198,1204,1,27094,0.001000000000000112
1078000,-1292,10938,128535,-1780,10847,120750,351,19226,1438,1,27095,0.0009999999999998899
1079001,-10878,-1318,121473,-25592,-4302,124905,241,19204,987,0,27096,0.0010010000000000296
1080000,-4670,28752,128058,-13197,26479,105754,257,19213,1053,0,27097,0.0009989999999999721
1081000,-7820,4008,124833,-6126,-5984,136020,319,19227,1307,1,27098,0.001000000000000112
1082000,-2670,-5257,124832,-6134,882,118873,229,19227,1307,1,27099,0.0009999999999998899
1083000,-1243,10924,129741,-16099,4261,129417,392,19212,938,0,27100,0.001000000000000112
1084000,470,4184,130398,-9692,10591,128771,392,19204,1606,0,27101,0.0009999999999998899
1085000,-3217,7156,129106,8836,3205,126260,300,19190,1229,1,27102,0.001000000000000112
1086000,5070,4918,136606,-7036,-6074,141523,189,19229,774,1,27103,0.0009999999999998899
1087000,13387,-18523,126841,4117,-20910,144030,237,19208,971,0,27104,0.001000000000000112
1088000,9054,-7027,136647,20846,-4331,130390,301,19208,971,0,27105,0.0009999999999998899
1089000,10123,-2264,138859,1493,-3450,131690,466,19192,1233,1,27106,0.001000000000000112
1090000,2154,-19168,129163,-6872,-22273,152757,466,19225,1909,1,27107,0.0009999999999998899
1091000,33851,163,139250,35195,2879,122025,241,19209,987,0,27108,0.001000000000000112
1092001,-4216,-249,126107,14418,-11042,147939,261,19212,1069,1,27109,0.0010010000000000296
1093001,18623,-9530,125093,-13694,-2152,113707,304,19232,1245,1,27110,0.0009999999999998899
1094001,-2001,18651,130403,18903,11192,132712,256,19232,1245,1,27111,0.001000000000000112
1095000,14501,-5199,124510,20526,-65,122747,350,19205,1049,0,27112,0.0009989999999999721
1096000,-12428,20688,124425,-20207,18300,116140,350,19207,1433,0,27113,0.0009999999999998899
1097000,5911,-12393,124905,-20933,-15853,125168,296,19206,1212,1,27114,0.001000000000000112
1098000,-2817,34890,122390,28649,31823,101601,204,19224,836,1,27115,0.0009999999999998899
1099000,-10221,-1803,121685,-14590,-2427,129408,284,19209,1163,0,27116,0.001000000000000112
1100000,-2305,3295,125221,-29192,1916,120668,298,19209,1221,0,27117,0.0009999999999998899
1101000,-11734,-8300,120852,-643,1432,121768,322,19200,1221,1,27118,0.001000000000000112
1102000,-1718,20135,128613,-12,24360,108963,240,19224,1319,1,27119,0.0009999999999998899
1103000,-6426,6198,124183,-34016,-11816,135295,240,19200,983,0,27120,0.001000000000000112
1104000,-8869,7034,124298,-4309,12190,109975,255,19214,1044,0,27121,0.0009999999999998899
1105000,-6676,11731,123864,-5752,4160,130419,325,19217,1331,1,27122,0.001000000000000112
1106001,-10354,480,129391,-16826,8874,120525,241,19217,987,1,27123,0.0010010000000000296
1107001,5921,8187,126593,-4662,1531,126785,376,19208,987,0,27124,0.0009999999999998899
1108000,-6724,4003,131586,-4573,7802,128895,301,19204,1540,0,27125,0.0009989999999999721
1109000,2806,2208,130086,-7672,-4524,135119,301,19193,1233,1,27126,0.001000000000000112
1110002,6284,13,133123,2251,-4398,136903,186,19231,762,0,27127,0.0010019999999999474
1111002,10881,1613,134378,12546,-11110,141381,243,19203,995,0,27128,0.001000000000000112
1112000,12217,-23578,130838,6807,-15945,137664,296,19203,1212,0,27129,0.0009979999999998324
1113000,5123,388,140130,-1091,-1504,126036,433,19203,1212,1,27130,0.001000000000000112
1114000,17744,-23330,129398,18475,-22236,154522,239,19227,1773,0,27131,0.0009999999999998899
1115000,18320,1357,135277,14766,9312,121100,239,19207,979,0,27132,0.001000000000000112
1116000,6438,2977,127443,-4689,-12236,140324,259,19212,1061,1,27133,0.0009999999999998899
1117000,8611,1881,129736,8486,14906,120590,282,19224,1155,1,27134,0.001000000000000112
1118000,3387,11152,124770,22967,-2949,126606,262,19202,1073,1,27135,0.0009999999999998899
1119000,4867,-1677,124344,-7790,5304,123802,341,19202,1073,0,27136,0.001000000000000112
1120000,-4963,5347,126034,-15997,-285,124503,300,19207,1397,1,27137,0.0009999999999998899
1121000,3035,11352,124267,3565,20739,115677,300,19203,1229,1,27138,0.001000000000000112
1122000,-1563,24516,123906,543,9854,116176,203,19224,831,0,27139,0.0009999999999998899
1123000,-8526,-1437,121342,-23524,111,119574,279,19205,1143,0,27140,0.001000000000000112
1124000,-5134,-3720,122442,-13159,-9058,123713,300,19195,1229,0,27141,0.0009999999999998899
1125000,-9044,-3876,122539,-298,3667,118695,352,19195,1229,1,27142,0.001000000000000112
1126000,-3248,14605,124923,-17395,15996,114053,244,19219,1442,1,27143,0.0009999999999998899
1127000,-5525,4445,123776,-26487,2602,126922,244,19203,999,0,27144,0.001000000000000112
1128000,-6448,17598,125004,-4123,12842,116377,256,19212,1049,1,27145,0.0009999999999998899
1129002,-11296,2762,123248,-9378,578,126381,325,19223,1331,1,27146,0.0010019999999999474
1130002,-6104,3150,127853,-18704,1943,123418,231,19204,946,1,27147,0.001000000000000112
1131002,-735,2541,127833,-8402,4861,127413,363,19204,946,0,27148,0.0009999999999998899
1132002,1710,11453,132217,-986,8847,128827,302,19204,1487,0,27149,0.001000000000000112
1133002,-2030,2691,130500,-1341,2547,128673,302,19192,1237,1,27150,0.0009999999999998899
1134000,6687,6293,134221,-12391,-5459,140744,203,19226,831,0,27151,0.0009980000000000544
1135002,10464,-22507,129148,18163,-23387,145597,245,19209,1003,0,27152,0.0010019999999999474
1136002,9450,-5048,135271,12232,-2344,125987,300,19197,1229,0,27153,0.001000000000000112
1137000,10751,-7336,138022,-7302,-11633,142255,475,19197,1229,1,27154,0.0009980000000000544
1138000,10466,-19251,131559,2583,-16513,144131,249,19225,1945,0,27155,0.0009999999999998899
1139002,22537,7312,137096,47103,6029,125902,249,19207,1020,0,27156,0.0010019999999999474
1140001,2254,-10775,126524,-14781,-17382,143950,261,19211,1069,1,27157,0.0009990000000001942
1141000,12721,4685,128014,-3509,11392,113375,266,19222,1089,1,27158,0.0009989999999999721
1142000,-2281,4903,128178,31021,-2442,137828,263,19219,1077,1,27159,0.0009999999999998899
1143002,13401,8981,123526,7831,15607,110620,327,19219,1339,0,27160,0.0010019999999999474
1144000,-20784,14204,125743,-35717,7491,142732,300,19210,1339,1,27161,0.0009980000000000544
1145000,18981,-5765,121763,74,-3877,105216,203,19201,1229,1,27162,0.001000000000000112
1146002,-16360,32105,123914,27731,28270,115190,203,19225,831,0,27163,0.0010019999999999474
1147000,-1601,-6915,120829,-39196,-6410,123804,279,19207,1143,0,27164,0.0009980000000000544
1148002,-7102,5379,125028,-19898,837,121474,300,19197,1229,1,27165,0.0010019999999999474
1149000,-11187,-11947,119269,15372,5183,118959,331,19197,1356,1,27166,0.0009980000000000544
1150000,3519,28261,129643,-20516,20088,113721,241,19221,1356,0,27167,0.0009999999999998899
1151000,-18633,-6376,121778,-30908,-14098,137170,257,19205,987,0,27168,0.001000000000000112
1152000,3502,9228,126111,-3243,16678,106572,257,19213,1053,1,27169,0.0009999999999998899
1153000,-15606,13657,125421,-17984,3252,133009,328,19228,1343,1,27170,0.001000000000000112
1154000,-8513,1246,127969,-11862,8973,121888,228,19212,934,1,27171,0.0009999999999998899
1155000,7473,4138,126652,-6143,-2511,126854,378,19212,1548,0,27172,0.001000000000000112
1156000,-8967,8656,132601,-4489,9946,132733,299,19200,1548,1,27173,0.0009999999999998899
1157000,10318,2441,129627,-3798,-3117,133594,183,19193,1225,1,27174,0.001000000000000112
1158000,917,917,132281,3166,-334,130898,183,19226,750,0,27175,0.0009999999999998899
1159000,14427,-5992,135595,14723,-24607,152806,233,19209,954,0,27176,0.001000000000000112
1160000,7188,-21404,129964,2253,810,124829,303,19199,1241,0,27177,0.0009999999999998899
1161000,2754,-872,140356,2256,-20715,140976,451,19224,1847,1,27178,0.001000000000000112
1162000,21462,-17927,131875,17631,-2660,137384,247,19224,1847,0,27179,0.0009999999999998899
1163001,9004,8954,136146,17398,-7214,134301,261,19209,1012,0,27180,0.0010010000000000296
1164000,16895,-20781,124391,-10818,-7152,131892,261,19210,1069,1,27181,0.0009989999999999721
1165000,1702,19409,132972,27562,18862,121786,287,19224,1175,1,27182,0.001000000000000112
1166002,7546,-4092,121842,13741,-4,125442,260,19206,1065,0,27183,0.0010019999999999474
1167000,1668,12670,126067,-13300,9171,117701,350,19203,1433,0,27184,0.0009980000000000544
1168000,-6289,-6035,123349,-14848,-10338,136407,300,19203,1433,1,27185,0.0009999999999998899
1169000,6084,21878,125400,13796,27390,107657,204,19208,1229,1,27186,0.001000000000000112
1170000,-12506,15669,126814,-6549,3579,118260,204,19223,836,0,27187,0.0009999999999998899
1171000,-3428,5674,123250,-23075,3694,121197,284,19209,1163,0,27188,0.001000000000000112
1172000,-14557,-8734,120412,-6839,-7489,120038,297,19198,1216,1,27189,0.0009999999999998899
1173000,-3299,4725,126723,-4627,6997,120696,319,19222,1307,1,27190,0.001000000000000112
1174001,-4669,7583,123536,-21185,4775,119549,245,19222,1307,0,27191,0.0010009999999998076
1175000,-4911,11008,124545,-22588,16849,116151,257,19201,1003,0,27192,0.0009990000000001942
1176001,-8191,15932,127825,-243,4714,124035,257,19212,1053,1,27193,0.0010009999999998076
1177000,-9101,-3767,122313,-13265,1784,124937,329,19227,1347,1,27194,0.0009990000000001942
1178000,-7358,5520,127546,-11976,2979,124923,241,19208,987,0,27195,0.0009999999999998899
1179000,-388,2680,128658,-12884,5448,128300,375,19207,1536,0,27196,0.001000000000000112
1180000,1835,12530,131628,3554,6387,128297,304,19207,1536,1,27197,0.0009999999999998899
1181000,-1967,4170,132933,-5759,4180,130103,192,19198,1245,1,27198,0.001000000000000112
1182002,7751,-5345,133255,-8136,-15927,145946,192,19227,786,0,27199,0.0010019999999999474
1183000,6939,-20730,132314,20026,-15759,140775,241,19210,987,0,27200,0.0009980000000000544
1184000,9551,1043,135714,13738,2272,125531,291,19199,1192,1,27201,0.0009999999999998899
1185001,9269,-10871,136113,-13733,-17165,146504,417,19225,1708,1,27202,0.0010010000000000296
1186000,21124,-16470,131181,12154,-13185,136956,242,19225,1708,0,27203,0.0009989999999999721
1187000,9541,13228,137680,40532,9473,128385,261,19209,991,0,27204,0.001000000000000112
1188000,14256,-26954,120922,-21543,-30902,145774,261,19213,1069,1,27205,0.0009999999999998899
1189000,1411,23595,135181,10145,29800,108550,273,19220,1118,1,27206,0.001000000000000112
1190000,7745,-5441,123668,25580,-9768,138821,256,19204,1049,0,27207,0.0009999999999998899
1191000,1571,17240,125201,-5096,22583,109671,332,19207,1360,0,27208,0.0009999999999998899
1192000,-13895,1473,125912,-24103,-6705,138581,301,19207,1233,1,27209,0.001000000000000112
1193000,12035,9735,121486,1633,13997,103854,207,19204,1233,1,27210,0.0009999999999998899
1194000,-16482,17192,125311,14390,12162,116254,285,19227,848,0,27211,0.001000000000000112
1195000,1622,5620,121596,-33659,6322,123757,285,19208,1167,0,27212,0.0009999999999998899
1196000,-12339,-8342,121373,-11561,-10483,121270,298,19198,1221,1,27213,0.001000000000000112
1197000,-7768,223,119860,8095,22565,111601,335,19224,1372,1,27214,0.0009999999999998899
1198000,2268,24580,130367,-29503,-2839,129785,243,19224,995,0,27215,0.001000000000000112
1199000,-17217,-10297,117853,-16717,7256,115316,260,19203,995,0,27216,0.0009999999999998899
1200000,-392,18157,130479,-7898,9026,120821,331,19210,1065,1,27217,0.001000000000000112
1201000,-14940,1627,123186,-14324,2679,129308,331,19224,1356,1,27218,0.0009999999999998899
1202002,-5297,9980,131384,-3980,3971,124836,237,19207,971,0,27219,0.0010020000000001694
1203002,137,-3006,125960,-13539,1761,127351,361,19203,1479,0,27220,0.0009999999999998899
1204000,-5728,10237,132474,-2002,4695,136983,303,19189,1241,1,27221,0.0009980000000000544
1205001,11167,4720,133307,3773,-3702,132178,202,19189,1241,1,27222,0.0010010000000000296
1206000,3163,-4785,130969,2454,1739,130559,246,19229,827,0,27223,0.0009989999999999721
1207000,11311,-11839,137418,14892,-26964,154101,246,19205,1008,0,27224,0.0009999999999998899
1208000,10939,-18194,128598,4400,-4055,121300,302,19195,1237,1,27225,0.001000000000000112
1209001,4086,-1256,141106,-1900,-15213,145396,454,19220,1859,1,27226,0.0010010000000000296
1210000,18179,-13518,131804,31052,-8333,139158,248,19210,1016,0,27227,0.0009989999999999721
1211000,13033,6191,135354,1048,-2280,132192,258,19210,1016,0,27228,0.0009999999999998899
1212000,9218,-8592,126702,2487,66,127875,258,19213,1057,1,27229,0.001000000000000112
1213002,4119,16725,131264,24609,12565,122999,258,19223,1057,1,27230,0.0010019999999999474
1214002,6946,-6188,122679,3417,-2704,120292,264,19204,1081,0,27231,0.001000000000000112
1215000,-6032,9260,127674,-9100,7695,127668,332,19210,1360,0,27232,0.0009979999999998324
1216000,6352,-4731,119247,-12846,-1431,125524,300,19204,1229,1,27233,0.001000000000000112
1217002,-8617,31918,128067,15418,30625,108465,202,19204,1229,1,27234,0.0010019999999999474
1218000,-929,6744,124858,-7817,-4877,122012,275,19224,827,0,27235,0.0009980000000000544
1219000,-11885,1010,119456,-21631,1698,119765,275,19207,1126,0,27236,0.0009999999999998899
1220000,-12330,-5972,124794,-5248,-8641,121919,296,19193,1212,1,27237,0.001000000000000112
1221000,-2479,2800,123359,-6007,6423,122226,323,19222,1323,1,27238,0.0009999999999998899
1222000,-10356,14060,126928,-20580,7336,115798,245,19205,1003,0,27239,0.001000000000000112
1223001,-1956,15046,126550,-19867,15411,121062,258,19205,1003,0,27240,0.0010010000000000296
1224000,-12314,10967,127333,-811,769,121809,316,19211,1057,1,27241,0.0009989999999999721
1225000,-9408,-2614,122965,-4962,4609,122883,316,19224,1294,1,27242,0.0009999999999998899
1226000,462,6630,129985,-20757,3586,128263,232,19207,950,0,27243,0.001000000000000112
1227000,-4245,2786,127807,-5281,7589,126099,349,19208,1429,0,27244,0.0009999999999998899
1228000,5249,9290,129997,7071,2009,133789,302,19193,1237,1,27245,0.001000000000000112
1229001,-2424,5784,136024,-12432,4350,128343,191,19193,1237,1,27246,0.0010010000000000296
1230000,7918,-11393,131521,775,-19992,149458,233,19225,782,0,27247,0.0009989999999999721
1231001,8449,-15484,135500,23389,-9226,133178,233,19207,954,0,27248,0.0010010000000000296
1232000,6140,-1104,136051,4615,-1451,129080,299,19194,1225,1,27249,0.0009989999999999721
1233000,7826,-18482,133731,-8611,-23751,152022,430,19229,1761,1,27250,0.0009999999999998899
1234000,28390,-7922,134888,15436,-4657,128617,248,19209,1016,0,27251,0.001000000000000112
1235002,-2590,12375,133785,38844,3669,136181,265,19209,1085,0,27252,0.0010019999999999474
1236008,24773,-20043,120339,-30835,-19926,132310,273,19211,1085,1,27253,0.0010060000000000624
1237000,-3950,20354,134541,25923,20821,120988,255,19229,1118,1,27254,0.0009919999999998819
1238000,14059,-8505,122163,25634,-7126,131424,255,19203,1044,0,27255,0.001000000000000112
1239000,-3221,24088,125049,-18736,25444,122153,338,19208,1384,0,27256,0.0009999999999998899
1240000,-10722,-7104,126689,-24009,-13430,134712,304,19214,1245,1,27257,0.001000000000000112
1241000,10917,28037,124881,20872,28326,99164,214,19214,876,1,27258,0.0009999999999998899
1242000,-20038,4657,121359,1642,-868,125648,293,19221,876,0,27259,0.001000000000000112
1243000,3071,7168,125125,-37146,9566,121349,297,19210,1200,0,27260,0.0009999999999998899
1244000,-11739,-9668,120656,1609,-5525,121249,297,19197,1216,1,27261,0.001000000000000112
1245001,-7530,5970,121950,2410,27705,108644,327,19224,1339,1,27262,0.0010010000000000296
1246002,4269,19447,129229,-35405,-11246,135030,255,19201,1044,0,27263,0.0010010000000000296
1247000,-21427,-8203,120254,-8645,8851,113062,261,19201,1069,0,27264,0.0009979999999998324
1248000,5551,16975,126760,-3516,12910,120943,338,19208,1069,1,27265,0.001000000000000112
1249000,-22196,4783,127028,-24356,732,128358,241,19223,1384,1,27266,0.0009999999999998899
1250000,5871,6822,129061,-1763,3912,126032,241,19206,987,0,27267,0.001000000000000112
1251000,-5849,1302,127838,-5363,7060,125487,366,19204,1499,0,27268,0.0009999999999998899
1252000,-4703,7938,132755,-5345,-3275,140004,308,19198,1261,1,27269,0.001000000000000112
1253000,10375,-3260,130541,3868,-3403,130349,199,19229,815,1,27270,0.0009999999999998899
1254000,7244,9098,137100,5771,-560,136748,241,19229,815,0,27271,0.001000000000000112
1255000,13687,-27746,130991,14253,-30327,150701,289,19210,987,0,27272,0.0009999999999998899
1256000,6639,-2772,134943,-537,9031,113248,289,19196,1184,1,27273,0.001000000000000112
1257002,12061,-13168,136661,7229,-30632,162710,400,19224,1638,1,27274,0.0010019999999999474
1258000,15381,-12739,131437,31797,1223,124085,257,19213,1053,0,27275,0.0009980000000000544
1259000,15155,8371,132385,-5168,-8083,139590,267,19208,1094,0,27276,0.0009999999999998899
1260000,5281,-5416,128070,1548,7609,126724,259,19208,1094,1,27277,0.001000000000000112
1261000,7972,22079,129051,24616,8632,117631,259,19223,1061,1,27278,0.0009999999999998899
1262000,4865,-5273,123738,-2357,-892,125720,259,19203,1061,0,27279,0.001000000000000112
1263000,-7909,5679,127865,-13458,1676,127778,340,19215,1393,0,27280,0.0009999999999998899
1264001,8766,1306,120342,-2631,10717,117483,305,19216,1249,1,27281,0.0010010000000000296
1265000,-8925,31225,126001,9077,24808,113080,208,19222,852,1,27282,0.0009989999999999721
1266000,992,2059,120997,-14911,-169,116772,279,19222,852,0,27283,0.001000000000000112
1267000,-10802,2529,121337,-23441,-3759,123945,296,19209,1143,0,27284,0.0009999999999998899
1268000,-10517,-8892,122675,1785,-6535,123449,296,19198,1212,1,27285,0.001000000000000112
1269000,-2394,7015,124383,-9714,10786,116681,310,19225,1270,1,27286,0.0009999999999998899
1270001,-9381,7561,125367,-24322,2627,123102,248,19204,1016,0,27287,0.0010010000000000296
1271000,-5235,20574,127266,-11205,15708,117384,260,19209,1065,0,27288,0.0009989999999999721
1272002,-8391,3506,124219,-5536,-2737,125581,321,19209,1065,1,27289,0.0010019999999999474
1273000,-9905,1895,127710,-8713,5225,122756,232,19219,1315,1,27290,0.0009980000000000544
1274000,3850,4011,127267,-19984,843,129122,232,19212,950,0,27291,0.001000000000000112
1275000,-3274,9035,131099,-1384,13155,124361,355,19205,1454,0,27292,0.0009999999999998899
1276002,3591,1005,127875,7718,-3121,134446,308,19193,1261,1,27293,0.0010019999999999474
1277002,2695,10571,136214,-12751,3024,131699,196,19230,803,1,27294,0.001000000000000112
1278001,11401,-16159,127824,8986,-22848,149071,235,19230,962,0,27295,0.0009989999999999721
1279003,11228,-7696,137084,20419,-3204,127661,295,19207,962,0,27296,0.0010019999999999474
1280000,6042,-2966,138003,-1552,-6481,133701,381,19196,1208,1,27297,0.0009970000000001367
1281000,6231,-24223,129953,-4643,-25091,153888,381,19222,1560,1,27298,0.0009999999999998899
1282003,31538,340,138887,35763,2716,121303,253,19211,1036,0,27299,0.0010030000000000872
1283002,-6252,956,127816,13489,-9467,145171,265,19203,1085,1,27300,0.0009989999999999721
1284000,23787,-7970,123779,-20226,-2728,118792,248,19203,1016,1,27301,0.0009980000000000544
1285000,-5422,16605,131496,29578,10358,130085,261,19222,1016,1,27302,0.0009999999999998899
1286000,18308,-3779,122310,18115,547,122819,345,19199,1069,0,27303,0.001000000000000112
1287000,-13664,21779,124493,-28116,19509,131598,345,19207,1413,0,27304,0.0009999999999998899
1288000,6607,-12624,124857,-13753,-15123,120706,314,19209,1286,1,27305,0.001000000000000112
1289000,-3149,36220,122074,33492,31916,105044,211,19222,864,1,27306,0.0009999999999998899
1290000,-10944,-1250,122088,-24791,-1878,127565,275,19222,1126,0,27307,0.001000000000000112
1291002,-1684,7211,126790,-24957,-11320,122140,300,19206,1126,0,27308,0.0010019999999999474
1292000,-13703,-11792,119423,2568,1430,118128,328,19191,1229,1,27309,0.0009980000000000544
1293000,-732,19861,128024,-5980,24992,111818,328,19221,1343,1,27310,0.0009999999999998899
1294002,-10274,2163,125271,-29539,-17354,137200,256,19203,1049,0,27311,0.0010019999999999474
1295002,-3119,6962,122600,-9574,16168,107141,265,19210,1085,0,27312,0.001000000000000112
1296000,-7633,14850,126012,-3424,6378,130576,301,19226,1233,1,27313,0.0009980000000000544
1297003,-9340,-280,128673,-22696,1135,123020,233,19226,1233,1,27314,0.0010029999999998651
1298000,7580,3993,125868,-4047,3330,125226,341,19206,954,0,27315,0.0009970000000001367
1299000,-10677,4149,132148,-3322,12079,129641,341,19209,1397,0,27316,0.0009999999999998899
1300000,7612,8104,130247,-10914,-4074,136421,307,19196,1257,1,27317,0.001000000000000112
1301000,-6195,936,131809,182,5430,128785,200,19228,819,0,27318,0.0009999999999998899
1302000,17620,9466,137363,9815,-19464,150641,235,19202,962,0,27319,0.001000000000000112
1303000,7786,-39072,124902,9311,-20927,134751,299,19202,962,0,27320,0.0009999999999998899
1304000,6711,10626,144504,6979,6845,123483,403,19195,1225,1,27321,0.001000000000000112
1305000,19930,-30824,127471,3475,-36902,164083,403,19228,1651,1,27322,0.0009999999999998899
1306000,14911,8507,138279,31377,26275,108970,255,19214,1044,0,27323,0.001000000000000112
1307000,13716,888,128566,-5567,-28934,154783,268,19211,1098,1,27324,0.0009999999999998899
1308000,2128,-10470,126602,-4189,19316,113024,245,19220,1003,1,27325,0.001000000000000112
1309000,1928,18538,127428,26997,-3286,128825,267,19220,1003,1,27326,0.0009999999999998899
1310000,11712,-7992,123033,-2024,4870,125924,325,19200,1094,0,27327,0.0009999999999998899
1311000,-14913,16538,128576,-17132,9865,113346,325,19211,1331,1,27328,0.001000000000000112
1312000,14240,5077,120899,-4041,10649,130325,304,19204,1245,1,27329,0.0009999999999998899
1313000,-7061,25198,124161,10429,15642,107271,212,19225,868,0,27330,0.001000000000000112
1314000,-6468,2737,120906,-16447,1804,118722,287,19204,1175,0,27331,0.0009999999999998899
1315000,-5204,-3742,122773,-26986,-11176,126663,298,19204,1175,0,27332,0.001000000000000112
1316000,-15230,-4617,122081,2893,2148,116981,312,19193,1221,1,27333,0.0009999999999998899
1317002,5196,15415,127758,-9197,16373,116773,312,19223,1278,1,27334,0.0010020000000001694
1318000,-13519,1404,122645,-31928,-1389,125510,249,19204,1020,0,27335,0.0009979999999998324
1319000,-2920,20974,127498,-8326,16656,115065,263,19213,1077,1,27336,0.001000000000000112
1320000,-9451,-1999,123236,-4957,-6967,131085,332,19223,1360,1,27337,0.0009999999999998899
1321002,-7578,538,126625,-14764,5279,118632,244,19223,999,1,27338,0.0010020000000001694
1322002,3502,6013,129147,-14992,2749,131361,361,19202,999,0,27339,0.0009999999999998899
1323001,-989,9063,130699,-668,11760,126881,307,19205,1479,0,27340,0.0009989999999999721
1324002,-143,6193,130329,5055,3849,126167,307,19201,1257,1,27341,0.0010010000000000296
1325000,5678,4310,134004,-13951,-6963,145057,201,19228,823,0,27342,0.0009980000000000544
1326000,7993,-18133,128491,12015,-17737,138600,244,19208,999,0,27343,0.0009999999999998899
1327000,11787,-2452,135917,16023,-2983,130864,293,19208,1200,0,27344,0.001000000000000112
1328000,8943,-9084,137830,-5291,-10951,138409,391,19193,1200,1,27345,0.0009999999999998899
1329000,12943,-19759,129923,920,-19357,147352,263,19216,1601,0,27346,0.001000000000000112
1330001,22308,6099,138733,46867,6016,123490,263,19208,1077,0,27347,0.0010010000000000296
1331000,4762,-13169,124005,-11207,-20558,147984,268,19206,1098,1,27348,0.0009989999999999721
1332001,10677,4250,130775,-1100,12504,111607,252,19218,1032,1,27349,0.0010010000000000296
1333000,-1165,8639,126811,24279,-117,136494,260,19218,1065,1,27350,0.0009989999999999721
1334000,11985,6552,124311,5459,12095,114664,347,19200,1065,0,27351,0.0009999999999998899
1335000,-19901,10418,126305,-25481,5290,135521,307,19207,1421,1,27352,0.001000000000000112
1336000,17819,-1955,121141,-3167,-713,111088,307,19214,1257,1,27353,0.0009999999999998899
1337000,-15147,27768,122797,22496,24624,109555,211,19224,864,0,27354,0.001000000000000112
1338001,1966,2067,122525,-32763,1426,128284,277,19210,1135,0,27355,0.0010010000000000296
1339000,-10386,-3667,122484,-14738,-11676,118722,300,19195,1229,1,27356,0.0009989999999999721
1340002,-10096,-2537,121291,5278,11651,117532,300,19195,1229,1,27357,0.0010019999999999474
1341001,1517,24108,130287,-20332,10474,121065,252,19221,1229,0,27358,0.0009989999999999721
1342000,-17149,-6838,120657,-20641,-6091,127660,252,19205,1032,0,27359,0.0009989999999999721
1343000,5093,14720,126853,-11106,11928,113236,260,19211,1065,1,27360,0.001000000000000112
1344000,-17873,7784,125371,-10025,1991,132484,307,19224,1257,1,27361,0.0009999999999998899
1345000,1021,-2020,126579,-11548,5455,120587,231,19207,946,1,27362,0.001000000000000112
